{
  "resourceType": "Bundle",
  "id": "a853a52d-db63-4982-a9ef-20e5c929cfe4",
  "meta": {
    "profile": [
      "http://hl7.eu/fhir/laboratory/StructureDefinition/Bundle-eu-lab"
    ]
  },
  "identifier": {
    "assigner": {
      "display": "HL7 Europe"
    },
    "system": "urn:oid:2.16.840.1.113883.2.51.999",
    "value": "132d7823-e1cb-4f04-990c-c991cf6d82fd"
  },
  "entry": [
    {
      "fullUrl": "urn:uuid:e2903086-826b-4e55-9210-d89aa6022011",
      "resource": {
        "resourceType": "Composition",
        "id": "e2903086-826b-4e55-9210-d89aa6022011",
        "meta": {
          "profile": [
            "http://hl7.eu/fhir/laboratory/StructureDefinition/Composition-eu-lab"
          ]
        },
        "identifier": {
          "assigner": {
            "display": "HL7 Europe"
          },
          "system": "urn:oid:2.16.840.1.113883.2.51.999",
          "value": "a9c99b5d-32dc-4111-9834-366fa19f375b"
        },
        "author": [
          {
            "reference": "urn:uuid:8f7c3c61-cff5-4039-9d8c-10f7e36c8f9c"
          }
        ],
        "category": [
          {
            "coding": [
              {
                "code": "26436-6",
                "system": "http://loinc.org",
                "display": "Laboratory studies (set)"
              }
            ]
          }
        ],
        "type": {
          "coding": [
            {
              "code": "11502-2",
              "system": "http://loinc.org",
              "display": "Laboratory report"
            }
          ],
          "text": "Laboratory Report"
        },
        "section": [
          {
            "code": {
              "coding": [
                {
                  "code": "26436-6",
                  "system": "http://loinc.org",
                  "display": "Laboratory studies (set)"
                }
              ],
              "text": "Laboratory studies"
            },
            "section": [
              {
                "code": {
                  "coding": [
                    {
                      "code": "$18719-5",
                      "system": "http://loinc.org",
                      "display": "Chemistry studies (set)"
                    }
                  ],
                  "text": "Chemistry"
                },
                "entry": [
                  {
                    "reference": "urn:uuid:816f49e9-52bb-4321-9821-07a45ca7ac33"
                  },
                  {
                    "reference": "urn:uuid:2a2aeb86-a1b3-45a9-9b35-e30555fd98f5"
                  },
                  {
                    "reference": "urn:uuid:06df6c86-cad7-4ad8-9957-f2ffd132d607"
                  },
                  {
                    "reference": "urn:uuid:0c03baa4-2131-429a-9661-ed0e0af9a899"
                  },
                  {
                    "reference": "urn:uuid:f8ff1718-6207-412a-a798-15307b76f512"
                  },
                  {
                    "reference": "urn:uuid:4659ee30-002f-462b-9805-18336717e2aa"
                  },
                  {
                    "reference": "urn:uuid:d92ee6a8-0b47-4f12-a363-0b8c14564515"
                  },
                  {
                    "reference": "urn:uuid:4eaca14a-3114-45a2-80f7-4340989258ca"
                  },
                  {
                    "reference": "urn:uuid:890cc679-22c9-4816-a0c7-a65bc530566a"
                  }
                ],
                "text": {
                  "status": "generated",
                  "div": "<div xmlns=\"http://www.w3.org/1999/xhtml\"><h3>Chemistry</h3><table class=\"hl7__eu__lab__report\"><thead><tr><th>Test</th><th>03-MAR-2023</th><th>Reference&#xA0;Range</th><th>Unit</th></tr></thead><tbody><tr><td>Hemoglobin A1c/Hemoglobin.total in Blood</td><td><strong>6.1 H</strong></td><td>4.8 - 5.7</td><td>%</td></tr><tr><td>Glucose [Mass/volume] in Blood</td><td>89.7</td><td>70 - 140</td><td>mg/dL</td></tr><tr><td>Urea nitrogen [Mass/volume] in Blood</td><td>7.4</td><td>7 - 25</td><td>mg/dL</td></tr><tr><td>Creatinine [Mass/volume] in Blood</td><td>0.7</td><td>0.6 - 1.3</td><td>mg/dL</td></tr><tr><td>Calcium [Mass/volume] in Blood</td><td>9.3</td><td>8.5 - 10.5</td><td>mg/dL</td></tr><tr><td>Sodium [Moles/volume] in Blood</td><td>142.5</td><td>135 - 145</td><td>mmol/L</td></tr><tr><td>Potassium [Moles/volume] in Blood</td><td>4.6</td><td>3.5 - 5.1</td><td>mmol/L</td></tr><tr><td>Chloride [Moles/volume] in Blood</td><td>107.8</td><td>98 - 108</td><td>mmol/L</td></tr><tr><td>Carbon dioxide, total [Moles/volume] in Blood</td><td>27.4</td><td>22 - 29</td><td>mmol/L</td></tr></tbody></table></div>"
                },
                "title": "Chemistry"
              }
            ],
            "title": "Laboratory Report"
          },
          {
            "text": {
              "status": "generated",
              "div": "<div xmlns=\"http://www.w3.org/1999/xhtml\"><h3>Annotation</h3><table class=\"hl7__eu__lab__report\"><tr><th>Conclusion and Recommendations based on this report and previous findings known to us</th></tr><tr><td>All parameters are within normal limits except for a mildly elevated HbA1c (6.1%), indicating impaired glucose tolerance or prediabetes. Renal function, electrolytes, and other metabolic parameters are normal. Recommend clinical follow-up for glycemic control and lifestyle modification to prevent progression to diabetes.</td></tr></table></div>"
            },
            "code": {
              "coding": [
                {
                  "system": "http://loinc.org",
                  "code": "48767-8",
                  "display": "Annotation comment"
                }
              ]
            },
            "title": "Annotation comment"
          }
        ],
        "status": "final",
        "subject": {
          "reference": "urn:uuid:c48395da-02f1-4f68-97eb-88656354fc8a",
          "display": "Bethany Begum"
        },
        "date": "2023-03-03T12:40:40Z",
        "title": "Laboratory Report",
        "confidentiality": "N"
      }
    },
    {
      "fullUrl": "urn:uuid:525a51d8-bf84-4c64-b878-49721d874481",
      "resource": {
        "resourceType": "DiagnosticReport",
        "id": "525a51d8-bf84-4c64-b878-49721d874481",
        "meta": {
          "profile": [
            "http://hl7.eu/fhir/laboratory/StructureDefinition/DiagnosticReport-eu-lab"
          ]
        },
        "identifier": [
          {
            "assigner": {
              "display": "HL7 Europe"
            },
            "system": "urn:oid:2.16.840.1.113883.2.51.999",
            "value": "d7b7e055-f48e-4bdc-9c63-413522014a86"
          }
        ],
        "extension": [
          {
            "url": "http://hl7.org/fhir/5.0/StructureDefinition/extension-DiagnosticReport.composition",
            "valueReference": {
              "reference": "urn:uuid:a9c99b5d-32dc-4111-9834-366fa19f375b"
            }
          }
        ],
        "category": [
          {
            "coding": [
              {
                "code": "26436-6",
                "system": "http://loinc.org",
                "display": "Laboratory studies (set)"
              }
            ]
          }
        ],
        "specimen": [
          {
            "reference": "urn:uuid:f882dc01-9723-4ee5-a4eb-2fb5902fed35"
          }
        ],
        "result": [
          {
            "reference": "urn:uuid:816f49e9-52bb-4321-9821-07a45ca7ac33"
          },
          {
            "reference": "urn:uuid:2a2aeb86-a1b3-45a9-9b35-e30555fd98f5"
          },
          {
            "reference": "urn:uuid:06df6c86-cad7-4ad8-9957-f2ffd132d607"
          },
          {
            "reference": "urn:uuid:0c03baa4-2131-429a-9661-ed0e0af9a899"
          },
          {
            "reference": "urn:uuid:f8ff1718-6207-412a-a798-15307b76f512"
          },
          {
            "reference": "urn:uuid:4659ee30-002f-462b-9805-18336717e2aa"
          },
          {
            "reference": "urn:uuid:d92ee6a8-0b47-4f12-a363-0b8c14564515"
          },
          {
            "reference": "urn:uuid:4eaca14a-3114-45a2-80f7-4340989258ca"
          },
          {
            "reference": "urn:uuid:890cc679-22c9-4816-a0c7-a65bc530566a"
          }
        ],
        "status": "registered",
        "code": {
          "coding": [
            {
              "code": "11502-2",
              "system": "http://loinc.org",
              "display": "Laboratory report"
            }
          ]
        },
        "subject": {
          "reference": "urn:uuid:c48395da-02f1-4f68-97eb-88656354fc8a",
          "display": "Bethany Begum"
        }
      }
    },
    {
      "fullUrl": "urn:uuid:c48395da-02f1-4f68-97eb-88656354fc8a",
      "resource": {
        "resourceType": "Patient",
        "id": "c48395da-02f1-4f68-97eb-88656354fc8a",
        "meta": {
          "security": [
            {
              "system": "http://terminology.hl7.org/CodeSystem/v3-ActReason",
              "code": "HTEST"
            },
            {
              "system": "http://terminology.hl7.org/CodeSystem/v3-ActReason",
              "code": "TRAIN"
            }
          ],
          "tag": [
            {
              "system": "https://synderai.net/fhir/CodeSystem/tags",
              "code": "synthetic",
              "display": "SYNDERAI Synthetic data"
            }
          ],
          "profile": [
            "http://hl7.eu/fhir/base/StructureDefinition/patient-eu-core"
          ]
        },
        "identifier": [
          {
            "type": {
              "coding": [
                {
                  "code": "PT",
                  "system": "http://terminology.hl7.org/CodeSystem/v2-0203"
                }
              ]
            },
            "system": "http://ec.europa.eu/identifier/eci",
            "value": "2365-936148-1"
          },
          {
            "type": {
              "coding": [
                {
                  "code": "MR",
                  "system": "http://terminology.hl7.org/CodeSystem/v2-0203"
                }
              ]
            },
            "system": "http://local.setting.eu/identifier",
            "value": "853b213b-8bf3-d90f-2018-79d547156fd7"
          }
        ],
        "name": [
          {
            "family": "Begum"
          },
          {
            "given": [
              "Bethany"
            ]
          },
          {
            "text": "Bethany Begum"
          }
        ],
        "address": [
          {
            "line": [
              "Studio 22e",
              "Joe unions"
            ],
            "use": "home",
            "type": "physical",
            "postalCode": "M1",
            "city": "Manchester",
            "country": "United Kingdom"
          }
        ],
        "telecom": [
          {
            "system": "phone",
            "value": "(029) 2018200"
          }
        ],
        "extension": [
          {
            "url": "http://hl7.org/fhir/StructureDefinition/patient-nationality",
            "valueCodeableConcept": {
              "coding": [
                {
                  "code": "GB",
                  "system": "http://hl7.org/fhir/ValueSet/country"
                }
              ]
            }
          }
        ],
        "text": {
          "status": "generated",
          "div": "<div xmlns=\"http://www.w3.org/1999/xhtml\"><table class=\"hl7__ips\"><tr><td>Bethany Begum</td><td>female</td><td>19-Jan-1976</td></tr></table></div>"
        },
        "gender": "female",
        "birthDate": "1976-01-19"
      }
    },
    {
      "fullUrl": "urn:uuid:0f176f16-0ec0-44fe-b7a0-cdd4312e302b",
      "resource": {
        "resourceType": "ServiceRequest",
        "id": "0f176f16-0ec0-44fe-b7a0-cdd4312e302b",
        "meta": {
          "profile": [
            "http://hl7.eu/fhir/laboratory/StructureDefinition/ServiceRequest-eu-lab"
          ]
        },
        "identifier": [
          {
            "system": "http://example.org",
            "value": "a643b5ab-062a-476e-9949-791516621962"
          }
        ],
        "specimen": [
          {
            "reference": "urn:uuid:f882dc01-9723-4ee5-a4eb-2fb5902fed35"
          }
        ],
        "reasonCode": [
          {
            "coding": [
              {
                "code": "55822004",
                "system": "http://snomed.info/sct",
                "display": "Hyperlipidemia"
              }
            ]
          },
          {
            "coding": [
              {
                "code": "15777000",
                "system": "http://snomed.info/sct",
                "display": "Prediabetes"
              }
            ]
          },
          {
            "coding": [
              {
                "code": "40055000",
                "system": "http://snomed.info/sct",
                "display": "Chronic sinusitis"
              }
            ]
          }
        ],
        "status": "active",
        "intent": "order",
        "code": {
          "coding": [
            {
              "code": "108252007",
              "system": "http://snomed.info/sct",
              "display": "Laboratory procedure"
            }
          ]
        },
        "subject": {
          "reference": "urn:uuid:c48395da-02f1-4f68-97eb-88656354fc8a",
          "display": "Bethany Begum"
        },
        "requester": {
          "reference": "urn:uuid:5a6b183d-682a-4630-a12a-ac2dd820f801"
        }
      }
    },
    {
      "fullUrl": "urn:uuid:5a6b183d-682a-4630-a12a-ac2dd820f801",
      "resource": {
        "resourceType": "PractitionerRole",
        "id": "5a6b183d-682a-4630-a12a-ac2dd820f801",
        "meta": {
          "profile": [
            "http://hl7.eu/fhir/base/StructureDefinition/practitionerRole-eu"
          ]
        },
        "text": {
          "status": "generated",
          "div": "<div xmlns=\"http://www.w3.org/1999/xhtml\">Provider Role Id: 5a6b183d-682a-4630-a12a-ac2dd820f801</div>"
        },
        "organization": {
          "reference": "urn:uuid:2ce40386-8bf4-4bcb-906f-ae4577b736f2"
        }
      }
    },
    {
      "fullUrl": "urn:uuid:2ce40386-8bf4-4bcb-906f-ae4577b736f2",
      "resource": {
        "resourceType": "Organization",
        "id": "2ce40386-8bf4-4bcb-906f-ae4577b736f2",
        "meta": {
          "profile": [
            "http://hl7.eu/fhir/base/StructureDefinition/organization-eu"
          ]
        },
        "identifier": [
          {
            "assigner": {
              "display": "HL7 Europe"
            },
            "system": "urn:oid:2.16.840.1.113883.2.51.999",
            "value": "d6206973-9f24-4e33-9493-a6f9abd2605f"
          }
        ],
        "address": [
          {
            "line": [
              "City Road 204"
            ],
            "city": "Manchester",
            "postalCode": "M3 3",
            "country": "United Kingdom"
          }
        ],
        "text": {
          "status": "generated",
          "div": "<div xmlns=\"http://www.w3.org/1999/xhtml\">Provider Organization: Cornbrook Medical Practice</div>"
        },
        "name": "Cornbrook Medical Practice"
      }
    },
    {
      "fullUrl": "urn:uuid:f882dc01-9723-4ee5-a4eb-2fb5902fed35",
      "resource": {
        "resourceType": "Specimen",
        "id": "f882dc01-9723-4ee5-a4eb-2fb5902fed35",
        "meta": {
          "profile": [
            "http://hl7.eu/fhir/laboratory/StructureDefinition/Specimen-eu-lab"
          ]
        },
        "collection": {
          "collectedDateTime": "2023-03-03"
        },
        "text": {
          "status": "generated",
          "div": "<div xmlns=\"http://www.w3.org/1999/xhtml\"><table class=\"hl7__eu__lab__report\"><tr><th>Specimen</th><th>Collection Date</th></tr><tr><td>Whole blood specimen (specimen)</td><td><span class=\"nb\">03-Mar-2023</span></td></tr></table></div>"
        },
        "type": {
          "coding": [
            {
              "code": "258580003",
              "system": "http://snomed.info/sct",
              "display": "Whole blood specimen (specimen)"
            }
          ]
        }
      }
    },
    {
      "fullUrl": "urn:uuid:816f49e9-52bb-4321-9821-07a45ca7ac33",
      "resource": {
        "resourceType": "Observation",
        "id": "816f49e9-52bb-4321-9821-07a45ca7ac33",
        "meta": {
          "profile": [
            "http://hl7.eu/fhir/laboratory/StructureDefinition/Observation-resultslab-eu-lab"
          ]
        },
        "performer": [
          {
            "display": "The Central European Lab"
          }
        ],
        "category": [
          {
            "coding": [
              {
                "system": "http://terminology.hl7.org/CodeSystem/observation-category",
                "code": "laboratory"
              }
            ]
          }
        ],
        "code": {
          "coding": [
            {
              "code": "4548-4",
              "system": "http://loinc.org",
              "display": "Hemoglobin A1c/Hemoglobin.total in Blood"
            }
          ],
          "text": "Hemoglobin A1c/Hemoglobin.total in Blood"
        },
        "valueQuantity": {
          "system": "http://unitsofmeasure.org",
          "value": 6.1,
          "unit": "%",
          "code": "%"
        },
        "referenceRange": [
          {
            "low": {
              "value": 4.8,
              "code": "%",
              "system": "http://unitsofmeasure.org"
            }
          },
          {
            "high": {
              "value": 5.7,
              "code": "%",
              "system": "http://unitsofmeasure.org"
            }
          }
        ],
        "interpretation": [
          {
            "coding": [
              {
                "code": "H",
                "system": "http://terminology.hl7.org/CodeSystem/v3-ObservationInterpretation",
                "display": "High"
              }
            ]
          }
        ],
        "text": {
          "status": "generated",
          "div": "<div xmlns=\"http://www.w3.org/1999/xhtml\"><table class=\"hl7__eu__lab__report\"><tr><th>Test</th><th>03-Mar-2023</th><th>Reference&#xA0;Range</th><th>Unit</th></tr><tr><td>Hemoglobin A1c/Hemoglobin.total in Blood</td><td>6.1</td><td>4.8 - 5.7</td><td>H</td><td>%</td></tr></table></div>"
        },
        "status": "final",
        "subject": {
          "reference": "urn:uuid:c48395da-02f1-4f68-97eb-88656354fc8a",
          "display": "Bethany Begum"
        },
        "effectiveDateTime": "2023-03-03T11:40:40Z",
        "specimen": {
          "reference": "urn:uuid:f882dc01-9723-4ee5-a4eb-2fb5902fed35"
        }
      }
    },
    {
      "fullUrl": "urn:uuid:2a2aeb86-a1b3-45a9-9b35-e30555fd98f5",
      "resource": {
        "resourceType": "Observation",
        "id": "2a2aeb86-a1b3-45a9-9b35-e30555fd98f5",
        "meta": {
          "profile": [
            "http://hl7.eu/fhir/laboratory/StructureDefinition/Observation-resultslab-eu-lab"
          ]
        },
        "performer": [
          {
            "display": "The Central European Lab"
          }
        ],
        "category": [
          {
            "coding": [
              {
                "system": "http://terminology.hl7.org/CodeSystem/observation-category",
                "code": "laboratory"
              }
            ]
          }
        ],
        "code": {
          "coding": [
            {
              "code": "2339-0",
              "system": "http://loinc.org",
              "display": "Glucose [Mass/volume] in Blood"
            }
          ],
          "text": "Glucose [Mass/volume] in Blood"
        },
        "valueQuantity": {
          "system": "http://unitsofmeasure.org",
          "value": 89.7,
          "unit": "mg/dL",
          "code": "mg/dL"
        },
        "referenceRange": [
          {
            "low": {
              "value": 70,
              "code": "mg/dL",
              "system": "http://unitsofmeasure.org"
            }
          },
          {
            "high": {
              "value": 140,
              "code": "mg/dL",
              "system": "http://unitsofmeasure.org"
            }
          }
        ],
        "text": {
          "status": "generated",
          "div": "<div xmlns=\"http://www.w3.org/1999/xhtml\"><table class=\"hl7__eu__lab__report\"><tr><th>Test</th><th>03-Mar-2023</th><th>Reference&#xA0;Range</th><th>Unit</th></tr><tr><td>Glucose [Mass/volume] in Blood</td><td>89.7</td><td>70 - 140</td><td></td><td>mg/dL</td></tr></table></div>"
        },
        "status": "final",
        "subject": {
          "reference": "urn:uuid:c48395da-02f1-4f68-97eb-88656354fc8a",
          "display": "Bethany Begum"
        },
        "effectiveDateTime": "2023-03-03T11:40:40Z",
        "specimen": {
          "reference": "urn:uuid:f882dc01-9723-4ee5-a4eb-2fb5902fed35"
        }
      }
    },
    {
      "fullUrl": "urn:uuid:06df6c86-cad7-4ad8-9957-f2ffd132d607",
      "resource": {
        "resourceType": "Observation",
        "id": "06df6c86-cad7-4ad8-9957-f2ffd132d607",
        "meta": {
          "profile": [
            "http://hl7.eu/fhir/laboratory/StructureDefinition/Observation-resultslab-eu-lab"
          ]
        },
        "performer": [
          {
            "display": "The Central European Lab"
          }
        ],
        "category": [
          {
            "coding": [
              {
                "system": "http://terminology.hl7.org/CodeSystem/observation-category",
                "code": "laboratory"
              }
            ]
          }
        ],
        "code": {
          "coding": [
            {
              "code": "6299-2",
              "system": "http://loinc.org",
              "display": "Urea nitrogen [Mass/volume] in Blood"
            }
          ],
          "text": "Urea nitrogen [Mass/volume] in Blood"
        },
        "valueQuantity": {
          "system": "http://unitsofmeasure.org",
          "value": 7.4,
          "unit": "mg/dL",
          "code": "mg/dL"
        },
        "referenceRange": [
          {
            "low": {
              "value": 7,
              "code": "mg/dL",
              "system": "http://unitsofmeasure.org"
            }
          },
          {
            "high": {
              "value": 25,
              "code": "mg/dL",
              "system": "http://unitsofmeasure.org"
            }
          }
        ],
        "text": {
          "status": "generated",
          "div": "<div xmlns=\"http://www.w3.org/1999/xhtml\"><table class=\"hl7__eu__lab__report\"><tr><th>Test</th><th>03-Mar-2023</th><th>Reference&#xA0;Range</th><th>Unit</th></tr><tr><td>Urea nitrogen [Mass/volume] in Blood</td><td>7.4</td><td>7 - 25</td><td></td><td>mg/dL</td></tr></table></div>"
        },
        "status": "final",
        "subject": {
          "reference": "urn:uuid:c48395da-02f1-4f68-97eb-88656354fc8a",
          "display": "Bethany Begum"
        },
        "effectiveDateTime": "2023-03-03T11:40:40Z",
        "specimen": {
          "reference": "urn:uuid:f882dc01-9723-4ee5-a4eb-2fb5902fed35"
        }
      }
    },
    {
      "fullUrl": "urn:uuid:0c03baa4-2131-429a-9661-ed0e0af9a899",
      "resource": {
        "resourceType": "Observation",
        "id": "0c03baa4-2131-429a-9661-ed0e0af9a899",
        "meta": {
          "profile": [
            "http://hl7.eu/fhir/laboratory/StructureDefinition/Observation-resultslab-eu-lab"
          ]
        },
        "performer": [
          {
            "display": "The Central European Lab"
          }
        ],
        "category": [
          {
            "coding": [
              {
                "system": "http://terminology.hl7.org/CodeSystem/observation-category",
                "code": "laboratory"
              }
            ]
          }
        ],
        "code": {
          "coding": [
            {
              "code": "38483-4",
              "system": "http://loinc.org",
              "display": "Creatinine [Mass/volume] in Blood"
            }
          ],
          "text": "Creatinine [Mass/volume] in Blood"
        },
        "valueQuantity": {
          "system": "http://unitsofmeasure.org",
          "value": 0.7,
          "unit": "mg/dL",
          "code": "mg/dL"
        },
        "referenceRange": [
          {
            "low": {
              "value": 0.6,
              "code": "mg/dL",
              "system": "http://unitsofmeasure.org"
            }
          },
          {
            "high": {
              "value": 1.3,
              "code": "mg/dL",
              "system": "http://unitsofmeasure.org"
            }
          }
        ],
        "text": {
          "status": "generated",
          "div": "<div xmlns=\"http://www.w3.org/1999/xhtml\"><table class=\"hl7__eu__lab__report\"><tr><th>Test</th><th>03-Mar-2023</th><th>Reference&#xA0;Range</th><th>Unit</th></tr><tr><td>Creatinine [Mass/volume] in Blood</td><td>0.7</td><td>0.6 - 1.3</td><td></td><td>mg/dL</td></tr></table></div>"
        },
        "status": "final",
        "subject": {
          "reference": "urn:uuid:c48395da-02f1-4f68-97eb-88656354fc8a",
          "display": "Bethany Begum"
        },
        "effectiveDateTime": "2023-03-03T11:40:40Z",
        "specimen": {
          "reference": "urn:uuid:f882dc01-9723-4ee5-a4eb-2fb5902fed35"
        }
      }
    },
    {
      "fullUrl": "urn:uuid:f8ff1718-6207-412a-a798-15307b76f512",
      "resource": {
        "resourceType": "Observation",
        "id": "f8ff1718-6207-412a-a798-15307b76f512",
        "meta": {
          "profile": [
            "http://hl7.eu/fhir/laboratory/StructureDefinition/Observation-resultslab-eu-lab"
          ]
        },
        "performer": [
          {
            "display": "The Central European Lab"
          }
        ],
        "category": [
          {
            "coding": [
              {
                "system": "http://terminology.hl7.org/CodeSystem/observation-category",
                "code": "laboratory"
              }
            ]
          }
        ],
        "code": {
          "coding": [
            {
              "code": "49765-1",
              "system": "http://loinc.org",
              "display": "Calcium [Mass/volume] in Blood"
            }
          ],
          "text": "Calcium [Mass/volume] in Blood"
        },
        "valueQuantity": {
          "system": "http://unitsofmeasure.org",
          "value": 9.3,
          "unit": "mg/dL",
          "code": "mg/dL"
        },
        "referenceRange": [
          {
            "low": {
              "value": 8.5,
              "code": "mg/dL",
              "system": "http://unitsofmeasure.org"
            }
          },
          {
            "high": {
              "value": 10.5,
              "code": "mg/dL",
              "system": "http://unitsofmeasure.org"
            }
          }
        ],
        "text": {
          "status": "generated",
          "div": "<div xmlns=\"http://www.w3.org/1999/xhtml\"><table class=\"hl7__eu__lab__report\"><tr><th>Test</th><th>03-Mar-2023</th><th>Reference&#xA0;Range</th><th>Unit</th></tr><tr><td>Calcium [Mass/volume] in Blood</td><td>9.3</td><td>8.5 - 10.5</td><td></td><td>mg/dL</td></tr></table></div>"
        },
        "status": "final",
        "subject": {
          "reference": "urn:uuid:c48395da-02f1-4f68-97eb-88656354fc8a",
          "display": "Bethany Begum"
        },
        "effectiveDateTime": "2023-03-03T11:40:40Z",
        "specimen": {
          "reference": "urn:uuid:f882dc01-9723-4ee5-a4eb-2fb5902fed35"
        }
      }
    },
    {
      "fullUrl": "urn:uuid:4659ee30-002f-462b-9805-18336717e2aa",
      "resource": {
        "resourceType": "Observation",
        "id": "4659ee30-002f-462b-9805-18336717e2aa",
        "meta": {
          "profile": [
            "http://hl7.eu/fhir/laboratory/StructureDefinition/Observation-resultslab-eu-lab"
          ]
        },
        "performer": [
          {
            "display": "The Central European Lab"
          }
        ],
        "category": [
          {
            "coding": [
              {
                "system": "http://terminology.hl7.org/CodeSystem/observation-category",
                "code": "laboratory"
              }
            ]
          }
        ],
        "code": {
          "coding": [
            {
              "code": "2947-0",
              "system": "http://loinc.org",
              "display": "Sodium [Moles/volume] in Blood"
            }
          ],
          "text": "Sodium [Moles/volume] in Blood"
        },
        "valueQuantity": {
          "system": "http://unitsofmeasure.org",
          "value": 142.5,
          "unit": "mmol/L",
          "code": "mmol/L"
        },
        "referenceRange": [
          {
            "low": {
              "value": 135,
              "code": "mmol/L",
              "system": "http://unitsofmeasure.org"
            }
          },
          {
            "high": {
              "value": 145,
              "code": "mmol/L",
              "system": "http://unitsofmeasure.org"
            }
          }
        ],
        "text": {
          "status": "generated",
          "div": "<div xmlns=\"http://www.w3.org/1999/xhtml\"><table class=\"hl7__eu__lab__report\"><tr><th>Test</th><th>03-Mar-2023</th><th>Reference&#xA0;Range</th><th>Unit</th></tr><tr><td>Sodium [Moles/volume] in Blood</td><td>142.5</td><td>135 - 145</td><td></td><td>mmol/L</td></tr></table></div>"
        },
        "status": "final",
        "subject": {
          "reference": "urn:uuid:c48395da-02f1-4f68-97eb-88656354fc8a",
          "display": "Bethany Begum"
        },
        "effectiveDateTime": "2023-03-03T11:40:40Z",
        "specimen": {
          "reference": "urn:uuid:f882dc01-9723-4ee5-a4eb-2fb5902fed35"
        }
      }
    },
    {
      "fullUrl": "urn:uuid:d92ee6a8-0b47-4f12-a363-0b8c14564515",
      "resource": {
        "resourceType": "Observation",
        "id": "d92ee6a8-0b47-4f12-a363-0b8c14564515",
        "meta": {
          "profile": [
            "http://hl7.eu/fhir/laboratory/StructureDefinition/Observation-resultslab-eu-lab"
          ]
        },
        "performer": [
          {
            "display": "The Central European Lab"
          }
        ],
        "category": [
          {
            "coding": [
              {
                "system": "http://terminology.hl7.org/CodeSystem/observation-category",
                "code": "laboratory"
              }
            ]
          }
        ],
        "code": {
          "coding": [
            {
              "code": "6298-4",
              "system": "http://loinc.org",
              "display": "Potassium [Moles/volume] in Blood"
            }
          ],
          "text": "Potassium [Moles/volume] in Blood"
        },
        "valueQuantity": {
          "system": "http://unitsofmeasure.org",
          "value": 4.6,
          "unit": "mmol/L",
          "code": "mmol/L"
        },
        "referenceRange": [
          {
            "low": {
              "value": 3.5,
              "code": "mmol/L",
              "system": "http://unitsofmeasure.org"
            }
          },
          {
            "high": {
              "value": 5.1,
              "code": "mmol/L",
              "system": "http://unitsofmeasure.org"
            }
          }
        ],
        "text": {
          "status": "generated",
          "div": "<div xmlns=\"http://www.w3.org/1999/xhtml\"><table class=\"hl7__eu__lab__report\"><tr><th>Test</th><th>03-Mar-2023</th><th>Reference&#xA0;Range</th><th>Unit</th></tr><tr><td>Potassium [Moles/volume] in Blood</td><td>4.6</td><td>3.5 - 5.1</td><td></td><td>mmol/L</td></tr></table></div>"
        },
        "status": "final",
        "subject": {
          "reference": "urn:uuid:c48395da-02f1-4f68-97eb-88656354fc8a",
          "display": "Bethany Begum"
        },
        "effectiveDateTime": "2023-03-03T11:40:40Z",
        "specimen": {
          "reference": "urn:uuid:f882dc01-9723-4ee5-a4eb-2fb5902fed35"
        }
      }
    },
    {
      "fullUrl": "urn:uuid:4eaca14a-3114-45a2-80f7-4340989258ca",
      "resource": {
        "resourceType": "Observation",
        "id": "4eaca14a-3114-45a2-80f7-4340989258ca",
        "meta": {
          "profile": [
            "http://hl7.eu/fhir/laboratory/StructureDefinition/Observation-resultslab-eu-lab"
          ]
        },
        "performer": [
          {
            "display": "The Central European Lab"
          }
        ],
        "category": [
          {
            "coding": [
              {
                "system": "http://terminology.hl7.org/CodeSystem/observation-category",
                "code": "laboratory"
              }
            ]
          }
        ],
        "code": {
          "coding": [
            {
              "code": "2069-3",
              "system": "http://loinc.org",
              "display": "Chloride [Moles/volume] in Blood"
            }
          ],
          "text": "Chloride [Moles/volume] in Blood"
        },
        "valueQuantity": {
          "system": "http://unitsofmeasure.org",
          "value": 107.8,
          "unit": "mmol/L",
          "code": "mmol/L"
        },
        "referenceRange": [
          {
            "low": {
              "value": 98,
              "code": "mmol/L",
              "system": "http://unitsofmeasure.org"
            }
          },
          {
            "high": {
              "value": 108,
              "code": "mmol/L",
              "system": "http://unitsofmeasure.org"
            }
          }
        ],
        "text": {
          "status": "generated",
          "div": "<div xmlns=\"http://www.w3.org/1999/xhtml\"><table class=\"hl7__eu__lab__report\"><tr><th>Test</th><th>03-Mar-2023</th><th>Reference&#xA0;Range</th><th>Unit</th></tr><tr><td>Chloride [Moles/volume] in Blood</td><td>107.8</td><td>98 - 108</td><td></td><td>mmol/L</td></tr></table></div>"
        },
        "status": "final",
        "subject": {
          "reference": "urn:uuid:c48395da-02f1-4f68-97eb-88656354fc8a",
          "display": "Bethany Begum"
        },
        "effectiveDateTime": "2023-03-03T11:40:40Z",
        "specimen": {
          "reference": "urn:uuid:f882dc01-9723-4ee5-a4eb-2fb5902fed35"
        }
      }
    },
    {
      "fullUrl": "urn:uuid:890cc679-22c9-4816-a0c7-a65bc530566a",
      "resource": {
        "resourceType": "Observation",
        "id": "890cc679-22c9-4816-a0c7-a65bc530566a",
        "meta": {
          "profile": [
            "http://hl7.eu/fhir/laboratory/StructureDefinition/Observation-resultslab-eu-lab"
          ]
        },
        "performer": [
          {
            "display": "The Central European Lab"
          }
        ],
        "category": [
          {
            "coding": [
              {
                "system": "http://terminology.hl7.org/CodeSystem/observation-category",
                "code": "laboratory"
              }
            ]
          }
        ],
        "code": {
          "coding": [
            {
              "code": "20565-8",
              "system": "http://loinc.org",
              "display": "Carbon dioxide, total [Moles/volume] in Blood"
            }
          ],
          "text": "Carbon dioxide, total [Moles/volume] in Blood"
        },
        "valueQuantity": {
          "system": "http://unitsofmeasure.org",
          "value": 27.4,
          "unit": "mmol/L",
          "code": "mmol/L"
        },
        "referenceRange": [
          {
            "low": {
              "value": 22,
              "code": "mmol/L",
              "system": "http://unitsofmeasure.org"
            }
          },
          {
            "high": {
              "value": 29,
              "code": "mmol/L",
              "system": "http://unitsofmeasure.org"
            }
          }
        ],
        "text": {
          "status": "generated",
          "div": "<div xmlns=\"http://www.w3.org/1999/xhtml\"><table class=\"hl7__eu__lab__report\"><tr><th>Test</th><th>03-Mar-2023</th><th>Reference&#xA0;Range</th><th>Unit</th></tr><tr><td>Carbon dioxide, total [Moles/volume] in Blood</td><td>27.4</td><td>22 - 29</td><td></td><td>mmol/L</td></tr></table></div>"
        },
        "status": "final",
        "subject": {
          "reference": "urn:uuid:c48395da-02f1-4f68-97eb-88656354fc8a",
          "display": "Bethany Begum"
        },
        "effectiveDateTime": "2023-03-03T11:40:40Z",
        "specimen": {
          "reference": "urn:uuid:f882dc01-9723-4ee5-a4eb-2fb5902fed35"
        }
      }
    },
    {
      "fullUrl": "urn:uuid:1458341f-919c-42bd-a3bc-d18d6148ffb1",
      "resource": {
        "resourceType": "Device",
        "id": "1458341f-919c-42bd-a3bc-d18d6148ffb1",
        "deviceName": [
          {
            "name": "SYNDERAI Synthetic Generator",
            "type": "manufacturer-name"
          }
        ],
        "version": [
          {
            "value": "5.0"
          }
        ],
        "text": {
          "status": "generated",
          "div": "<div xmlns=\"http://www.w3.org/1999/xhtml\">SYNDERAI Synthetic Generator v5.0</div>"
        },
        "status": "active\"",
        "distinctIdentifier": "synderai-generator-50",
        "manufacturer": "SYNDERAI Project"
      }
    },
    {
      "fullUrl": "urn:uuid:05a28748-edb2-4ee9-8736-6d2cb1396a54",
      "resource": {
        "resourceType": "Provenance",
        "id": "05a28748-edb2-4ee9-8736-6d2cb1396a54",
        "target": [
          {
            "reference": "Patient/c48395da-02f1-4f68-97eb-88656354fc8a"
          },
          {
            "reference": "Bundle/a853a52d-db63-4982-a9ef-20e5c929cfe4"
          },
          {
            "reference": "Composition/e2903086-826b-4e55-9210-d89aa6022011"
          },
          {
            "reference": "PractitionerRole/8f7c3c61-cff5-4039-9d8c-10f7e36c8f9c"
          },
          {
            "reference": "Practitioner/bdc1bdd2-a6f1-443d-9423-f601743d837d"
          },
          {
            "reference": "PractitionerRole/5a6b183d-682a-4630-a12a-ac2dd820f801"
          },
          {
            "reference": "Organization/2ce40386-8bf4-4bcb-906f-ae4577b736f2"
          }
        ],
        "activity": {
          "text": "Synthetic Example Data Generation"
        },
        "policy": [
          "https://synderai.net/synderai-synthetic-data-policy"
        ],
        "agent": [
          {
            "type": {
              "text": "author"
            },
            "who": {
              "reference": "Device/1458341f-919c-42bd-a3bc-d18d6148ffb1"
            }
          }
        ],
        "reason": [
          {
            "text": "Interoperability Testing and Training (non-clinical use)"
          }
        ],
        "text": {
          "status": "generated",
          "div": "<div xmlns=\"http://www.w3.org/1999/xhtml\">Provenance for SYNDERAI Synthetic Example Data Resource</div>"
        },
        "recorded": "2023-03-03T12:40:40Z"
      }
    },
    {
      "fullUrl": "urn:uuid:8f7c3c61-cff5-4039-9d8c-10f7e36c8f9c",
      "resource": {
        "resourceType": "PractitionerRole",
        "id": "8f7c3c61-cff5-4039-9d8c-10f7e36c8f9c",
        "meta": {
          "profile": [
            "http://hl7.eu/fhir/base/StructureDefinition/practitionerRole-eu"
          ]
        },
        "text": {
          "status": "generated",
          "div": "<div xmlns=\"http://www.w3.org/1999/xhtml\">Laboratory Role Id: 8f7c3c61-cff5-4039-9d8c-10f7e36c8f9c</div>"
        },
        "practitioner": {
          "reference": "urn:uuid:bdc1bdd2-a6f1-443d-9423-f601743d837d"
        }
      }
    },
    {
      "fullUrl": "urn:uuid:bdc1bdd2-a6f1-443d-9423-f601743d837d",
      "resource": {
        "resourceType": "Practitioner",
        "id": "bdc1bdd2-a6f1-443d-9423-f601743d837d",
        "meta": {
          "profile": [
            "http://hl7.eu/fhir/base/StructureDefinition/practitioner-eu"
          ]
        },
        "identifier": [
          {
            "assigner": {
              "display": "HL7 Europe"
            },
            "system": "urn:oid:2.16.840.1.113883.2.51.999",
            "value": "e029eaa7-17cf-40f9-a572-8a9506f1c887"
          }
        ],
        "name": [
          {
            "prefix": [
              "dr"
            ],
            "given": [
              "Ex"
            ],
            "family": "Ample"
          }
        ],
        "address": [
          {
            "line": [
              "Laboratoire Central Européenne",
              "Boulevard du Jardin Botanique 32"
            ],
            "postalCode": "1000",
            "city": "Brussels",
            "country": "Belgium"
          }
        ],
        "text": {
          "status": "generated",
          "div": "<div xmlns=\"http://www.w3.org/1999/xhtml\">Laboratory: Laboratoire Central Européenne, 1000 Brussels, Belgium</div>"
        }
      }
    }
  ],
  "type": "document",
  "timestamp": "2023-03-03T12:40:40Z"
}
