{
  "resourceType": "Bundle",
  "id": "ad9fed75-f90e-45f2-9fad-7af04a3262d3",
  "meta": {
    "profile": [
      "http://hl7.eu/fhir/laboratory/StructureDefinition/Bundle-eu-lab"
    ]
  },
  "identifier": {
    "assigner": {
      "display": "HL7 Europe"
    },
    "system": "urn:oid:2.16.840.1.113883.2.51.999",
    "value": "0951231f-98bf-41a9-9fe3-becac5112389"
  },
  "entry": [
    {
      "fullUrl": "urn:uuid:ef970f10-1a85-4191-8f8c-fa7ae4bfcab5",
      "resource": {
        "resourceType": "Composition",
        "id": "ef970f10-1a85-4191-8f8c-fa7ae4bfcab5",
        "meta": {
          "profile": [
            "http://hl7.eu/fhir/laboratory/StructureDefinition/Composition-eu-lab"
          ]
        },
        "identifier": {
          "assigner": {
            "display": "HL7 Europe"
          },
          "system": "urn:oid:2.16.840.1.113883.2.51.999",
          "value": "c5a30803-0f59-4624-b2b5-194349438d11"
        },
        "author": [
          {
            "reference": "urn:uuid:94ff9895-3a96-48e0-b03f-ff923de5ce0d"
          }
        ],
        "category": [
          {
            "coding": [
              {
                "code": "26436-6",
                "system": "http://loinc.org",
                "display": "Laboratory studies (set)"
              }
            ]
          }
        ],
        "type": {
          "coding": [
            {
              "code": "11502-2",
              "system": "http://loinc.org",
              "display": "Laboratory report"
            }
          ],
          "text": "Laboratory Report"
        },
        "section": [
          {
            "code": {
              "coding": [
                {
                  "code": "26436-6",
                  "system": "http://loinc.org",
                  "display": "Laboratory studies (set)"
                }
              ],
              "text": "Laboratory studies"
            },
            "section": [
              {
                "code": {
                  "coding": [
                    {
                      "code": "$18719-5",
                      "system": "http://loinc.org",
                      "display": "Chemistry studies (set)"
                    }
                  ],
                  "text": "Chemistry"
                },
                "entry": [
                  {
                    "reference": "urn:uuid:db310a35-46a2-4986-bcde-327c16c6ad04"
                  },
                  {
                    "reference": "urn:uuid:b6e4af23-d988-42ed-90ab-4e936279876c"
                  },
                  {
                    "reference": "urn:uuid:1e37ba0b-cf35-410b-b1cb-5bcdd7f36133"
                  },
                  {
                    "reference": "urn:uuid:b75196d9-d559-4e39-8d9d-e8d3b30caba8"
                  },
                  {
                    "reference": "urn:uuid:18d29342-6f6b-4dd5-9562-496e263e7b9f"
                  },
                  {
                    "reference": "urn:uuid:7adb6755-49a4-47c0-a125-b2ec07f2e985"
                  },
                  {
                    "reference": "urn:uuid:67611cfd-4f30-428b-843a-0926e0425651"
                  },
                  {
                    "reference": "urn:uuid:acad8d9a-ce1d-48a2-8ee1-8e3ce507b7e8"
                  },
                  {
                    "reference": "urn:uuid:53b71cb5-2e41-4115-8be7-81aee08dcef4"
                  },
                  {
                    "reference": "urn:uuid:2cb4d4e5-85ff-4277-a5e5-886049410263"
                  },
                  {
                    "reference": "urn:uuid:f2f512b0-5bdc-4a28-ae73-bd9d70e2c8fd"
                  },
                  {
                    "reference": "urn:uuid:67af7dd8-4ec7-4cd3-8a6b-c7c5deac0ae9"
                  },
                  {
                    "reference": "urn:uuid:5e072597-fc0d-4469-96e9-5a58a81dfbae"
                  }
                ],
                "text": {
                  "status": "generated",
                  "div": "<div xmlns=\"http://www.w3.org/1999/xhtml\"><h3>Chemistry</h3><table class=\"hl7__eu__lab__report\"><thead><tr><th>Test</th><th>08-MAR-2025</th><th>Reference&#xA0;Range</th><th>Unit</th></tr></thead><tbody><tr><td>Hemoglobin A1c/Hemoglobin.total in Blood</td><td><strong>6.3 H</strong></td><td>4 - 6</td><td>%</td></tr><tr><td>Glucose [Mass/volume] in Blood</td><td>88.9</td><td>70 - 140</td><td>mg/dL</td></tr><tr><td>Urea nitrogen [Mass/volume] in Blood</td><td>13.4</td><td>7 - 45</td><td>mg/dL</td></tr><tr><td>Creatinine [Mass/volume] in Blood</td><td>0.8</td><td>0.6 - 1.1</td><td>mg/dL</td></tr><tr><td>Calcium [Mass/volume] in Blood</td><td>10.0</td><td>8.5 - 10.5</td><td>mg/dL</td></tr><tr><td>Sodium [Moles/volume] in Blood</td><td>141.0</td><td>135 - 145</td><td>mmol/L</td></tr><tr><td>Potassium [Moles/volume] in Blood</td><td>3.8</td><td>3.5 - 5.1</td><td>mmol/L</td></tr><tr><td>Chloride [Moles/volume] in Blood</td><td>102.5</td><td>98 - 107</td><td>mmol/L</td></tr><tr><td>Carbon dioxide, total [Moles/volume] in Blood</td><td>22.8</td><td>22 - 32</td><td>mmol/L</td></tr><tr><td>Cholesterol [Mass/volume] in Serum or Plasma</td><td>184.5</td><td>125 - 200</td><td>mg/dL</td></tr><tr><td>Triglyceride [Mass/volume] in Serum or Plasma</td><td>135.4</td><td>0 - 150</td><td>mg/dL</td></tr><tr><td>Cholesterol in LDL [Mass/volume] in Serum or Plasma by Direct assay</td><td>98.3</td><td>0 - 130</td><td>mg/dL</td></tr><tr><td>Cholesterol in HDL [Mass/volume] in Serum or Plasma</td><td>59.1</td><td>40 - 60</td><td>mg/dL</td></tr></tbody></table></div>"
                },
                "title": "Chemistry"
              }
            ],
            "title": "Laboratory Report"
          },
          {
            "text": {
              "status": "generated",
              "div": "<div xmlns=\"http://www.w3.org/1999/xhtml\"><h3>Annotation</h3><table class=\"hl7__eu__lab__report\"><tr><th>Conclusion and Recommendations based on this report and previous findings known to us</th></tr><tr><td>All results are within normal limits except for a mildly elevated HbA1c (6.3%), indicating suboptimal long-term glucose control and possible prediabetes or early diabetes. Renal function, electrolytes, and lipid profile are unremarkable. Recommend clinical correlation for glycemic status and consideration of lifestyle modification or further evaluation for diabetes management.</td></tr></table></div>"
            },
            "code": {
              "coding": [
                {
                  "system": "http://loinc.org",
                  "code": "48767-8",
                  "display": "Annotation comment"
                }
              ]
            },
            "title": "Annotation comment"
          }
        ],
        "status": "final",
        "subject": {
          "reference": "urn:uuid:27a7d510-a39c-4c22-981f-c837cf907e70",
          "display": "Lydia Ward"
        },
        "date": "2025-03-08T00:08:09Z",
        "title": "Laboratory Report",
        "confidentiality": "N"
      }
    },
    {
      "fullUrl": "urn:uuid:ed09b6ad-fbd4-4212-b321-06b1bbe0933d",
      "resource": {
        "resourceType": "DiagnosticReport",
        "id": "ed09b6ad-fbd4-4212-b321-06b1bbe0933d",
        "meta": {
          "profile": [
            "http://hl7.eu/fhir/laboratory/StructureDefinition/DiagnosticReport-eu-lab"
          ]
        },
        "identifier": [
          {
            "assigner": {
              "display": "HL7 Europe"
            },
            "system": "urn:oid:2.16.840.1.113883.2.51.999",
            "value": "3904fa08-834a-48b2-97e4-71bb2f743257"
          }
        ],
        "extension": [
          {
            "url": "http://hl7.org/fhir/5.0/StructureDefinition/extension-DiagnosticReport.composition",
            "valueReference": {
              "reference": "urn:uuid:c5a30803-0f59-4624-b2b5-194349438d11"
            }
          }
        ],
        "category": [
          {
            "coding": [
              {
                "code": "26436-6",
                "system": "http://loinc.org",
                "display": "Laboratory studies (set)"
              }
            ]
          }
        ],
        "specimen": [
          {
            "reference": "urn:uuid:ad4eb07e-a370-44a1-abba-cdd2ca972075"
          },
          {
            "reference": "urn:uuid:f57542eb-d106-4254-b69a-b17f587fe477"
          }
        ],
        "result": [
          {
            "reference": "urn:uuid:db310a35-46a2-4986-bcde-327c16c6ad04"
          },
          {
            "reference": "urn:uuid:b6e4af23-d988-42ed-90ab-4e936279876c"
          },
          {
            "reference": "urn:uuid:1e37ba0b-cf35-410b-b1cb-5bcdd7f36133"
          },
          {
            "reference": "urn:uuid:b75196d9-d559-4e39-8d9d-e8d3b30caba8"
          },
          {
            "reference": "urn:uuid:18d29342-6f6b-4dd5-9562-496e263e7b9f"
          },
          {
            "reference": "urn:uuid:7adb6755-49a4-47c0-a125-b2ec07f2e985"
          },
          {
            "reference": "urn:uuid:67611cfd-4f30-428b-843a-0926e0425651"
          },
          {
            "reference": "urn:uuid:acad8d9a-ce1d-48a2-8ee1-8e3ce507b7e8"
          },
          {
            "reference": "urn:uuid:53b71cb5-2e41-4115-8be7-81aee08dcef4"
          },
          {
            "reference": "urn:uuid:2cb4d4e5-85ff-4277-a5e5-886049410263"
          },
          {
            "reference": "urn:uuid:f2f512b0-5bdc-4a28-ae73-bd9d70e2c8fd"
          },
          {
            "reference": "urn:uuid:67af7dd8-4ec7-4cd3-8a6b-c7c5deac0ae9"
          },
          {
            "reference": "urn:uuid:5e072597-fc0d-4469-96e9-5a58a81dfbae"
          }
        ],
        "status": "registered",
        "code": {
          "coding": [
            {
              "code": "11502-2",
              "system": "http://loinc.org",
              "display": "Laboratory report"
            }
          ]
        },
        "subject": {
          "reference": "urn:uuid:27a7d510-a39c-4c22-981f-c837cf907e70",
          "display": "Lydia Ward"
        }
      }
    },
    {
      "fullUrl": "urn:uuid:27a7d510-a39c-4c22-981f-c837cf907e70",
      "resource": {
        "resourceType": "Patient",
        "id": "27a7d510-a39c-4c22-981f-c837cf907e70",
        "meta": {
          "security": [
            {
              "system": "http://terminology.hl7.org/CodeSystem/v3-ActReason",
              "code": "HTEST"
            },
            {
              "system": "http://terminology.hl7.org/CodeSystem/v3-ActReason",
              "code": "TRAIN"
            }
          ],
          "tag": [
            {
              "system": "https://synderai.net/fhir/CodeSystem/tags",
              "code": "synthetic",
              "display": "SYNDERAI Synthetic data"
            }
          ],
          "profile": [
            "http://hl7.eu/fhir/base/StructureDefinition/patient-eu-core"
          ]
        },
        "identifier": [
          {
            "type": {
              "coding": [
                {
                  "code": "PT",
                  "system": "http://terminology.hl7.org/CodeSystem/v2-0203"
                }
              ]
            },
            "system": "http://ec.europa.eu/identifier/eci",
            "value": "8944-364030-8"
          },
          {
            "type": {
              "coding": [
                {
                  "code": "MR",
                  "system": "http://terminology.hl7.org/CodeSystem/v2-0203"
                }
              ]
            },
            "system": "http://local.setting.eu/identifier",
            "value": "9edf6b8d-b276-7218-98c6-ccf8d15f2a01"
          }
        ],
        "name": [
          {
            "family": "Ward"
          },
          {
            "given": [
              "Lydia"
            ]
          },
          {
            "text": "Lydia Ward"
          }
        ],
        "address": [
          {
            "line": [
              "6 Hunt radial"
            ],
            "use": "home",
            "type": "physical",
            "postalCode": "EH33",
            "city": "South Rosieside",
            "country": "United Kingdom"
          }
        ],
        "telecom": [
          {
            "system": "phone",
            "value": "01144960349"
          }
        ],
        "extension": [
          {
            "url": "http://hl7.org/fhir/StructureDefinition/patient-nationality",
            "valueCodeableConcept": {
              "coding": [
                {
                  "code": "GB",
                  "system": "http://hl7.org/fhir/ValueSet/country"
                }
              ]
            }
          }
        ],
        "text": {
          "status": "generated",
          "div": "<div xmlns=\"http://www.w3.org/1999/xhtml\"><table class=\"hl7__ips\"><tr><td>Lydia Ward</td><td>female</td><td>27-Dec-1968</td></tr></table></div>"
        },
        "gender": "female",
        "birthDate": "1968-12-27"
      }
    },
    {
      "fullUrl": "urn:uuid:f70b7aef-f8cb-46c3-b9d1-1b3c05dcae9c",
      "resource": {
        "resourceType": "ServiceRequest",
        "id": "f70b7aef-f8cb-46c3-b9d1-1b3c05dcae9c",
        "meta": {
          "profile": [
            "http://hl7.eu/fhir/laboratory/StructureDefinition/ServiceRequest-eu-lab"
          ]
        },
        "identifier": [
          {
            "system": "http://example.org",
            "value": "c0183b1a-274f-4481-8fa7-337a0997b36b"
          }
        ],
        "specimen": [
          {
            "reference": "urn:uuid:ad4eb07e-a370-44a1-abba-cdd2ca972075"
          },
          {
            "reference": "urn:uuid:f57542eb-d106-4254-b69a-b17f587fe477"
          }
        ],
        "reasonCode": [
          {
            "coding": [
              {
                "code": "271737000",
                "system": "http://snomed.info/sct",
                "display": "Anemia"
              }
            ]
          },
          {
            "coding": [
              {
                "code": "15777000",
                "system": "http://snomed.info/sct",
                "display": "Prediabetes"
              }
            ]
          }
        ],
        "status": "active",
        "intent": "order",
        "code": {
          "coding": [
            {
              "code": "108252007",
              "system": "http://snomed.info/sct",
              "display": "Laboratory procedure"
            }
          ]
        },
        "subject": {
          "reference": "urn:uuid:27a7d510-a39c-4c22-981f-c837cf907e70",
          "display": "Lydia Ward"
        },
        "requester": {
          "reference": "urn:uuid:cadb9296-579d-443f-b6cb-57b2a0f982a1"
        }
      }
    },
    {
      "fullUrl": "urn:uuid:cadb9296-579d-443f-b6cb-57b2a0f982a1",
      "resource": {
        "resourceType": "PractitionerRole",
        "id": "cadb9296-579d-443f-b6cb-57b2a0f982a1",
        "meta": {
          "profile": [
            "http://hl7.eu/fhir/base/StructureDefinition/practitionerRole-eu"
          ]
        },
        "text": {
          "status": "generated",
          "div": "<div xmlns=\"http://www.w3.org/1999/xhtml\">Provider Role Id: cadb9296-579d-443f-b6cb-57b2a0f982a1</div>"
        },
        "organization": {
          "reference": "urn:uuid:edb6d1c4-4bc0-4174-862d-4b202e451f53"
        }
      }
    },
    {
      "fullUrl": "urn:uuid:edb6d1c4-4bc0-4174-862d-4b202e451f53",
      "resource": {
        "resourceType": "Organization",
        "id": "edb6d1c4-4bc0-4174-862d-4b202e451f53",
        "meta": {
          "profile": [
            "http://hl7.eu/fhir/base/StructureDefinition/organization-eu"
          ]
        },
        "identifier": [
          {
            "assigner": {
              "display": "HL7 Europe"
            },
            "system": "urn:oid:2.16.840.1.113883.2.51.999",
            "value": "939375ab-8132-484c-8f7e-4c441b0dbdf5"
          }
        ],
        "address": [
          {
            "city": "Edinburgh",
            "postalCode": "EH9 2",
            "country": "United Kingdom"
          }
        ],
        "text": {
          "status": "generated",
          "div": "<div xmlns=\"http://www.w3.org/1999/xhtml\">Provider Organization: Royal Hospital for Sick Children</div>"
        },
        "name": "Royal Hospital for Sick Children"
      }
    },
    {
      "fullUrl": "urn:uuid:ad4eb07e-a370-44a1-abba-cdd2ca972075",
      "resource": {
        "resourceType": "Specimen",
        "id": "ad4eb07e-a370-44a1-abba-cdd2ca972075",
        "meta": {
          "profile": [
            "http://hl7.eu/fhir/laboratory/StructureDefinition/Specimen-eu-lab"
          ]
        },
        "collection": {
          "collectedDateTime": "2025-03-07"
        },
        "text": {
          "status": "generated",
          "div": "<div xmlns=\"http://www.w3.org/1999/xhtml\"><table class=\"hl7__eu__lab__report\"><tr><th>Specimen</th><th>Collection Date</th></tr><tr><td>Whole blood specimen (specimen)</td><td><span class=\"nb\">07-Mar-2025</span></td></tr></table></div>"
        },
        "type": {
          "coding": [
            {
              "code": "258580003",
              "system": "http://snomed.info/sct",
              "display": "Whole blood specimen (specimen)"
            }
          ]
        }
      }
    },
    {
      "fullUrl": "urn:uuid:f57542eb-d106-4254-b69a-b17f587fe477",
      "resource": {
        "resourceType": "Specimen",
        "id": "f57542eb-d106-4254-b69a-b17f587fe477",
        "meta": {
          "profile": [
            "http://hl7.eu/fhir/laboratory/StructureDefinition/Specimen-eu-lab"
          ]
        },
        "collection": {
          "collectedDateTime": "2025-03-07"
        },
        "text": {
          "status": "generated",
          "div": "<div xmlns=\"http://www.w3.org/1999/xhtml\"><table class=\"hl7__eu__lab__report\"><tr><th>Specimen</th><th>Collection Date</th></tr><tr><td>Acellular blood (serum or plasma) specimen</td><td><span class=\"nb\">07-Mar-2025</span></td></tr></table></div>"
        },
        "type": {
          "coding": [
            {
              "code": "122592007",
              "system": "http://snomed.info/sct",
              "display": "Acellular blood (serum or plasma) specimen"
            }
          ]
        }
      }
    },
    {
      "fullUrl": "urn:uuid:db310a35-46a2-4986-bcde-327c16c6ad04",
      "resource": {
        "resourceType": "Observation",
        "id": "db310a35-46a2-4986-bcde-327c16c6ad04",
        "meta": {
          "profile": [
            "http://hl7.eu/fhir/laboratory/StructureDefinition/Observation-resultslab-eu-lab"
          ]
        },
        "performer": [
          {
            "display": "The Central European Lab"
          }
        ],
        "category": [
          {
            "coding": [
              {
                "system": "http://terminology.hl7.org/CodeSystem/observation-category",
                "code": "laboratory"
              }
            ]
          }
        ],
        "code": {
          "coding": [
            {
              "code": "4548-4",
              "system": "http://loinc.org",
              "display": "Hemoglobin A1c/Hemoglobin.total in Blood"
            }
          ],
          "text": "Hemoglobin A1c/Hemoglobin.total in Blood"
        },
        "valueQuantity": {
          "system": "http://unitsofmeasure.org",
          "value": 6.3,
          "unit": "%",
          "code": "%"
        },
        "referenceRange": [
          {
            "low": {
              "value": 4,
              "code": "%",
              "system": "http://unitsofmeasure.org"
            }
          },
          {
            "high": {
              "value": 6,
              "code": "%",
              "system": "http://unitsofmeasure.org"
            }
          }
        ],
        "interpretation": [
          {
            "coding": [
              {
                "code": "H",
                "system": "http://terminology.hl7.org/CodeSystem/v3-ObservationInterpretation",
                "display": "High"
              }
            ]
          }
        ],
        "text": {
          "status": "generated",
          "div": "<div xmlns=\"http://www.w3.org/1999/xhtml\"><table class=\"hl7__eu__lab__report\"><tr><th>Test</th><th>08-Mar-2025</th><th>Reference&#xA0;Range</th><th>Unit</th></tr><tr><td>Hemoglobin A1c/Hemoglobin.total in Blood</td><td>6.3</td><td>4 - 6</td><td>H</td><td>%</td></tr></table></div>"
        },
        "status": "final",
        "subject": {
          "reference": "urn:uuid:27a7d510-a39c-4c22-981f-c837cf907e70",
          "display": "Lydia Ward"
        },
        "effectiveDateTime": "2025-03-07T23:08:09Z",
        "specimen": {
          "reference": "urn:uuid:ad4eb07e-a370-44a1-abba-cdd2ca972075"
        }
      }
    },
    {
      "fullUrl": "urn:uuid:b6e4af23-d988-42ed-90ab-4e936279876c",
      "resource": {
        "resourceType": "Observation",
        "id": "b6e4af23-d988-42ed-90ab-4e936279876c",
        "meta": {
          "profile": [
            "http://hl7.eu/fhir/laboratory/StructureDefinition/Observation-resultslab-eu-lab"
          ]
        },
        "performer": [
          {
            "display": "The Central European Lab"
          }
        ],
        "category": [
          {
            "coding": [
              {
                "system": "http://terminology.hl7.org/CodeSystem/observation-category",
                "code": "laboratory"
              }
            ]
          }
        ],
        "code": {
          "coding": [
            {
              "code": "2339-0",
              "system": "http://loinc.org",
              "display": "Glucose [Mass/volume] in Blood"
            }
          ],
          "text": "Glucose [Mass/volume] in Blood"
        },
        "valueQuantity": {
          "system": "http://unitsofmeasure.org",
          "value": 88.9,
          "unit": "mg/dL",
          "code": "mg/dL"
        },
        "referenceRange": [
          {
            "low": {
              "value": 70,
              "code": "mg/dL",
              "system": "http://unitsofmeasure.org"
            }
          },
          {
            "high": {
              "value": 140,
              "code": "mg/dL",
              "system": "http://unitsofmeasure.org"
            }
          }
        ],
        "text": {
          "status": "generated",
          "div": "<div xmlns=\"http://www.w3.org/1999/xhtml\"><table class=\"hl7__eu__lab__report\"><tr><th>Test</th><th>08-Mar-2025</th><th>Reference&#xA0;Range</th><th>Unit</th></tr><tr><td>Glucose [Mass/volume] in Blood</td><td>88.9</td><td>70 - 140</td><td></td><td>mg/dL</td></tr></table></div>"
        },
        "status": "final",
        "subject": {
          "reference": "urn:uuid:27a7d510-a39c-4c22-981f-c837cf907e70",
          "display": "Lydia Ward"
        },
        "effectiveDateTime": "2025-03-07T23:08:09Z",
        "specimen": {
          "reference": "urn:uuid:ad4eb07e-a370-44a1-abba-cdd2ca972075"
        }
      }
    },
    {
      "fullUrl": "urn:uuid:1e37ba0b-cf35-410b-b1cb-5bcdd7f36133",
      "resource": {
        "resourceType": "Observation",
        "id": "1e37ba0b-cf35-410b-b1cb-5bcdd7f36133",
        "meta": {
          "profile": [
            "http://hl7.eu/fhir/laboratory/StructureDefinition/Observation-resultslab-eu-lab"
          ]
        },
        "performer": [
          {
            "display": "The Central European Lab"
          }
        ],
        "category": [
          {
            "coding": [
              {
                "system": "http://terminology.hl7.org/CodeSystem/observation-category",
                "code": "laboratory"
              }
            ]
          }
        ],
        "code": {
          "coding": [
            {
              "code": "6299-2",
              "system": "http://loinc.org",
              "display": "Urea nitrogen [Mass/volume] in Blood"
            }
          ],
          "text": "Urea nitrogen [Mass/volume] in Blood"
        },
        "valueQuantity": {
          "system": "http://unitsofmeasure.org",
          "value": 13.4,
          "unit": "mg/dL",
          "code": "mg/dL"
        },
        "referenceRange": [
          {
            "low": {
              "value": 7,
              "code": "mg/dL",
              "system": "http://unitsofmeasure.org"
            }
          },
          {
            "high": {
              "value": 45,
              "code": "mg/dL",
              "system": "http://unitsofmeasure.org"
            }
          }
        ],
        "text": {
          "status": "generated",
          "div": "<div xmlns=\"http://www.w3.org/1999/xhtml\"><table class=\"hl7__eu__lab__report\"><tr><th>Test</th><th>08-Mar-2025</th><th>Reference&#xA0;Range</th><th>Unit</th></tr><tr><td>Urea nitrogen [Mass/volume] in Blood</td><td>13.4</td><td>7 - 45</td><td></td><td>mg/dL</td></tr></table></div>"
        },
        "status": "final",
        "subject": {
          "reference": "urn:uuid:27a7d510-a39c-4c22-981f-c837cf907e70",
          "display": "Lydia Ward"
        },
        "effectiveDateTime": "2025-03-07T23:08:09Z",
        "specimen": {
          "reference": "urn:uuid:ad4eb07e-a370-44a1-abba-cdd2ca972075"
        }
      }
    },
    {
      "fullUrl": "urn:uuid:b75196d9-d559-4e39-8d9d-e8d3b30caba8",
      "resource": {
        "resourceType": "Observation",
        "id": "b75196d9-d559-4e39-8d9d-e8d3b30caba8",
        "meta": {
          "profile": [
            "http://hl7.eu/fhir/laboratory/StructureDefinition/Observation-resultslab-eu-lab"
          ]
        },
        "performer": [
          {
            "display": "The Central European Lab"
          }
        ],
        "category": [
          {
            "coding": [
              {
                "system": "http://terminology.hl7.org/CodeSystem/observation-category",
                "code": "laboratory"
              }
            ]
          }
        ],
        "code": {
          "coding": [
            {
              "code": "38483-4",
              "system": "http://loinc.org",
              "display": "Creatinine [Mass/volume] in Blood"
            }
          ],
          "text": "Creatinine [Mass/volume] in Blood"
        },
        "valueQuantity": {
          "system": "http://unitsofmeasure.org",
          "value": 0.8,
          "unit": "mg/dL",
          "code": "mg/dL"
        },
        "referenceRange": [
          {
            "low": {
              "value": 0.6,
              "code": "mg/dL",
              "system": "http://unitsofmeasure.org"
            }
          },
          {
            "high": {
              "value": 1.1,
              "code": "mg/dL",
              "system": "http://unitsofmeasure.org"
            }
          }
        ],
        "text": {
          "status": "generated",
          "div": "<div xmlns=\"http://www.w3.org/1999/xhtml\"><table class=\"hl7__eu__lab__report\"><tr><th>Test</th><th>08-Mar-2025</th><th>Reference&#xA0;Range</th><th>Unit</th></tr><tr><td>Creatinine [Mass/volume] in Blood</td><td>0.8</td><td>0.6 - 1.1</td><td></td><td>mg/dL</td></tr></table></div>"
        },
        "status": "final",
        "subject": {
          "reference": "urn:uuid:27a7d510-a39c-4c22-981f-c837cf907e70",
          "display": "Lydia Ward"
        },
        "effectiveDateTime": "2025-03-07T23:08:09Z",
        "specimen": {
          "reference": "urn:uuid:ad4eb07e-a370-44a1-abba-cdd2ca972075"
        }
      }
    },
    {
      "fullUrl": "urn:uuid:18d29342-6f6b-4dd5-9562-496e263e7b9f",
      "resource": {
        "resourceType": "Observation",
        "id": "18d29342-6f6b-4dd5-9562-496e263e7b9f",
        "meta": {
          "profile": [
            "http://hl7.eu/fhir/laboratory/StructureDefinition/Observation-resultslab-eu-lab"
          ]
        },
        "performer": [
          {
            "display": "The Central European Lab"
          }
        ],
        "category": [
          {
            "coding": [
              {
                "system": "http://terminology.hl7.org/CodeSystem/observation-category",
                "code": "laboratory"
              }
            ]
          }
        ],
        "code": {
          "coding": [
            {
              "code": "49765-1",
              "system": "http://loinc.org",
              "display": "Calcium [Mass/volume] in Blood"
            }
          ],
          "text": "Calcium [Mass/volume] in Blood"
        },
        "valueQuantity": {
          "system": "http://unitsofmeasure.org",
          "value": 10,
          "unit": "mg/dL",
          "code": "mg/dL"
        },
        "referenceRange": [
          {
            "low": {
              "value": 8.5,
              "code": "mg/dL",
              "system": "http://unitsofmeasure.org"
            }
          },
          {
            "high": {
              "value": 10.5,
              "code": "mg/dL",
              "system": "http://unitsofmeasure.org"
            }
          }
        ],
        "text": {
          "status": "generated",
          "div": "<div xmlns=\"http://www.w3.org/1999/xhtml\"><table class=\"hl7__eu__lab__report\"><tr><th>Test</th><th>08-Mar-2025</th><th>Reference&#xA0;Range</th><th>Unit</th></tr><tr><td>Calcium [Mass/volume] in Blood</td><td>10.0</td><td>8.5 - 10.5</td><td></td><td>mg/dL</td></tr></table></div>"
        },
        "status": "final",
        "subject": {
          "reference": "urn:uuid:27a7d510-a39c-4c22-981f-c837cf907e70",
          "display": "Lydia Ward"
        },
        "effectiveDateTime": "2025-03-07T23:08:09Z",
        "specimen": {
          "reference": "urn:uuid:ad4eb07e-a370-44a1-abba-cdd2ca972075"
        }
      }
    },
    {
      "fullUrl": "urn:uuid:7adb6755-49a4-47c0-a125-b2ec07f2e985",
      "resource": {
        "resourceType": "Observation",
        "id": "7adb6755-49a4-47c0-a125-b2ec07f2e985",
        "meta": {
          "profile": [
            "http://hl7.eu/fhir/laboratory/StructureDefinition/Observation-resultslab-eu-lab"
          ]
        },
        "performer": [
          {
            "display": "The Central European Lab"
          }
        ],
        "category": [
          {
            "coding": [
              {
                "system": "http://terminology.hl7.org/CodeSystem/observation-category",
                "code": "laboratory"
              }
            ]
          }
        ],
        "code": {
          "coding": [
            {
              "code": "2947-0",
              "system": "http://loinc.org",
              "display": "Sodium [Moles/volume] in Blood"
            }
          ],
          "text": "Sodium [Moles/volume] in Blood"
        },
        "valueQuantity": {
          "system": "http://unitsofmeasure.org",
          "value": 141,
          "unit": "mmol/L",
          "code": "mmol/L"
        },
        "referenceRange": [
          {
            "low": {
              "value": 135,
              "code": "mmol/L",
              "system": "http://unitsofmeasure.org"
            }
          },
          {
            "high": {
              "value": 145,
              "code": "mmol/L",
              "system": "http://unitsofmeasure.org"
            }
          }
        ],
        "text": {
          "status": "generated",
          "div": "<div xmlns=\"http://www.w3.org/1999/xhtml\"><table class=\"hl7__eu__lab__report\"><tr><th>Test</th><th>08-Mar-2025</th><th>Reference&#xA0;Range</th><th>Unit</th></tr><tr><td>Sodium [Moles/volume] in Blood</td><td>141.0</td><td>135 - 145</td><td></td><td>mmol/L</td></tr></table></div>"
        },
        "status": "final",
        "subject": {
          "reference": "urn:uuid:27a7d510-a39c-4c22-981f-c837cf907e70",
          "display": "Lydia Ward"
        },
        "effectiveDateTime": "2025-03-07T23:08:09Z",
        "specimen": {
          "reference": "urn:uuid:ad4eb07e-a370-44a1-abba-cdd2ca972075"
        }
      }
    },
    {
      "fullUrl": "urn:uuid:67611cfd-4f30-428b-843a-0926e0425651",
      "resource": {
        "resourceType": "Observation",
        "id": "67611cfd-4f30-428b-843a-0926e0425651",
        "meta": {
          "profile": [
            "http://hl7.eu/fhir/laboratory/StructureDefinition/Observation-resultslab-eu-lab"
          ]
        },
        "performer": [
          {
            "display": "The Central European Lab"
          }
        ],
        "category": [
          {
            "coding": [
              {
                "system": "http://terminology.hl7.org/CodeSystem/observation-category",
                "code": "laboratory"
              }
            ]
          }
        ],
        "code": {
          "coding": [
            {
              "code": "6298-4",
              "system": "http://loinc.org",
              "display": "Potassium [Moles/volume] in Blood"
            }
          ],
          "text": "Potassium [Moles/volume] in Blood"
        },
        "valueQuantity": {
          "system": "http://unitsofmeasure.org",
          "value": 3.8,
          "unit": "mmol/L",
          "code": "mmol/L"
        },
        "referenceRange": [
          {
            "low": {
              "value": 3.5,
              "code": "mmol/L",
              "system": "http://unitsofmeasure.org"
            }
          },
          {
            "high": {
              "value": 5.1,
              "code": "mmol/L",
              "system": "http://unitsofmeasure.org"
            }
          }
        ],
        "text": {
          "status": "generated",
          "div": "<div xmlns=\"http://www.w3.org/1999/xhtml\"><table class=\"hl7__eu__lab__report\"><tr><th>Test</th><th>08-Mar-2025</th><th>Reference&#xA0;Range</th><th>Unit</th></tr><tr><td>Potassium [Moles/volume] in Blood</td><td>3.8</td><td>3.5 - 5.1</td><td></td><td>mmol/L</td></tr></table></div>"
        },
        "status": "final",
        "subject": {
          "reference": "urn:uuid:27a7d510-a39c-4c22-981f-c837cf907e70",
          "display": "Lydia Ward"
        },
        "effectiveDateTime": "2025-03-07T23:08:09Z",
        "specimen": {
          "reference": "urn:uuid:ad4eb07e-a370-44a1-abba-cdd2ca972075"
        }
      }
    },
    {
      "fullUrl": "urn:uuid:acad8d9a-ce1d-48a2-8ee1-8e3ce507b7e8",
      "resource": {
        "resourceType": "Observation",
        "id": "acad8d9a-ce1d-48a2-8ee1-8e3ce507b7e8",
        "meta": {
          "profile": [
            "http://hl7.eu/fhir/laboratory/StructureDefinition/Observation-resultslab-eu-lab"
          ]
        },
        "performer": [
          {
            "display": "The Central European Lab"
          }
        ],
        "category": [
          {
            "coding": [
              {
                "system": "http://terminology.hl7.org/CodeSystem/observation-category",
                "code": "laboratory"
              }
            ]
          }
        ],
        "code": {
          "coding": [
            {
              "code": "2069-3",
              "system": "http://loinc.org",
              "display": "Chloride [Moles/volume] in Blood"
            }
          ],
          "text": "Chloride [Moles/volume] in Blood"
        },
        "valueQuantity": {
          "system": "http://unitsofmeasure.org",
          "value": 102.5,
          "unit": "mmol/L",
          "code": "mmol/L"
        },
        "referenceRange": [
          {
            "low": {
              "value": 98,
              "code": "mmol/L",
              "system": "http://unitsofmeasure.org"
            }
          },
          {
            "high": {
              "value": 107,
              "code": "mmol/L",
              "system": "http://unitsofmeasure.org"
            }
          }
        ],
        "text": {
          "status": "generated",
          "div": "<div xmlns=\"http://www.w3.org/1999/xhtml\"><table class=\"hl7__eu__lab__report\"><tr><th>Test</th><th>08-Mar-2025</th><th>Reference&#xA0;Range</th><th>Unit</th></tr><tr><td>Chloride [Moles/volume] in Blood</td><td>102.5</td><td>98 - 107</td><td></td><td>mmol/L</td></tr></table></div>"
        },
        "status": "final",
        "subject": {
          "reference": "urn:uuid:27a7d510-a39c-4c22-981f-c837cf907e70",
          "display": "Lydia Ward"
        },
        "effectiveDateTime": "2025-03-07T23:08:09Z",
        "specimen": {
          "reference": "urn:uuid:ad4eb07e-a370-44a1-abba-cdd2ca972075"
        }
      }
    },
    {
      "fullUrl": "urn:uuid:53b71cb5-2e41-4115-8be7-81aee08dcef4",
      "resource": {
        "resourceType": "Observation",
        "id": "53b71cb5-2e41-4115-8be7-81aee08dcef4",
        "meta": {
          "profile": [
            "http://hl7.eu/fhir/laboratory/StructureDefinition/Observation-resultslab-eu-lab"
          ]
        },
        "performer": [
          {
            "display": "The Central European Lab"
          }
        ],
        "category": [
          {
            "coding": [
              {
                "system": "http://terminology.hl7.org/CodeSystem/observation-category",
                "code": "laboratory"
              }
            ]
          }
        ],
        "code": {
          "coding": [
            {
              "code": "20565-8",
              "system": "http://loinc.org",
              "display": "Carbon dioxide, total [Moles/volume] in Blood"
            }
          ],
          "text": "Carbon dioxide, total [Moles/volume] in Blood"
        },
        "valueQuantity": {
          "system": "http://unitsofmeasure.org",
          "value": 22.8,
          "unit": "mmol/L",
          "code": "mmol/L"
        },
        "referenceRange": [
          {
            "low": {
              "value": 22,
              "code": "mmol/L",
              "system": "http://unitsofmeasure.org"
            }
          },
          {
            "high": {
              "value": 32,
              "code": "mmol/L",
              "system": "http://unitsofmeasure.org"
            }
          }
        ],
        "text": {
          "status": "generated",
          "div": "<div xmlns=\"http://www.w3.org/1999/xhtml\"><table class=\"hl7__eu__lab__report\"><tr><th>Test</th><th>08-Mar-2025</th><th>Reference&#xA0;Range</th><th>Unit</th></tr><tr><td>Carbon dioxide, total [Moles/volume] in Blood</td><td>22.8</td><td>22 - 32</td><td></td><td>mmol/L</td></tr></table></div>"
        },
        "status": "final",
        "subject": {
          "reference": "urn:uuid:27a7d510-a39c-4c22-981f-c837cf907e70",
          "display": "Lydia Ward"
        },
        "effectiveDateTime": "2025-03-07T23:08:09Z",
        "specimen": {
          "reference": "urn:uuid:ad4eb07e-a370-44a1-abba-cdd2ca972075"
        }
      }
    },
    {
      "fullUrl": "urn:uuid:2cb4d4e5-85ff-4277-a5e5-886049410263",
      "resource": {
        "resourceType": "Observation",
        "id": "2cb4d4e5-85ff-4277-a5e5-886049410263",
        "meta": {
          "profile": [
            "http://hl7.eu/fhir/laboratory/StructureDefinition/Observation-resultslab-eu-lab"
          ]
        },
        "performer": [
          {
            "display": "The Central European Lab"
          }
        ],
        "category": [
          {
            "coding": [
              {
                "system": "http://terminology.hl7.org/CodeSystem/observation-category",
                "code": "laboratory"
              }
            ]
          }
        ],
        "code": {
          "coding": [
            {
              "code": "2093-3",
              "system": "http://loinc.org",
              "display": "Cholesterol [Mass/volume] in Serum or Plasma"
            }
          ],
          "text": "Cholesterol [Mass/volume] in Serum or Plasma"
        },
        "valueQuantity": {
          "system": "http://unitsofmeasure.org",
          "value": 184.5,
          "unit": "mg/dL",
          "code": "mg/dL"
        },
        "referenceRange": [
          {
            "low": {
              "value": 125,
              "code": "mg/dL",
              "system": "http://unitsofmeasure.org"
            }
          },
          {
            "high": {
              "value": 200,
              "code": "mg/dL",
              "system": "http://unitsofmeasure.org"
            }
          }
        ],
        "text": {
          "status": "generated",
          "div": "<div xmlns=\"http://www.w3.org/1999/xhtml\"><table class=\"hl7__eu__lab__report\"><tr><th>Test</th><th>08-Mar-2025</th><th>Reference&#xA0;Range</th><th>Unit</th></tr><tr><td>Cholesterol [Mass/volume] in Serum or Plasma</td><td>184.5</td><td>125 - 200</td><td></td><td>mg/dL</td></tr></table></div>"
        },
        "status": "final",
        "subject": {
          "reference": "urn:uuid:27a7d510-a39c-4c22-981f-c837cf907e70",
          "display": "Lydia Ward"
        },
        "effectiveDateTime": "2025-03-07T23:08:09Z",
        "specimen": {
          "reference": "urn:uuid:f57542eb-d106-4254-b69a-b17f587fe477"
        }
      }
    },
    {
      "fullUrl": "urn:uuid:f2f512b0-5bdc-4a28-ae73-bd9d70e2c8fd",
      "resource": {
        "resourceType": "Observation",
        "id": "f2f512b0-5bdc-4a28-ae73-bd9d70e2c8fd",
        "meta": {
          "profile": [
            "http://hl7.eu/fhir/laboratory/StructureDefinition/Observation-resultslab-eu-lab"
          ]
        },
        "performer": [
          {
            "display": "The Central European Lab"
          }
        ],
        "category": [
          {
            "coding": [
              {
                "system": "http://terminology.hl7.org/CodeSystem/observation-category",
                "code": "laboratory"
              }
            ]
          }
        ],
        "code": {
          "coding": [
            {
              "code": "2571-8",
              "system": "http://loinc.org",
              "display": "Triglyceride [Mass/volume] in Serum or Plasma"
            }
          ],
          "text": "Triglyceride [Mass/volume] in Serum or Plasma"
        },
        "valueQuantity": {
          "system": "http://unitsofmeasure.org",
          "value": 135.4,
          "unit": "mg/dL",
          "code": "mg/dL"
        },
        "referenceRange": [
          {
            "low": {
              "value": 0,
              "code": "mg/dL",
              "system": "http://unitsofmeasure.org"
            }
          },
          {
            "high": {
              "value": 150,
              "code": "mg/dL",
              "system": "http://unitsofmeasure.org"
            }
          }
        ],
        "text": {
          "status": "generated",
          "div": "<div xmlns=\"http://www.w3.org/1999/xhtml\"><table class=\"hl7__eu__lab__report\"><tr><th>Test</th><th>08-Mar-2025</th><th>Reference&#xA0;Range</th><th>Unit</th></tr><tr><td>Triglyceride [Mass/volume] in Serum or Plasma</td><td>135.4</td><td>0 - 150</td><td></td><td>mg/dL</td></tr></table></div>"
        },
        "status": "final",
        "subject": {
          "reference": "urn:uuid:27a7d510-a39c-4c22-981f-c837cf907e70",
          "display": "Lydia Ward"
        },
        "effectiveDateTime": "2025-03-07T23:08:09Z",
        "specimen": {
          "reference": "urn:uuid:f57542eb-d106-4254-b69a-b17f587fe477"
        }
      }
    },
    {
      "fullUrl": "urn:uuid:67af7dd8-4ec7-4cd3-8a6b-c7c5deac0ae9",
      "resource": {
        "resourceType": "Observation",
        "id": "67af7dd8-4ec7-4cd3-8a6b-c7c5deac0ae9",
        "meta": {
          "profile": [
            "http://hl7.eu/fhir/laboratory/StructureDefinition/Observation-resultslab-eu-lab"
          ]
        },
        "performer": [
          {
            "display": "The Central European Lab"
          }
        ],
        "category": [
          {
            "coding": [
              {
                "system": "http://terminology.hl7.org/CodeSystem/observation-category",
                "code": "laboratory"
              }
            ]
          }
        ],
        "code": {
          "coding": [
            {
              "code": "18262-6",
              "system": "http://loinc.org",
              "display": "Cholesterol in LDL [Mass/volume] in Serum or Plasma by Direct assay"
            }
          ],
          "text": "Cholesterol in LDL [Mass/volume] in Serum or Plasma by Direct assay"
        },
        "valueQuantity": {
          "system": "http://unitsofmeasure.org",
          "value": 98.3,
          "unit": "mg/dL",
          "code": "mg/dL"
        },
        "referenceRange": [
          {
            "low": {
              "value": 0,
              "code": "mg/dL",
              "system": "http://unitsofmeasure.org"
            }
          },
          {
            "high": {
              "value": 130,
              "code": "mg/dL",
              "system": "http://unitsofmeasure.org"
            }
          }
        ],
        "text": {
          "status": "generated",
          "div": "<div xmlns=\"http://www.w3.org/1999/xhtml\"><table class=\"hl7__eu__lab__report\"><tr><th>Test</th><th>08-Mar-2025</th><th>Reference&#xA0;Range</th><th>Unit</th></tr><tr><td>Cholesterol in LDL [Mass/volume] in Serum or Plasma by Direct assay</td><td>98.3</td><td>0 - 130</td><td></td><td>mg/dL</td></tr></table></div>"
        },
        "status": "final",
        "subject": {
          "reference": "urn:uuid:27a7d510-a39c-4c22-981f-c837cf907e70",
          "display": "Lydia Ward"
        },
        "effectiveDateTime": "2025-03-07T23:08:09Z",
        "specimen": {
          "reference": "urn:uuid:f57542eb-d106-4254-b69a-b17f587fe477"
        }
      }
    },
    {
      "fullUrl": "urn:uuid:5e072597-fc0d-4469-96e9-5a58a81dfbae",
      "resource": {
        "resourceType": "Observation",
        "id": "5e072597-fc0d-4469-96e9-5a58a81dfbae",
        "meta": {
          "profile": [
            "http://hl7.eu/fhir/laboratory/StructureDefinition/Observation-resultslab-eu-lab"
          ]
        },
        "performer": [
          {
            "display": "The Central European Lab"
          }
        ],
        "category": [
          {
            "coding": [
              {
                "system": "http://terminology.hl7.org/CodeSystem/observation-category",
                "code": "laboratory"
              }
            ]
          }
        ],
        "code": {
          "coding": [
            {
              "code": "2085-9",
              "system": "http://loinc.org",
              "display": "Cholesterol in HDL [Mass/volume] in Serum or Plasma"
            }
          ],
          "text": "Cholesterol in HDL [Mass/volume] in Serum or Plasma"
        },
        "valueQuantity": {
          "system": "http://unitsofmeasure.org",
          "value": 59.1,
          "unit": "mg/dL",
          "code": "mg/dL"
        },
        "referenceRange": [
          {
            "low": {
              "value": 40,
              "code": "mg/dL",
              "system": "http://unitsofmeasure.org"
            }
          },
          {
            "high": {
              "value": 60,
              "code": "mg/dL",
              "system": "http://unitsofmeasure.org"
            }
          }
        ],
        "text": {
          "status": "generated",
          "div": "<div xmlns=\"http://www.w3.org/1999/xhtml\"><table class=\"hl7__eu__lab__report\"><tr><th>Test</th><th>08-Mar-2025</th><th>Reference&#xA0;Range</th><th>Unit</th></tr><tr><td>Cholesterol in HDL [Mass/volume] in Serum or Plasma</td><td>59.1</td><td>40 - 60</td><td></td><td>mg/dL</td></tr></table></div>"
        },
        "status": "final",
        "subject": {
          "reference": "urn:uuid:27a7d510-a39c-4c22-981f-c837cf907e70",
          "display": "Lydia Ward"
        },
        "effectiveDateTime": "2025-03-07T23:08:09Z",
        "specimen": {
          "reference": "urn:uuid:f57542eb-d106-4254-b69a-b17f587fe477"
        }
      }
    },
    {
      "fullUrl": "urn:uuid:c6cfa686-1d72-4af3-ad7d-85c129926671",
      "resource": {
        "resourceType": "Device",
        "id": "c6cfa686-1d72-4af3-ad7d-85c129926671",
        "deviceName": [
          {
            "name": "SYNDERAI Synthetic Generator",
            "type": "manufacturer-name"
          }
        ],
        "version": [
          {
            "value": "5.0"
          }
        ],
        "text": {
          "status": "generated",
          "div": "<div xmlns=\"http://www.w3.org/1999/xhtml\">SYNDERAI Synthetic Generator v5.0</div>"
        },
        "status": "active\"",
        "distinctIdentifier": "synderai-generator-50",
        "manufacturer": "SYNDERAI Project"
      }
    },
    {
      "fullUrl": "urn:uuid:34ef95ab-78d4-4346-a9bb-ea1b1a4e5037",
      "resource": {
        "resourceType": "Provenance",
        "id": "34ef95ab-78d4-4346-a9bb-ea1b1a4e5037",
        "target": [
          {
            "reference": "Patient/27a7d510-a39c-4c22-981f-c837cf907e70"
          },
          {
            "reference": "Bundle/ad9fed75-f90e-45f2-9fad-7af04a3262d3"
          },
          {
            "reference": "Composition/ef970f10-1a85-4191-8f8c-fa7ae4bfcab5"
          },
          {
            "reference": "PractitionerRole/94ff9895-3a96-48e0-b03f-ff923de5ce0d"
          },
          {
            "reference": "Practitioner/6bbbd0c3-748f-4fb2-b52a-188f829d8829"
          },
          {
            "reference": "PractitionerRole/cadb9296-579d-443f-b6cb-57b2a0f982a1"
          },
          {
            "reference": "Organization/edb6d1c4-4bc0-4174-862d-4b202e451f53"
          }
        ],
        "activity": {
          "text": "Synthetic Example Data Generation"
        },
        "policy": [
          "https://synderai.net/synderai-synthetic-data-policy"
        ],
        "agent": [
          {
            "type": {
              "text": "author"
            },
            "who": {
              "reference": "Device/c6cfa686-1d72-4af3-ad7d-85c129926671"
            }
          }
        ],
        "reason": [
          {
            "text": "Interoperability Testing and Training (non-clinical use)"
          }
        ],
        "text": {
          "status": "generated",
          "div": "<div xmlns=\"http://www.w3.org/1999/xhtml\">Provenance for SYNDERAI Synthetic Example Data Resource</div>"
        },
        "recorded": "2025-03-08T00:08:09Z"
      }
    },
    {
      "fullUrl": "urn:uuid:94ff9895-3a96-48e0-b03f-ff923de5ce0d",
      "resource": {
        "resourceType": "PractitionerRole",
        "id": "94ff9895-3a96-48e0-b03f-ff923de5ce0d",
        "meta": {
          "profile": [
            "http://hl7.eu/fhir/base/StructureDefinition/practitionerRole-eu"
          ]
        },
        "text": {
          "status": "generated",
          "div": "<div xmlns=\"http://www.w3.org/1999/xhtml\">Laboratory Role Id: 94ff9895-3a96-48e0-b03f-ff923de5ce0d</div>"
        },
        "practitioner": {
          "reference": "urn:uuid:6bbbd0c3-748f-4fb2-b52a-188f829d8829"
        }
      }
    },
    {
      "fullUrl": "urn:uuid:6bbbd0c3-748f-4fb2-b52a-188f829d8829",
      "resource": {
        "resourceType": "Practitioner",
        "id": "6bbbd0c3-748f-4fb2-b52a-188f829d8829",
        "meta": {
          "profile": [
            "http://hl7.eu/fhir/base/StructureDefinition/practitioner-eu"
          ]
        },
        "identifier": [
          {
            "assigner": {
              "display": "HL7 Europe"
            },
            "system": "urn:oid:2.16.840.1.113883.2.51.999",
            "value": "ef243302-de30-44df-95eb-e4af5f0e3eeb"
          }
        ],
        "name": [
          {
            "prefix": [
              "dr"
            ],
            "given": [
              "Ex"
            ],
            "family": "Ample"
          }
        ],
        "address": [
          {
            "line": [
              "Laboratoire Central Europenne",
              "Boulevard du Jardin Botanique 32"
            ],
            "postalCode": "1000",
            "city": "Brussels",
            "country": "Belgium"
          }
        ],
        "text": {
          "status": "generated",
          "div": "<div xmlns=\"http://www.w3.org/1999/xhtml\">Laboratory: Laboratoire Central Europenne, 1000 Brussels, Belgium</div>"
        }
      }
    }
  ],
  "type": "document",
  "timestamp": "2025-03-08T00:08:09Z"
}
