{
  "resourceType": "Bundle",
  "id": "d30e86ca-1986-4325-8b6c-2b7153143278",
  "meta": {
    "profile": [
      "http://hl7.eu/fhir/laboratory/StructureDefinition/Bundle-eu-lab"
    ]
  },
  "identifier": {
    "assigner": {
      "display": "HL7 Europe"
    },
    "system": "urn:oid:2.16.840.1.113883.2.51.999",
    "value": "5aa28991-9870-4d45-900c-d1a8efd4d3e3"
  },
  "entry": [
    {
      "fullUrl": "urn:uuid:bbbbd794-351d-47b6-bd02-2ad7e8043e66",
      "resource": {
        "resourceType": "Composition",
        "id": "bbbbd794-351d-47b6-bd02-2ad7e8043e66",
        "meta": {
          "profile": [
            "http://hl7.eu/fhir/laboratory/StructureDefinition/Composition-eu-lab"
          ]
        },
        "identifier": {
          "assigner": {
            "display": "HL7 Europe"
          },
          "system": "urn:oid:2.16.840.1.113883.2.51.999",
          "value": "55eab8d8-3103-4d7b-ad23-edd46a1cc2fa"
        },
        "author": [
          {
            "reference": "urn:uuid:61a0b942-dec4-4640-b7f8-8f110a78cb78"
          }
        ],
        "category": [
          {
            "coding": [
              {
                "code": "26436-6",
                "system": "http://loinc.org",
                "display": "Laboratory studies (set)"
              }
            ]
          }
        ],
        "type": {
          "coding": [
            {
              "code": "11502-2",
              "system": "http://loinc.org",
              "display": "Laboratory report"
            }
          ],
          "text": "Laboratory Report"
        },
        "section": [
          {
            "code": {
              "coding": [
                {
                  "code": "26436-6",
                  "system": "http://loinc.org",
                  "display": "Laboratory studies (set)"
                }
              ],
              "text": "Laboratory studies"
            },
            "section": [
              {
                "code": {
                  "coding": [
                    {
                      "code": "$18719-5",
                      "system": "http://loinc.org",
                      "display": "Chemistry studies (set)"
                    }
                  ],
                  "text": "Chemistry"
                },
                "entry": [
                  {
                    "reference": "urn:uuid:9fcac811-9e26-4188-b4d0-e7c24b2fe3a1"
                  },
                  {
                    "reference": "urn:uuid:e48950d3-0e64-43c4-99b9-bc8c3e30300d"
                  },
                  {
                    "reference": "urn:uuid:50fa3029-ac63-4ffa-b50d-b49acca63f7c"
                  },
                  {
                    "reference": "urn:uuid:581f2a84-7087-4381-87bc-50c1a61041a3"
                  },
                  {
                    "reference": "urn:uuid:a491b9e4-61d7-4b48-81a6-f831e5e5494b"
                  },
                  {
                    "reference": "urn:uuid:3236a671-b0a8-4203-9744-b140a61875f9"
                  },
                  {
                    "reference": "urn:uuid:c98888b2-3adc-4306-9c2b-8c2ee98a558e"
                  },
                  {
                    "reference": "urn:uuid:2b690466-9617-4d12-995c-f0f24809cb3c"
                  },
                  {
                    "reference": "urn:uuid:2a30428f-5ac8-4010-b776-fc87a0cf1a34"
                  }
                ],
                "text": {
                  "status": "generated",
                  "div": "<div xmlns=\"http://www.w3.org/1999/xhtml\"><h3>Chemistry</h3><table class=\"hl7__eu__lab__report\"><thead><tr><th>Test</th><th>24-JAN-2022</th><th>Reference&#xA0;Range</th><th>Unit</th></tr></thead><tbody><tr><td>Hemoglobin A1c/Hemoglobin.total in Blood</td><td>5.9</td><td>4 - 6</td><td>%</td></tr><tr><td>Glucose [Mass/volume] in Blood</td><td>82.8</td><td>70 - 140</td><td>mg/dL</td></tr><tr><td>Urea nitrogen [Mass/volume] in Blood</td><td>9.3</td><td>7 - 20</td><td>mg/dL</td></tr><tr><td>Creatinine [Mass/volume] in Blood</td><td>0.9</td><td>0.9 - 1.3</td><td>mg/dL</td></tr><tr><td>Calcium [Mass/volume] in Blood</td><td>9.0</td><td>8.5 - 10.5</td><td>mg/dL</td></tr><tr><td>Sodium [Moles/volume] in Blood</td><td>140.9</td><td>135 - 145</td><td>mmol/L</td></tr><tr><td>Potassium [Moles/volume] in Blood</td><td><strong>5.1 H</strong></td><td>3.5 - 5</td><td>mmol/L</td></tr><tr><td>Chloride [Moles/volume] in Blood</td><td>107.7</td><td>98 - 110</td><td>mmol/L</td></tr><tr><td>Carbon dioxide, total [Moles/volume] in Blood</td><td>22.1</td><td>22 - 32</td><td>mmol/L</td></tr></tbody></table></div>"
                },
                "title": "Chemistry"
              }
            ],
            "title": "Laboratory Report"
          },
          {
            "text": {
              "status": "generated",
              "div": "<div xmlns=\"http://www.w3.org/1999/xhtml\"><h3>Annotation</h3><table class=\"hl7__eu__lab__report\"><tr><th>Conclusion and Recommendations based on this report and previous findings known to us</th></tr><tr><td>All laboratory values are within or very close to normal limits, except for a mildly elevated potassium (5.1 mmol/L). Renal function, glucose, and electrolytes are otherwise unremarkable. The slightly high potassium may warrant repeat testing and review of medications or dietary intake, but no acute abnormalities are evident. Overall, results are stable and reassuring.</td></tr></table></div>"
            },
            "code": {
              "coding": [
                {
                  "system": "http://loinc.org",
                  "code": "48767-8",
                  "display": "Annotation comment"
                }
              ]
            },
            "title": "Annotation comment"
          }
        ],
        "status": "final",
        "subject": {
          "reference": "urn:uuid:cc8a5368-9e44-453f-8a79-505ffb139e5c",
          "display": "Alessio Fanucci"
        },
        "date": "2022-01-24T08:49:06Z",
        "title": "Laboratory Report",
        "confidentiality": "N"
      }
    },
    {
      "fullUrl": "urn:uuid:3755d216-137b-453e-a1e3-06f42c358b8b",
      "resource": {
        "resourceType": "DiagnosticReport",
        "id": "3755d216-137b-453e-a1e3-06f42c358b8b",
        "meta": {
          "profile": [
            "http://hl7.eu/fhir/laboratory/StructureDefinition/DiagnosticReport-eu-lab"
          ]
        },
        "identifier": [
          {
            "assigner": {
              "display": "HL7 Europe"
            },
            "system": "urn:oid:2.16.840.1.113883.2.51.999",
            "value": "add2b518-ea19-43ba-8a07-17d50f31178f"
          }
        ],
        "extension": [
          {
            "url": "http://hl7.org/fhir/5.0/StructureDefinition/extension-DiagnosticReport.composition",
            "valueReference": {
              "reference": "urn:uuid:55eab8d8-3103-4d7b-ad23-edd46a1cc2fa"
            }
          }
        ],
        "category": [
          {
            "coding": [
              {
                "code": "26436-6",
                "system": "http://loinc.org",
                "display": "Laboratory studies (set)"
              }
            ]
          }
        ],
        "specimen": [
          {
            "reference": "urn:uuid:3c994513-93a2-4426-929a-28aec67c939c"
          }
        ],
        "result": [
          {
            "reference": "urn:uuid:9fcac811-9e26-4188-b4d0-e7c24b2fe3a1"
          },
          {
            "reference": "urn:uuid:e48950d3-0e64-43c4-99b9-bc8c3e30300d"
          },
          {
            "reference": "urn:uuid:50fa3029-ac63-4ffa-b50d-b49acca63f7c"
          },
          {
            "reference": "urn:uuid:581f2a84-7087-4381-87bc-50c1a61041a3"
          },
          {
            "reference": "urn:uuid:a491b9e4-61d7-4b48-81a6-f831e5e5494b"
          },
          {
            "reference": "urn:uuid:3236a671-b0a8-4203-9744-b140a61875f9"
          },
          {
            "reference": "urn:uuid:c98888b2-3adc-4306-9c2b-8c2ee98a558e"
          },
          {
            "reference": "urn:uuid:2b690466-9617-4d12-995c-f0f24809cb3c"
          },
          {
            "reference": "urn:uuid:2a30428f-5ac8-4010-b776-fc87a0cf1a34"
          }
        ],
        "status": "registered",
        "code": {
          "coding": [
            {
              "code": "11502-2",
              "system": "http://loinc.org",
              "display": "Laboratory report"
            }
          ]
        },
        "subject": {
          "reference": "urn:uuid:cc8a5368-9e44-453f-8a79-505ffb139e5c",
          "display": "Alessio Fanucci"
        }
      }
    },
    {
      "fullUrl": "urn:uuid:cc8a5368-9e44-453f-8a79-505ffb139e5c",
      "resource": {
        "resourceType": "Patient",
        "id": "cc8a5368-9e44-453f-8a79-505ffb139e5c",
        "meta": {
          "security": [
            {
              "system": "http://terminology.hl7.org/CodeSystem/v3-ActReason",
              "code": "HTEST"
            },
            {
              "system": "http://terminology.hl7.org/CodeSystem/v3-ActReason",
              "code": "TRAIN"
            }
          ],
          "tag": [
            {
              "system": "https://synderai.net/fhir/CodeSystem/tags",
              "code": "synthetic",
              "display": "SYNDERAI Synthetic data"
            }
          ],
          "profile": [
            "http://hl7.eu/fhir/base/StructureDefinition/patient-eu-core"
          ]
        },
        "identifier": [
          {
            "type": {
              "coding": [
                {
                  "code": "PT",
                  "system": "http://terminology.hl7.org/CodeSystem/v2-0203"
                }
              ]
            },
            "system": "http://ec.europa.eu/identifier/eci",
            "value": "4754-874768-3"
          },
          {
            "type": {
              "coding": [
                {
                  "code": "MR",
                  "system": "http://terminology.hl7.org/CodeSystem/v2-0203"
                }
              ]
            },
            "system": "http://local.setting.eu/identifier",
            "value": "4b888823-bdd8-59a3-b785-e7ba28e6a7b5"
          }
        ],
        "name": [
          {
            "family": "Fanucci"
          },
          {
            "given": [
              "Alessio"
            ]
          },
          {
            "text": "Alessio Fanucci"
          }
        ],
        "address": [
          {
            "line": [
              "Incrocio Combi, 822"
            ],
            "use": "home",
            "type": "physical",
            "postalCode": "33015",
            "city": "Moggio Udinese",
            "country": "Italy"
          }
        ],
        "telecom": [
          {
            "system": "phone",
            "value": "0125684636"
          }
        ],
        "extension": [
          {
            "url": "http://hl7.org/fhir/StructureDefinition/patient-nationality",
            "valueCodeableConcept": {
              "coding": [
                {
                  "code": "IT",
                  "system": "http://hl7.org/fhir/ValueSet/country"
                }
              ]
            }
          }
        ],
        "text": {
          "status": "generated",
          "div": "<div xmlns=\"http://www.w3.org/1999/xhtml\"><table class=\"hl7__ips\"><tr><td>Alessio Fanucci</td><td>male</td><td>12-Sep-1964</td></tr></table></div>"
        },
        "gender": "male",
        "birthDate": "1964-09-12"
      }
    },
    {
      "fullUrl": "urn:uuid:b7be9568-1101-446e-8093-50e4bb0594a3",
      "resource": {
        "resourceType": "ServiceRequest",
        "id": "b7be9568-1101-446e-8093-50e4bb0594a3",
        "meta": {
          "profile": [
            "http://hl7.eu/fhir/laboratory/StructureDefinition/ServiceRequest-eu-lab"
          ]
        },
        "identifier": [
          {
            "system": "http://example.org",
            "value": "7e5476fd-bb30-4c6c-aedd-cc24eaec6235"
          }
        ],
        "specimen": [
          {
            "reference": "urn:uuid:3c994513-93a2-4426-929a-28aec67c939c"
          }
        ],
        "reasonCode": [
          {
            "coding": [
              {
                "code": "15777000",
                "system": "http://snomed.info/sct",
                "display": "Prediabetes"
              }
            ]
          },
          {
            "coding": [
              {
                "code": "271737000",
                "system": "http://snomed.info/sct",
                "display": "Anemia"
              }
            ]
          },
          {
            "coding": [
              {
                "code": "40055000",
                "system": "http://snomed.info/sct",
                "display": "Chronic sinusitis"
              }
            ]
          }
        ],
        "status": "active",
        "intent": "order",
        "code": {
          "coding": [
            {
              "code": "108252007",
              "system": "http://snomed.info/sct",
              "display": "Laboratory procedure"
            }
          ]
        },
        "subject": {
          "reference": "urn:uuid:cc8a5368-9e44-453f-8a79-505ffb139e5c",
          "display": "Alessio Fanucci"
        },
        "requester": {
          "reference": "urn:uuid:fe098a77-26c5-4d42-a4a7-f90109fb6326"
        }
      }
    },
    {
      "fullUrl": "urn:uuid:fe098a77-26c5-4d42-a4a7-f90109fb6326",
      "resource": {
        "resourceType": "PractitionerRole",
        "id": "fe098a77-26c5-4d42-a4a7-f90109fb6326",
        "meta": {
          "profile": [
            "http://hl7.eu/fhir/base/StructureDefinition/practitionerRole-eu"
          ]
        },
        "text": {
          "status": "generated",
          "div": "<div xmlns=\"http://www.w3.org/1999/xhtml\">Provider Role Id: fe098a77-26c5-4d42-a4a7-f90109fb6326</div>"
        },
        "organization": {
          "reference": "urn:uuid:1d388819-b99e-4ddd-bb1f-fb1a761576e9"
        }
      }
    },
    {
      "fullUrl": "urn:uuid:1d388819-b99e-4ddd-bb1f-fb1a761576e9",
      "resource": {
        "resourceType": "Organization",
        "id": "1d388819-b99e-4ddd-bb1f-fb1a761576e9",
        "meta": {
          "profile": [
            "http://hl7.eu/fhir/base/StructureDefinition/organization-eu"
          ]
        },
        "identifier": [
          {
            "assigner": {
              "display": "HL7 Europe"
            },
            "system": "urn:oid:2.16.840.1.113883.2.51.999",
            "value": "72489c27-3db4-4d9f-ae73-9574b37f3756"
          }
        ],
        "address": [
          {
            "city": "Artegna",
            "postalCode": "33011",
            "country": "Italy"
          }
        ],
        "text": {
          "status": "generated",
          "div": "<div xmlns=\"http://www.w3.org/1999/xhtml\">Provider Organization: Ambulatori</div>"
        },
        "name": "Ambulatori"
      }
    },
    {
      "fullUrl": "urn:uuid:3c994513-93a2-4426-929a-28aec67c939c",
      "resource": {
        "resourceType": "Specimen",
        "id": "3c994513-93a2-4426-929a-28aec67c939c",
        "meta": {
          "profile": [
            "http://hl7.eu/fhir/laboratory/StructureDefinition/Specimen-eu-lab"
          ]
        },
        "collection": {
          "collectedDateTime": "2022-01-24"
        },
        "text": {
          "status": "generated",
          "div": "<div xmlns=\"http://www.w3.org/1999/xhtml\"><table class=\"hl7__eu__lab__report\"><tr><th>Specimen</th><th>Collection Date</th></tr><tr><td>Whole blood specimen (specimen)</td><td><span class=\"nb\">24-Jan-2022</span></td></tr></table></div>"
        },
        "type": {
          "coding": [
            {
              "code": "258580003",
              "system": "http://snomed.info/sct",
              "display": "Whole blood specimen (specimen)"
            }
          ]
        }
      }
    },
    {
      "fullUrl": "urn:uuid:9fcac811-9e26-4188-b4d0-e7c24b2fe3a1",
      "resource": {
        "resourceType": "Observation",
        "id": "9fcac811-9e26-4188-b4d0-e7c24b2fe3a1",
        "meta": {
          "profile": [
            "http://hl7.eu/fhir/laboratory/StructureDefinition/Observation-resultslab-eu-lab"
          ]
        },
        "performer": [
          {
            "display": "The Central European Lab"
          }
        ],
        "category": [
          {
            "coding": [
              {
                "system": "http://terminology.hl7.org/CodeSystem/observation-category",
                "code": "laboratory"
              }
            ]
          }
        ],
        "code": {
          "coding": [
            {
              "code": "4548-4",
              "system": "http://loinc.org",
              "display": "Hemoglobin A1c/Hemoglobin.total in Blood"
            }
          ],
          "text": "Hemoglobin A1c/Hemoglobin.total in Blood"
        },
        "valueQuantity": {
          "system": "http://unitsofmeasure.org",
          "value": 5.9,
          "unit": "%",
          "code": "%"
        },
        "referenceRange": [
          {
            "low": {
              "value": 4,
              "code": "%",
              "system": "http://unitsofmeasure.org"
            }
          },
          {
            "high": {
              "value": 6,
              "code": "%",
              "system": "http://unitsofmeasure.org"
            }
          }
        ],
        "text": {
          "status": "generated",
          "div": "<div xmlns=\"http://www.w3.org/1999/xhtml\"><table class=\"hl7__eu__lab__report\"><tr><th>Test</th><th>24-Jan-2022</th><th>Reference&#xA0;Range</th><th>Unit</th></tr><tr><td>Hemoglobin A1c/Hemoglobin.total in Blood</td><td>5.9</td><td>4 - 6</td><td></td><td>%</td></tr></table></div>"
        },
        "status": "final",
        "subject": {
          "reference": "urn:uuid:cc8a5368-9e44-453f-8a79-505ffb139e5c",
          "display": "Alessio Fanucci"
        },
        "effectiveDateTime": "2022-01-24T07:49:06Z",
        "specimen": {
          "reference": "urn:uuid:3c994513-93a2-4426-929a-28aec67c939c"
        }
      }
    },
    {
      "fullUrl": "urn:uuid:e48950d3-0e64-43c4-99b9-bc8c3e30300d",
      "resource": {
        "resourceType": "Observation",
        "id": "e48950d3-0e64-43c4-99b9-bc8c3e30300d",
        "meta": {
          "profile": [
            "http://hl7.eu/fhir/laboratory/StructureDefinition/Observation-resultslab-eu-lab"
          ]
        },
        "performer": [
          {
            "display": "The Central European Lab"
          }
        ],
        "category": [
          {
            "coding": [
              {
                "system": "http://terminology.hl7.org/CodeSystem/observation-category",
                "code": "laboratory"
              }
            ]
          }
        ],
        "code": {
          "coding": [
            {
              "code": "2339-0",
              "system": "http://loinc.org",
              "display": "Glucose [Mass/volume] in Blood"
            }
          ],
          "text": "Glucose [Mass/volume] in Blood"
        },
        "valueQuantity": {
          "system": "http://unitsofmeasure.org",
          "value": 82.8,
          "unit": "mg/dL",
          "code": "mg/dL"
        },
        "referenceRange": [
          {
            "low": {
              "value": 70,
              "code": "mg/dL",
              "system": "http://unitsofmeasure.org"
            }
          },
          {
            "high": {
              "value": 140,
              "code": "mg/dL",
              "system": "http://unitsofmeasure.org"
            }
          }
        ],
        "text": {
          "status": "generated",
          "div": "<div xmlns=\"http://www.w3.org/1999/xhtml\"><table class=\"hl7__eu__lab__report\"><tr><th>Test</th><th>24-Jan-2022</th><th>Reference&#xA0;Range</th><th>Unit</th></tr><tr><td>Glucose [Mass/volume] in Blood</td><td>82.8</td><td>70 - 140</td><td></td><td>mg/dL</td></tr></table></div>"
        },
        "status": "final",
        "subject": {
          "reference": "urn:uuid:cc8a5368-9e44-453f-8a79-505ffb139e5c",
          "display": "Alessio Fanucci"
        },
        "effectiveDateTime": "2022-01-24T07:49:06Z",
        "specimen": {
          "reference": "urn:uuid:3c994513-93a2-4426-929a-28aec67c939c"
        }
      }
    },
    {
      "fullUrl": "urn:uuid:50fa3029-ac63-4ffa-b50d-b49acca63f7c",
      "resource": {
        "resourceType": "Observation",
        "id": "50fa3029-ac63-4ffa-b50d-b49acca63f7c",
        "meta": {
          "profile": [
            "http://hl7.eu/fhir/laboratory/StructureDefinition/Observation-resultslab-eu-lab"
          ]
        },
        "performer": [
          {
            "display": "The Central European Lab"
          }
        ],
        "category": [
          {
            "coding": [
              {
                "system": "http://terminology.hl7.org/CodeSystem/observation-category",
                "code": "laboratory"
              }
            ]
          }
        ],
        "code": {
          "coding": [
            {
              "code": "6299-2",
              "system": "http://loinc.org",
              "display": "Urea nitrogen [Mass/volume] in Blood"
            }
          ],
          "text": "Urea nitrogen [Mass/volume] in Blood"
        },
        "valueQuantity": {
          "system": "http://unitsofmeasure.org",
          "value": 9.3,
          "unit": "mg/dL",
          "code": "mg/dL"
        },
        "referenceRange": [
          {
            "low": {
              "value": 7,
              "code": "mg/dL",
              "system": "http://unitsofmeasure.org"
            }
          },
          {
            "high": {
              "value": 20,
              "code": "mg/dL",
              "system": "http://unitsofmeasure.org"
            }
          }
        ],
        "text": {
          "status": "generated",
          "div": "<div xmlns=\"http://www.w3.org/1999/xhtml\"><table class=\"hl7__eu__lab__report\"><tr><th>Test</th><th>24-Jan-2022</th><th>Reference&#xA0;Range</th><th>Unit</th></tr><tr><td>Urea nitrogen [Mass/volume] in Blood</td><td>9.3</td><td>7 - 20</td><td></td><td>mg/dL</td></tr></table></div>"
        },
        "status": "final",
        "subject": {
          "reference": "urn:uuid:cc8a5368-9e44-453f-8a79-505ffb139e5c",
          "display": "Alessio Fanucci"
        },
        "effectiveDateTime": "2022-01-24T07:49:06Z",
        "specimen": {
          "reference": "urn:uuid:3c994513-93a2-4426-929a-28aec67c939c"
        }
      }
    },
    {
      "fullUrl": "urn:uuid:581f2a84-7087-4381-87bc-50c1a61041a3",
      "resource": {
        "resourceType": "Observation",
        "id": "581f2a84-7087-4381-87bc-50c1a61041a3",
        "meta": {
          "profile": [
            "http://hl7.eu/fhir/laboratory/StructureDefinition/Observation-resultslab-eu-lab"
          ]
        },
        "performer": [
          {
            "display": "The Central European Lab"
          }
        ],
        "category": [
          {
            "coding": [
              {
                "system": "http://terminology.hl7.org/CodeSystem/observation-category",
                "code": "laboratory"
              }
            ]
          }
        ],
        "code": {
          "coding": [
            {
              "code": "38483-4",
              "system": "http://loinc.org",
              "display": "Creatinine [Mass/volume] in Blood"
            }
          ],
          "text": "Creatinine [Mass/volume] in Blood"
        },
        "valueQuantity": {
          "system": "http://unitsofmeasure.org",
          "value": 0.9,
          "unit": "mg/dL",
          "code": "mg/dL"
        },
        "referenceRange": [
          {
            "low": {
              "value": 0.9,
              "code": "mg/dL",
              "system": "http://unitsofmeasure.org"
            }
          },
          {
            "high": {
              "value": 1.3,
              "code": "mg/dL",
              "system": "http://unitsofmeasure.org"
            }
          }
        ],
        "text": {
          "status": "generated",
          "div": "<div xmlns=\"http://www.w3.org/1999/xhtml\"><table class=\"hl7__eu__lab__report\"><tr><th>Test</th><th>24-Jan-2022</th><th>Reference&#xA0;Range</th><th>Unit</th></tr><tr><td>Creatinine [Mass/volume] in Blood</td><td>0.9</td><td>0.9 - 1.3</td><td></td><td>mg/dL</td></tr></table></div>"
        },
        "status": "final",
        "subject": {
          "reference": "urn:uuid:cc8a5368-9e44-453f-8a79-505ffb139e5c",
          "display": "Alessio Fanucci"
        },
        "effectiveDateTime": "2022-01-24T07:49:06Z",
        "specimen": {
          "reference": "urn:uuid:3c994513-93a2-4426-929a-28aec67c939c"
        }
      }
    },
    {
      "fullUrl": "urn:uuid:a491b9e4-61d7-4b48-81a6-f831e5e5494b",
      "resource": {
        "resourceType": "Observation",
        "id": "a491b9e4-61d7-4b48-81a6-f831e5e5494b",
        "meta": {
          "profile": [
            "http://hl7.eu/fhir/laboratory/StructureDefinition/Observation-resultslab-eu-lab"
          ]
        },
        "performer": [
          {
            "display": "The Central European Lab"
          }
        ],
        "category": [
          {
            "coding": [
              {
                "system": "http://terminology.hl7.org/CodeSystem/observation-category",
                "code": "laboratory"
              }
            ]
          }
        ],
        "code": {
          "coding": [
            {
              "code": "49765-1",
              "system": "http://loinc.org",
              "display": "Calcium [Mass/volume] in Blood"
            }
          ],
          "text": "Calcium [Mass/volume] in Blood"
        },
        "valueQuantity": {
          "system": "http://unitsofmeasure.org",
          "value": 9,
          "unit": "mg/dL",
          "code": "mg/dL"
        },
        "referenceRange": [
          {
            "low": {
              "value": 8.5,
              "code": "mg/dL",
              "system": "http://unitsofmeasure.org"
            }
          },
          {
            "high": {
              "value": 10.5,
              "code": "mg/dL",
              "system": "http://unitsofmeasure.org"
            }
          }
        ],
        "text": {
          "status": "generated",
          "div": "<div xmlns=\"http://www.w3.org/1999/xhtml\"><table class=\"hl7__eu__lab__report\"><tr><th>Test</th><th>24-Jan-2022</th><th>Reference&#xA0;Range</th><th>Unit</th></tr><tr><td>Calcium [Mass/volume] in Blood</td><td>9.0</td><td>8.5 - 10.5</td><td></td><td>mg/dL</td></tr></table></div>"
        },
        "status": "final",
        "subject": {
          "reference": "urn:uuid:cc8a5368-9e44-453f-8a79-505ffb139e5c",
          "display": "Alessio Fanucci"
        },
        "effectiveDateTime": "2022-01-24T07:49:06Z",
        "specimen": {
          "reference": "urn:uuid:3c994513-93a2-4426-929a-28aec67c939c"
        }
      }
    },
    {
      "fullUrl": "urn:uuid:3236a671-b0a8-4203-9744-b140a61875f9",
      "resource": {
        "resourceType": "Observation",
        "id": "3236a671-b0a8-4203-9744-b140a61875f9",
        "meta": {
          "profile": [
            "http://hl7.eu/fhir/laboratory/StructureDefinition/Observation-resultslab-eu-lab"
          ]
        },
        "performer": [
          {
            "display": "The Central European Lab"
          }
        ],
        "category": [
          {
            "coding": [
              {
                "system": "http://terminology.hl7.org/CodeSystem/observation-category",
                "code": "laboratory"
              }
            ]
          }
        ],
        "code": {
          "coding": [
            {
              "code": "2947-0",
              "system": "http://loinc.org",
              "display": "Sodium [Moles/volume] in Blood"
            }
          ],
          "text": "Sodium [Moles/volume] in Blood"
        },
        "valueQuantity": {
          "system": "http://unitsofmeasure.org",
          "value": 140.9,
          "unit": "mmol/L",
          "code": "mmol/L"
        },
        "referenceRange": [
          {
            "low": {
              "value": 135,
              "code": "mmol/L",
              "system": "http://unitsofmeasure.org"
            }
          },
          {
            "high": {
              "value": 145,
              "code": "mmol/L",
              "system": "http://unitsofmeasure.org"
            }
          }
        ],
        "text": {
          "status": "generated",
          "div": "<div xmlns=\"http://www.w3.org/1999/xhtml\"><table class=\"hl7__eu__lab__report\"><tr><th>Test</th><th>24-Jan-2022</th><th>Reference&#xA0;Range</th><th>Unit</th></tr><tr><td>Sodium [Moles/volume] in Blood</td><td>140.9</td><td>135 - 145</td><td></td><td>mmol/L</td></tr></table></div>"
        },
        "status": "final",
        "subject": {
          "reference": "urn:uuid:cc8a5368-9e44-453f-8a79-505ffb139e5c",
          "display": "Alessio Fanucci"
        },
        "effectiveDateTime": "2022-01-24T07:49:06Z",
        "specimen": {
          "reference": "urn:uuid:3c994513-93a2-4426-929a-28aec67c939c"
        }
      }
    },
    {
      "fullUrl": "urn:uuid:c98888b2-3adc-4306-9c2b-8c2ee98a558e",
      "resource": {
        "resourceType": "Observation",
        "id": "c98888b2-3adc-4306-9c2b-8c2ee98a558e",
        "meta": {
          "profile": [
            "http://hl7.eu/fhir/laboratory/StructureDefinition/Observation-resultslab-eu-lab"
          ]
        },
        "performer": [
          {
            "display": "The Central European Lab"
          }
        ],
        "category": [
          {
            "coding": [
              {
                "system": "http://terminology.hl7.org/CodeSystem/observation-category",
                "code": "laboratory"
              }
            ]
          }
        ],
        "code": {
          "coding": [
            {
              "code": "6298-4",
              "system": "http://loinc.org",
              "display": "Potassium [Moles/volume] in Blood"
            }
          ],
          "text": "Potassium [Moles/volume] in Blood"
        },
        "valueQuantity": {
          "system": "http://unitsofmeasure.org",
          "value": 5.1,
          "unit": "mmol/L",
          "code": "mmol/L"
        },
        "referenceRange": [
          {
            "low": {
              "value": 3.5,
              "code": "mmol/L",
              "system": "http://unitsofmeasure.org"
            }
          },
          {
            "high": {
              "value": 5,
              "code": "mmol/L",
              "system": "http://unitsofmeasure.org"
            }
          }
        ],
        "interpretation": [
          {
            "coding": [
              {
                "code": "H",
                "system": "http://terminology.hl7.org/CodeSystem/v3-ObservationInterpretation",
                "display": "High"
              }
            ]
          }
        ],
        "text": {
          "status": "generated",
          "div": "<div xmlns=\"http://www.w3.org/1999/xhtml\"><table class=\"hl7__eu__lab__report\"><tr><th>Test</th><th>24-Jan-2022</th><th>Reference&#xA0;Range</th><th>Unit</th></tr><tr><td>Potassium [Moles/volume] in Blood</td><td>5.1</td><td>3.5 - 5</td><td>H</td><td>mmol/L</td></tr></table></div>"
        },
        "status": "final",
        "subject": {
          "reference": "urn:uuid:cc8a5368-9e44-453f-8a79-505ffb139e5c",
          "display": "Alessio Fanucci"
        },
        "effectiveDateTime": "2022-01-24T07:49:06Z",
        "specimen": {
          "reference": "urn:uuid:3c994513-93a2-4426-929a-28aec67c939c"
        }
      }
    },
    {
      "fullUrl": "urn:uuid:2b690466-9617-4d12-995c-f0f24809cb3c",
      "resource": {
        "resourceType": "Observation",
        "id": "2b690466-9617-4d12-995c-f0f24809cb3c",
        "meta": {
          "profile": [
            "http://hl7.eu/fhir/laboratory/StructureDefinition/Observation-resultslab-eu-lab"
          ]
        },
        "performer": [
          {
            "display": "The Central European Lab"
          }
        ],
        "category": [
          {
            "coding": [
              {
                "system": "http://terminology.hl7.org/CodeSystem/observation-category",
                "code": "laboratory"
              }
            ]
          }
        ],
        "code": {
          "coding": [
            {
              "code": "2069-3",
              "system": "http://loinc.org",
              "display": "Chloride [Moles/volume] in Blood"
            }
          ],
          "text": "Chloride [Moles/volume] in Blood"
        },
        "valueQuantity": {
          "system": "http://unitsofmeasure.org",
          "value": 107.7,
          "unit": "mmol/L",
          "code": "mmol/L"
        },
        "referenceRange": [
          {
            "low": {
              "value": 98,
              "code": "mmol/L",
              "system": "http://unitsofmeasure.org"
            }
          },
          {
            "high": {
              "value": 110,
              "code": "mmol/L",
              "system": "http://unitsofmeasure.org"
            }
          }
        ],
        "text": {
          "status": "generated",
          "div": "<div xmlns=\"http://www.w3.org/1999/xhtml\"><table class=\"hl7__eu__lab__report\"><tr><th>Test</th><th>24-Jan-2022</th><th>Reference&#xA0;Range</th><th>Unit</th></tr><tr><td>Chloride [Moles/volume] in Blood</td><td>107.7</td><td>98 - 110</td><td></td><td>mmol/L</td></tr></table></div>"
        },
        "status": "final",
        "subject": {
          "reference": "urn:uuid:cc8a5368-9e44-453f-8a79-505ffb139e5c",
          "display": "Alessio Fanucci"
        },
        "effectiveDateTime": "2022-01-24T07:49:06Z",
        "specimen": {
          "reference": "urn:uuid:3c994513-93a2-4426-929a-28aec67c939c"
        }
      }
    },
    {
      "fullUrl": "urn:uuid:2a30428f-5ac8-4010-b776-fc87a0cf1a34",
      "resource": {
        "resourceType": "Observation",
        "id": "2a30428f-5ac8-4010-b776-fc87a0cf1a34",
        "meta": {
          "profile": [
            "http://hl7.eu/fhir/laboratory/StructureDefinition/Observation-resultslab-eu-lab"
          ]
        },
        "performer": [
          {
            "display": "The Central European Lab"
          }
        ],
        "category": [
          {
            "coding": [
              {
                "system": "http://terminology.hl7.org/CodeSystem/observation-category",
                "code": "laboratory"
              }
            ]
          }
        ],
        "code": {
          "coding": [
            {
              "code": "20565-8",
              "system": "http://loinc.org",
              "display": "Carbon dioxide, total [Moles/volume] in Blood"
            }
          ],
          "text": "Carbon dioxide, total [Moles/volume] in Blood"
        },
        "valueQuantity": {
          "system": "http://unitsofmeasure.org",
          "value": 22.1,
          "unit": "mmol/L",
          "code": "mmol/L"
        },
        "referenceRange": [
          {
            "low": {
              "value": 22,
              "code": "mmol/L",
              "system": "http://unitsofmeasure.org"
            }
          },
          {
            "high": {
              "value": 32,
              "code": "mmol/L",
              "system": "http://unitsofmeasure.org"
            }
          }
        ],
        "text": {
          "status": "generated",
          "div": "<div xmlns=\"http://www.w3.org/1999/xhtml\"><table class=\"hl7__eu__lab__report\"><tr><th>Test</th><th>24-Jan-2022</th><th>Reference&#xA0;Range</th><th>Unit</th></tr><tr><td>Carbon dioxide, total [Moles/volume] in Blood</td><td>22.1</td><td>22 - 32</td><td></td><td>mmol/L</td></tr></table></div>"
        },
        "status": "final",
        "subject": {
          "reference": "urn:uuid:cc8a5368-9e44-453f-8a79-505ffb139e5c",
          "display": "Alessio Fanucci"
        },
        "effectiveDateTime": "2022-01-24T07:49:06Z",
        "specimen": {
          "reference": "urn:uuid:3c994513-93a2-4426-929a-28aec67c939c"
        }
      }
    },
    {
      "fullUrl": "urn:uuid:46b6e21f-5df9-43ff-8526-b226dac3d408",
      "resource": {
        "resourceType": "Device",
        "id": "46b6e21f-5df9-43ff-8526-b226dac3d408",
        "deviceName": [
          {
            "name": "SYNDERAI Synthetic Generator",
            "type": "manufacturer-name"
          }
        ],
        "version": [
          {
            "value": "5.0"
          }
        ],
        "text": {
          "status": "generated",
          "div": "<div xmlns=\"http://www.w3.org/1999/xhtml\">SYNDERAI Synthetic Generator v5.0</div>"
        },
        "status": "active\"",
        "distinctIdentifier": "synderai-generator-50",
        "manufacturer": "SYNDERAI Project"
      }
    },
    {
      "fullUrl": "urn:uuid:c153d1ff-38ac-49dd-ac02-ccd9a83107f6",
      "resource": {
        "resourceType": "Provenance",
        "id": "c153d1ff-38ac-49dd-ac02-ccd9a83107f6",
        "target": [
          {
            "reference": "Patient/cc8a5368-9e44-453f-8a79-505ffb139e5c"
          },
          {
            "reference": "Bundle/d30e86ca-1986-4325-8b6c-2b7153143278"
          },
          {
            "reference": "Composition/bbbbd794-351d-47b6-bd02-2ad7e8043e66"
          },
          {
            "reference": "PractitionerRole/61a0b942-dec4-4640-b7f8-8f110a78cb78"
          },
          {
            "reference": "Practitioner/7d843804-b26e-4d77-9390-464d78d6559d"
          },
          {
            "reference": "PractitionerRole/fe098a77-26c5-4d42-a4a7-f90109fb6326"
          },
          {
            "reference": "Organization/1d388819-b99e-4ddd-bb1f-fb1a761576e9"
          }
        ],
        "activity": {
          "text": "Synthetic Example Data Generation"
        },
        "policy": [
          "https://synderai.net/synderai-synthetic-data-policy"
        ],
        "agent": [
          {
            "type": {
              "text": "author"
            },
            "who": {
              "reference": "Device/46b6e21f-5df9-43ff-8526-b226dac3d408"
            }
          }
        ],
        "reason": [
          {
            "text": "Interoperability Testing and Training (non-clinical use)"
          }
        ],
        "text": {
          "status": "generated",
          "div": "<div xmlns=\"http://www.w3.org/1999/xhtml\">Provenance for SYNDERAI Synthetic Example Data Resource</div>"
        },
        "recorded": "2022-01-24T08:49:06Z"
      }
    },
    {
      "fullUrl": "urn:uuid:61a0b942-dec4-4640-b7f8-8f110a78cb78",
      "resource": {
        "resourceType": "PractitionerRole",
        "id": "61a0b942-dec4-4640-b7f8-8f110a78cb78",
        "meta": {
          "profile": [
            "http://hl7.eu/fhir/base/StructureDefinition/practitionerRole-eu"
          ]
        },
        "text": {
          "status": "generated",
          "div": "<div xmlns=\"http://www.w3.org/1999/xhtml\">Laboratory Role Id: 61a0b942-dec4-4640-b7f8-8f110a78cb78</div>"
        },
        "practitioner": {
          "reference": "urn:uuid:7d843804-b26e-4d77-9390-464d78d6559d"
        }
      }
    },
    {
      "fullUrl": "urn:uuid:7d843804-b26e-4d77-9390-464d78d6559d",
      "resource": {
        "resourceType": "Practitioner",
        "id": "7d843804-b26e-4d77-9390-464d78d6559d",
        "meta": {
          "profile": [
            "http://hl7.eu/fhir/base/StructureDefinition/practitioner-eu"
          ]
        },
        "identifier": [
          {
            "assigner": {
              "display": "HL7 Europe"
            },
            "system": "urn:oid:2.16.840.1.113883.2.51.999",
            "value": "ed2ffa7e-a43b-4593-9380-ef20505ebb46"
          }
        ],
        "name": [
          {
            "prefix": [
              "dr"
            ],
            "given": [
              "Ex"
            ],
            "family": "Ample"
          }
        ],
        "address": [
          {
            "line": [
              "Laboratoire Central Européenne",
              "Boulevard du Jardin Botanique 32"
            ],
            "postalCode": "1000",
            "city": "Brussels",
            "country": "Belgium"
          }
        ],
        "text": {
          "status": "generated",
          "div": "<div xmlns=\"http://www.w3.org/1999/xhtml\">Laboratory: Laboratoire Central Européenne, 1000 Brussels, Belgium</div>"
        }
      }
    }
  ],
  "type": "document",
  "timestamp": "2022-01-24T08:49:06Z"
}
