{
  "resourceType": "Bundle",
  "id": "bdac30ca-3ac9-4f88-bf13-814b9a4275cc",
  "meta": {
    "profile": [
      "http://hl7.eu/fhir/laboratory/StructureDefinition/Bundle-eu-lab"
    ]
  },
  "identifier": {
    "assigner": {
      "display": "HL7 Europe"
    },
    "system": "urn:oid:2.16.840.1.113883.2.51.999",
    "value": "d922cb13-53c4-4ec4-93c2-dbe17f142253"
  },
  "entry": [
    {
      "fullUrl": "urn:uuid:1cad58b3-1b2a-41d5-9a8e-be86b6660e3f",
      "resource": {
        "resourceType": "Composition",
        "id": "1cad58b3-1b2a-41d5-9a8e-be86b6660e3f",
        "meta": {
          "profile": [
            "http://hl7.eu/fhir/laboratory/StructureDefinition/Composition-eu-lab"
          ]
        },
        "identifier": {
          "assigner": {
            "display": "HL7 Europe"
          },
          "system": "urn:oid:2.16.840.1.113883.2.51.999",
          "value": "fe327562-80ec-49ab-bfc4-179ed5bd20b3"
        },
        "author": [
          {
            "reference": "urn:uuid:fe0b3ffb-6818-4fb0-a700-bddd03d41d12"
          }
        ],
        "category": [
          {
            "coding": [
              {
                "code": "26436-6",
                "system": "http://loinc.org",
                "display": "Laboratory studies (set)"
              }
            ]
          }
        ],
        "type": {
          "coding": [
            {
              "code": "11502-2",
              "system": "http://loinc.org",
              "display": "Laboratory report"
            }
          ],
          "text": "Laboratory Report"
        },
        "section": [
          {
            "code": {
              "coding": [
                {
                  "code": "26436-6",
                  "system": "http://loinc.org",
                  "display": "Laboratory studies (set)"
                }
              ],
              "text": "Laboratory studies"
            },
            "section": [
              {
                "code": {
                  "coding": [
                    {
                      "code": "$18719-5",
                      "system": "http://loinc.org",
                      "display": "Chemistry studies (set)"
                    }
                  ],
                  "text": "Chemistry"
                },
                "entry": [
                  {
                    "reference": "urn:uuid:893e7a56-1f34-4f3f-aa11-959998b5e56c"
                  },
                  {
                    "reference": "urn:uuid:2e0dc1a1-daa8-4907-8c09-d70d9a72554d"
                  },
                  {
                    "reference": "urn:uuid:71f5af11-7f44-448a-b3ad-03032b314c33"
                  },
                  {
                    "reference": "urn:uuid:6e29b0f0-bb5e-4e1b-b312-7c59e7fa0665"
                  }
                ],
                "text": {
                  "status": "generated",
                  "div": "<div xmlns=\"http://www.w3.org/1999/xhtml\"><h3>Chemistry</h3><table class=\"hl7__eu__lab__report\"><thead><tr><th>Test</th><th>15-DEC-2019</th><th>Reference&#xA0;Range</th><th>Unit</th></tr></thead><tbody><tr><td>Cholesterol [Mass/volume] in Serum or Plasma</td><td>113.5</td><td>0 - 200</td><td>mg/dL</td></tr><tr><td>Triglyceride [Mass/volume] in Serum or Plasma</td><td>100.0</td><td>0 - 199</td><td>mg/dL</td></tr><tr><td>Cholesterol in LDL [Mass/volume] in Serum or Plasma by Direct assay</td><td>40.5</td><td>0 - 130</td><td>mg/dL</td></tr><tr><td>Cholesterol in HDL [Mass/volume] in Serum or Plasma</td><td>53.0</td><td>40 - 100</td><td>mg/dL</td></tr></tbody></table></div>"
                },
                "title": "Chemistry"
              }
            ],
            "title": "Laboratory Report"
          },
          {
            "text": {
              "status": "generated",
              "div": "<div xmlns=\"http://www.w3.org/1999/xhtml\"><h3>Annotation</h3><table class=\"hl7__eu__lab__report\"><tr><th>Conclusion and Recommendations based on this report and previous findings known to us</th></tr><tr><td>All lipid parameters (total cholesterol, triglycerides, LDL, HDL) are within normal limits. No laboratory evidence of dyslipidemia at this time. No further action required from a laboratory perspective.</td></tr></table></div>"
            },
            "code": {
              "coding": [
                {
                  "system": "http://loinc.org",
                  "code": "48767-8",
                  "display": "Annotation comment"
                }
              ]
            },
            "title": "Annotation comment"
          }
        ],
        "status": "final",
        "subject": {
          "reference": "urn:uuid:748dfc35-ab98-4543-8d3c-6ae02f886c15",
          "display": "Gastone Farnese"
        },
        "date": "2019-12-15T00:10:08Z",
        "title": "Laboratory Report",
        "confidentiality": "N"
      }
    },
    {
      "fullUrl": "urn:uuid:f1856a2f-d60d-4f71-a87a-7e6b1a62c995",
      "resource": {
        "resourceType": "DiagnosticReport",
        "id": "f1856a2f-d60d-4f71-a87a-7e6b1a62c995",
        "meta": {
          "profile": [
            "http://hl7.eu/fhir/laboratory/StructureDefinition/DiagnosticReport-eu-lab"
          ]
        },
        "identifier": [
          {
            "assigner": {
              "display": "HL7 Europe"
            },
            "system": "urn:oid:2.16.840.1.113883.2.51.999",
            "value": "106a78f2-1c18-4525-a1ca-d2b29be6966d"
          }
        ],
        "extension": [
          {
            "url": "http://hl7.org/fhir/5.0/StructureDefinition/extension-DiagnosticReport.composition",
            "valueReference": {
              "reference": "urn:uuid:fe327562-80ec-49ab-bfc4-179ed5bd20b3"
            }
          }
        ],
        "category": [
          {
            "coding": [
              {
                "code": "26436-6",
                "system": "http://loinc.org",
                "display": "Laboratory studies (set)"
              }
            ]
          }
        ],
        "specimen": [
          {
            "reference": "urn:uuid:974b8f5c-c3d9-47ce-bb09-3011cafc6ffa"
          }
        ],
        "result": [
          {
            "reference": "urn:uuid:893e7a56-1f34-4f3f-aa11-959998b5e56c"
          },
          {
            "reference": "urn:uuid:2e0dc1a1-daa8-4907-8c09-d70d9a72554d"
          },
          {
            "reference": "urn:uuid:71f5af11-7f44-448a-b3ad-03032b314c33"
          },
          {
            "reference": "urn:uuid:6e29b0f0-bb5e-4e1b-b312-7c59e7fa0665"
          }
        ],
        "status": "registered",
        "code": {
          "coding": [
            {
              "code": "11502-2",
              "system": "http://loinc.org",
              "display": "Laboratory report"
            }
          ]
        },
        "subject": {
          "reference": "urn:uuid:748dfc35-ab98-4543-8d3c-6ae02f886c15",
          "display": "Gastone Farnese"
        }
      }
    },
    {
      "fullUrl": "urn:uuid:748dfc35-ab98-4543-8d3c-6ae02f886c15",
      "resource": {
        "resourceType": "Patient",
        "id": "748dfc35-ab98-4543-8d3c-6ae02f886c15",
        "meta": {
          "security": [
            {
              "system": "http://terminology.hl7.org/CodeSystem/v3-ActReason",
              "code": "HTEST"
            },
            {
              "system": "http://terminology.hl7.org/CodeSystem/v3-ActReason",
              "code": "TRAIN"
            }
          ],
          "tag": [
            {
              "system": "https://synderai.net/fhir/CodeSystem/tags",
              "code": "synthetic",
              "display": "SYNDERAI Synthetic data"
            }
          ],
          "profile": [
            "http://hl7.eu/fhir/base/StructureDefinition/patient-eu-core"
          ]
        },
        "identifier": [
          {
            "type": {
              "coding": [
                {
                  "code": "PT",
                  "system": "http://terminology.hl7.org/CodeSystem/v2-0203"
                }
              ]
            },
            "system": "http://ec.europa.eu/identifier/eci",
            "value": "9783-008691-0"
          },
          {
            "type": {
              "coding": [
                {
                  "code": "MR",
                  "system": "http://terminology.hl7.org/CodeSystem/v2-0203"
                }
              ]
            },
            "system": "http://local.setting.eu/identifier",
            "value": "3a83b0c2-9162-b4ed-57ec-07c0d12b05d8"
          }
        ],
        "name": [
          {
            "family": "Farnese"
          },
          {
            "given": [
              "Gastone"
            ]
          },
          {
            "text": "Gastone Farnese"
          }
        ],
        "address": [
          {
            "line": [
              "Rotonda Verdone, 9 Appartamento 6"
            ],
            "use": "home",
            "type": "physical",
            "postalCode": "35030",
            "city": "Galzignano Terme",
            "country": "Italy"
          }
        ],
        "telecom": [
          {
            "system": "phone",
            "value": "+39 350079040"
          }
        ],
        "extension": [
          {
            "url": "http://hl7.org/fhir/StructureDefinition/patient-nationality",
            "valueCodeableConcept": {
              "coding": [
                {
                  "code": "IT",
                  "system": "http://hl7.org/fhir/ValueSet/country"
                }
              ]
            }
          }
        ],
        "text": {
          "status": "generated",
          "div": "<div xmlns=\"http://www.w3.org/1999/xhtml\"><table class=\"hl7__ips\"><tr><td>Gastone Farnese</td><td>male</td><td>16-Apr-1939</td></tr></table></div>"
        },
        "gender": "male",
        "birthDate": "1939-04-16"
      }
    },
    {
      "fullUrl": "urn:uuid:d0181ee4-fa40-42dc-8ad3-7067db0ff885",
      "resource": {
        "resourceType": "ServiceRequest",
        "id": "d0181ee4-fa40-42dc-8ad3-7067db0ff885",
        "meta": {
          "profile": [
            "http://hl7.eu/fhir/laboratory/StructureDefinition/ServiceRequest-eu-lab"
          ]
        },
        "identifier": [
          {
            "system": "http://example.org",
            "value": "c6418f53-85a7-4cd2-a4d0-329277a1d651"
          }
        ],
        "specimen": [
          {
            "reference": "urn:uuid:974b8f5c-c3d9-47ce-bb09-3011cafc6ffa"
          }
        ],
        "reasonCode": [
          {
            "coding": [
              {
                "code": "414545008",
                "system": "http://snomed.info/sct",
                "display": "Ischemic heart disease"
              }
            ]
          }
        ],
        "status": "active",
        "intent": "order",
        "code": {
          "coding": [
            {
              "code": "108252007",
              "system": "http://snomed.info/sct",
              "display": "Laboratory procedure"
            }
          ]
        },
        "subject": {
          "reference": "urn:uuid:748dfc35-ab98-4543-8d3c-6ae02f886c15",
          "display": "Gastone Farnese"
        },
        "requester": {
          "reference": "urn:uuid:26846c98-e68e-48e4-897b-0ff9e0474149"
        }
      }
    },
    {
      "fullUrl": "urn:uuid:26846c98-e68e-48e4-897b-0ff9e0474149",
      "resource": {
        "resourceType": "PractitionerRole",
        "id": "26846c98-e68e-48e4-897b-0ff9e0474149",
        "meta": {
          "profile": [
            "http://hl7.eu/fhir/base/StructureDefinition/practitionerRole-eu"
          ]
        },
        "text": {
          "status": "generated",
          "div": "<div xmlns=\"http://www.w3.org/1999/xhtml\">Provider Role Id: 26846c98-e68e-48e4-897b-0ff9e0474149</div>"
        },
        "organization": {
          "reference": "urn:uuid:71049b11-6fb1-449a-83e5-7ecd27b25236"
        }
      }
    },
    {
      "fullUrl": "urn:uuid:71049b11-6fb1-449a-83e5-7ecd27b25236",
      "resource": {
        "resourceType": "Organization",
        "id": "71049b11-6fb1-449a-83e5-7ecd27b25236",
        "meta": {
          "profile": [
            "http://hl7.eu/fhir/base/StructureDefinition/organization-eu"
          ]
        },
        "identifier": [
          {
            "assigner": {
              "display": "HL7 Europe"
            },
            "system": "urn:oid:2.16.840.1.113883.2.51.999",
            "value": "48cc5560-efd3-449d-a79a-5dda0fb1997c"
          }
        ],
        "address": [
          {
            "line": [
              "Via Albere nan"
            ],
            "city": "Este",
            "postalCode": "35042",
            "country": "Italy"
          }
        ],
        "text": {
          "status": "generated",
          "div": "<div xmlns=\"http://www.w3.org/1999/xhtml\">Provider Organization: Ospedali Riuniti Padova Sud &quot;Madre Teresa di Calcutta&quot;</div>"
        },
        "name": "Ospedali Riuniti Padova Sud &quot;Madre Teresa di Calcutta&quot;"
      }
    },
    {
      "fullUrl": "urn:uuid:974b8f5c-c3d9-47ce-bb09-3011cafc6ffa",
      "resource": {
        "resourceType": "Specimen",
        "id": "974b8f5c-c3d9-47ce-bb09-3011cafc6ffa",
        "meta": {
          "profile": [
            "http://hl7.eu/fhir/laboratory/StructureDefinition/Specimen-eu-lab"
          ]
        },
        "collection": {
          "collectedDateTime": "2019-12-14"
        },
        "text": {
          "status": "generated",
          "div": "<div xmlns=\"http://www.w3.org/1999/xhtml\"><table class=\"hl7__eu__lab__report\"><tr><th>Specimen</th><th>Collection Date</th></tr><tr><td>Acellular blood (serum or plasma) specimen</td><td><span class=\"nb\">14-Dec-2019</span></td></tr></table></div>"
        },
        "type": {
          "coding": [
            {
              "code": "122592007",
              "system": "http://snomed.info/sct",
              "display": "Acellular blood (serum or plasma) specimen"
            }
          ]
        }
      }
    },
    {
      "fullUrl": "urn:uuid:893e7a56-1f34-4f3f-aa11-959998b5e56c",
      "resource": {
        "resourceType": "Observation",
        "id": "893e7a56-1f34-4f3f-aa11-959998b5e56c",
        "meta": {
          "profile": [
            "http://hl7.eu/fhir/laboratory/StructureDefinition/Observation-resultslab-eu-lab"
          ]
        },
        "performer": [
          {
            "display": "The Central European Lab"
          }
        ],
        "category": [
          {
            "coding": [
              {
                "system": "http://terminology.hl7.org/CodeSystem/observation-category",
                "code": "laboratory"
              }
            ]
          }
        ],
        "code": {
          "coding": [
            {
              "code": "2093-3",
              "system": "http://loinc.org",
              "display": "Cholesterol [Mass/volume] in Serum or Plasma"
            }
          ],
          "text": "Cholesterol [Mass/volume] in Serum or Plasma"
        },
        "valueQuantity": {
          "system": "http://unitsofmeasure.org",
          "value": 113.5,
          "unit": "mg/dL",
          "code": "mg/dL"
        },
        "referenceRange": [
          {
            "low": {
              "value": 0,
              "code": "mg/dL",
              "system": "http://unitsofmeasure.org"
            }
          },
          {
            "high": {
              "value": 200,
              "code": "mg/dL",
              "system": "http://unitsofmeasure.org"
            }
          }
        ],
        "text": {
          "status": "generated",
          "div": "<div xmlns=\"http://www.w3.org/1999/xhtml\"><table class=\"hl7__eu__lab__report\"><tr><th>Test</th><th>15-Dec-2019</th><th>Reference&#xA0;Range</th><th>Unit</th></tr><tr><td>Cholesterol [Mass/volume] in Serum or Plasma</td><td>113.5</td><td>0 - 200</td><td></td><td>mg/dL</td></tr></table></div>"
        },
        "status": "final",
        "subject": {
          "reference": "urn:uuid:748dfc35-ab98-4543-8d3c-6ae02f886c15",
          "display": "Gastone Farnese"
        },
        "effectiveDateTime": "2019-12-14T23:10:08Z",
        "specimen": {
          "reference": "urn:uuid:974b8f5c-c3d9-47ce-bb09-3011cafc6ffa"
        }
      }
    },
    {
      "fullUrl": "urn:uuid:2e0dc1a1-daa8-4907-8c09-d70d9a72554d",
      "resource": {
        "resourceType": "Observation",
        "id": "2e0dc1a1-daa8-4907-8c09-d70d9a72554d",
        "meta": {
          "profile": [
            "http://hl7.eu/fhir/laboratory/StructureDefinition/Observation-resultslab-eu-lab"
          ]
        },
        "performer": [
          {
            "display": "The Central European Lab"
          }
        ],
        "category": [
          {
            "coding": [
              {
                "system": "http://terminology.hl7.org/CodeSystem/observation-category",
                "code": "laboratory"
              }
            ]
          }
        ],
        "code": {
          "coding": [
            {
              "code": "2571-8",
              "system": "http://loinc.org",
              "display": "Triglyceride [Mass/volume] in Serum or Plasma"
            }
          ],
          "text": "Triglyceride [Mass/volume] in Serum or Plasma"
        },
        "valueQuantity": {
          "system": "http://unitsofmeasure.org",
          "value": 100,
          "unit": "mg/dL",
          "code": "mg/dL"
        },
        "referenceRange": [
          {
            "low": {
              "value": 0,
              "code": "mg/dL",
              "system": "http://unitsofmeasure.org"
            }
          },
          {
            "high": {
              "value": 199,
              "code": "mg/dL",
              "system": "http://unitsofmeasure.org"
            }
          }
        ],
        "text": {
          "status": "generated",
          "div": "<div xmlns=\"http://www.w3.org/1999/xhtml\"><table class=\"hl7__eu__lab__report\"><tr><th>Test</th><th>15-Dec-2019</th><th>Reference&#xA0;Range</th><th>Unit</th></tr><tr><td>Triglyceride [Mass/volume] in Serum or Plasma</td><td>100.0</td><td>0 - 199</td><td></td><td>mg/dL</td></tr></table></div>"
        },
        "status": "final",
        "subject": {
          "reference": "urn:uuid:748dfc35-ab98-4543-8d3c-6ae02f886c15",
          "display": "Gastone Farnese"
        },
        "effectiveDateTime": "2019-12-14T23:10:08Z",
        "specimen": {
          "reference": "urn:uuid:974b8f5c-c3d9-47ce-bb09-3011cafc6ffa"
        }
      }
    },
    {
      "fullUrl": "urn:uuid:71f5af11-7f44-448a-b3ad-03032b314c33",
      "resource": {
        "resourceType": "Observation",
        "id": "71f5af11-7f44-448a-b3ad-03032b314c33",
        "meta": {
          "profile": [
            "http://hl7.eu/fhir/laboratory/StructureDefinition/Observation-resultslab-eu-lab"
          ]
        },
        "performer": [
          {
            "display": "The Central European Lab"
          }
        ],
        "category": [
          {
            "coding": [
              {
                "system": "http://terminology.hl7.org/CodeSystem/observation-category",
                "code": "laboratory"
              }
            ]
          }
        ],
        "code": {
          "coding": [
            {
              "code": "18262-6",
              "system": "http://loinc.org",
              "display": "Cholesterol in LDL [Mass/volume] in Serum or Plasma by Direct assay"
            }
          ],
          "text": "Cholesterol in LDL [Mass/volume] in Serum or Plasma by Direct assay"
        },
        "valueQuantity": {
          "system": "http://unitsofmeasure.org",
          "value": 40.5,
          "unit": "mg/dL",
          "code": "mg/dL"
        },
        "referenceRange": [
          {
            "low": {
              "value": 0,
              "code": "mg/dL",
              "system": "http://unitsofmeasure.org"
            }
          },
          {
            "high": {
              "value": 130,
              "code": "mg/dL",
              "system": "http://unitsofmeasure.org"
            }
          }
        ],
        "text": {
          "status": "generated",
          "div": "<div xmlns=\"http://www.w3.org/1999/xhtml\"><table class=\"hl7__eu__lab__report\"><tr><th>Test</th><th>15-Dec-2019</th><th>Reference&#xA0;Range</th><th>Unit</th></tr><tr><td>Cholesterol in LDL [Mass/volume] in Serum or Plasma by Direct assay</td><td>40.5</td><td>0 - 130</td><td></td><td>mg/dL</td></tr></table></div>"
        },
        "status": "final",
        "subject": {
          "reference": "urn:uuid:748dfc35-ab98-4543-8d3c-6ae02f886c15",
          "display": "Gastone Farnese"
        },
        "effectiveDateTime": "2019-12-14T23:10:08Z",
        "specimen": {
          "reference": "urn:uuid:974b8f5c-c3d9-47ce-bb09-3011cafc6ffa"
        }
      }
    },
    {
      "fullUrl": "urn:uuid:6e29b0f0-bb5e-4e1b-b312-7c59e7fa0665",
      "resource": {
        "resourceType": "Observation",
        "id": "6e29b0f0-bb5e-4e1b-b312-7c59e7fa0665",
        "meta": {
          "profile": [
            "http://hl7.eu/fhir/laboratory/StructureDefinition/Observation-resultslab-eu-lab"
          ]
        },
        "performer": [
          {
            "display": "The Central European Lab"
          }
        ],
        "category": [
          {
            "coding": [
              {
                "system": "http://terminology.hl7.org/CodeSystem/observation-category",
                "code": "laboratory"
              }
            ]
          }
        ],
        "code": {
          "coding": [
            {
              "code": "2085-9",
              "system": "http://loinc.org",
              "display": "Cholesterol in HDL [Mass/volume] in Serum or Plasma"
            }
          ],
          "text": "Cholesterol in HDL [Mass/volume] in Serum or Plasma"
        },
        "valueQuantity": {
          "system": "http://unitsofmeasure.org",
          "value": 53,
          "unit": "mg/dL",
          "code": "mg/dL"
        },
        "referenceRange": [
          {
            "low": {
              "value": 40,
              "code": "mg/dL",
              "system": "http://unitsofmeasure.org"
            }
          },
          {
            "high": {
              "value": 100,
              "code": "mg/dL",
              "system": "http://unitsofmeasure.org"
            }
          }
        ],
        "text": {
          "status": "generated",
          "div": "<div xmlns=\"http://www.w3.org/1999/xhtml\"><table class=\"hl7__eu__lab__report\"><tr><th>Test</th><th>15-Dec-2019</th><th>Reference&#xA0;Range</th><th>Unit</th></tr><tr><td>Cholesterol in HDL [Mass/volume] in Serum or Plasma</td><td>53.0</td><td>40 - 100</td><td></td><td>mg/dL</td></tr></table></div>"
        },
        "status": "final",
        "subject": {
          "reference": "urn:uuid:748dfc35-ab98-4543-8d3c-6ae02f886c15",
          "display": "Gastone Farnese"
        },
        "effectiveDateTime": "2019-12-14T23:10:08Z",
        "specimen": {
          "reference": "urn:uuid:974b8f5c-c3d9-47ce-bb09-3011cafc6ffa"
        }
      }
    },
    {
      "fullUrl": "urn:uuid:57907389-509d-460c-94a4-d54ceafd4509",
      "resource": {
        "resourceType": "Device",
        "id": "57907389-509d-460c-94a4-d54ceafd4509",
        "deviceName": [
          {
            "name": "SYNDERAI Synthetic Generator",
            "type": "manufacturer-name"
          }
        ],
        "version": [
          {
            "value": "5.0"
          }
        ],
        "text": {
          "status": "generated",
          "div": "<div xmlns=\"http://www.w3.org/1999/xhtml\">SYNDERAI Synthetic Generator v5.0</div>"
        },
        "status": "active\"",
        "distinctIdentifier": "synderai-generator-50",
        "manufacturer": "SYNDERAI Project"
      }
    },
    {
      "fullUrl": "urn:uuid:5c657b26-4c79-4f2d-a57b-6cbcd868dfd4",
      "resource": {
        "resourceType": "Provenance",
        "id": "5c657b26-4c79-4f2d-a57b-6cbcd868dfd4",
        "target": [
          {
            "reference": "Patient/748dfc35-ab98-4543-8d3c-6ae02f886c15"
          },
          {
            "reference": "Bundle/bdac30ca-3ac9-4f88-bf13-814b9a4275cc"
          },
          {
            "reference": "Composition/1cad58b3-1b2a-41d5-9a8e-be86b6660e3f"
          },
          {
            "reference": "PractitionerRole/fe0b3ffb-6818-4fb0-a700-bddd03d41d12"
          },
          {
            "reference": "Practitioner/0e443cb4-dff0-4678-b0b1-9c26866e847c"
          },
          {
            "reference": "PractitionerRole/26846c98-e68e-48e4-897b-0ff9e0474149"
          },
          {
            "reference": "Organization/71049b11-6fb1-449a-83e5-7ecd27b25236"
          }
        ],
        "activity": {
          "text": "Synthetic Example Data Generation"
        },
        "policy": [
          "https://synderai.net/synderai-synthetic-data-policy"
        ],
        "agent": [
          {
            "type": {
              "text": "author"
            },
            "who": {
              "reference": "Device/57907389-509d-460c-94a4-d54ceafd4509"
            }
          }
        ],
        "reason": [
          {
            "text": "Interoperability Testing and Training (non-clinical use)"
          }
        ],
        "text": {
          "status": "generated",
          "div": "<div xmlns=\"http://www.w3.org/1999/xhtml\">Provenance for SYNDERAI Synthetic Example Data Resource</div>"
        },
        "recorded": "2019-12-15T00:10:08Z"
      }
    },
    {
      "fullUrl": "urn:uuid:fe0b3ffb-6818-4fb0-a700-bddd03d41d12",
      "resource": {
        "resourceType": "PractitionerRole",
        "id": "fe0b3ffb-6818-4fb0-a700-bddd03d41d12",
        "meta": {
          "profile": [
            "http://hl7.eu/fhir/base/StructureDefinition/practitionerRole-eu"
          ]
        },
        "text": {
          "status": "generated",
          "div": "<div xmlns=\"http://www.w3.org/1999/xhtml\">Laboratory Role Id: fe0b3ffb-6818-4fb0-a700-bddd03d41d12</div>"
        },
        "practitioner": {
          "reference": "urn:uuid:0e443cb4-dff0-4678-b0b1-9c26866e847c"
        }
      }
    },
    {
      "fullUrl": "urn:uuid:0e443cb4-dff0-4678-b0b1-9c26866e847c",
      "resource": {
        "resourceType": "Practitioner",
        "id": "0e443cb4-dff0-4678-b0b1-9c26866e847c",
        "meta": {
          "profile": [
            "http://hl7.eu/fhir/base/StructureDefinition/practitioner-eu"
          ]
        },
        "identifier": [
          {
            "assigner": {
              "display": "HL7 Europe"
            },
            "system": "urn:oid:2.16.840.1.113883.2.51.999",
            "value": "91bf14a5-7c63-48bb-ae41-d4ea341a06e9"
          }
        ],
        "name": [
          {
            "prefix": [
              "dr"
            ],
            "given": [
              "Ex"
            ],
            "family": "Ample"
          }
        ],
        "address": [
          {
            "line": [
              "Laboratoire Central Européenne",
              "Boulevard du Jardin Botanique 32"
            ],
            "postalCode": "1000",
            "city": "Brussels",
            "country": "Belgium"
          }
        ],
        "text": {
          "status": "generated",
          "div": "<div xmlns=\"http://www.w3.org/1999/xhtml\">Laboratory: Laboratoire Central Européenne, 1000 Brussels, Belgium</div>"
        }
      }
    }
  ],
  "type": "document",
  "timestamp": "2019-12-15T00:10:08Z"
}
