<Bundle xmlns="http://hl7.org/fhir">
   <id value="0f16c35a-fab2-4ad0-b293-bb64878ac3b6"/>
   <meta>
      <profile value="http://hl7.eu/fhir/laboratory/StructureDefinition/Bundle-eu-lab"/>
   </meta>
   <identifier>
      <system value="urn:oid:2.16.840.1.113883.2.51.999"/>
      <value value="d4788d6f-2363-4017-a162-7db8f71b0952"/>
      <assigner>
         <display value="HL7 Europe"/>
      </assigner>
   </identifier>
   <type value="document"/>
   <timestamp value="2023-11-22T04:51:38Z"/>
   <entry>
      <fullUrl value="urn:uuid:302d0697-d428-4269-af87-42f559ab03d6"/>
      <resource>
         <Composition>
            <id value="302d0697-d428-4269-af87-42f559ab03d6"/>
            <meta>
               <profile value="http://hl7.eu/fhir/laboratory/StructureDefinition/Composition-eu-lab"/>
            </meta>
            <identifier>
               <system value="urn:oid:2.16.840.1.113883.2.51.999"/>
               <value value="dc144f1e-7d24-43c5-908a-e301b6abf49c"/>
               <assigner>
                  <display value="HL7 Europe"/>
               </assigner>
            </identifier>
            <status value="final"/>
            <type>
               <coding>
                  <system value="http://loinc.org"/>
                  <code value="11502-2"/>
                  <display value="Laboratory report"/>
               </coding>
               <text value="Laboratory Report"/>
            </type>
            <category>
               <coding>
                  <system value="http://loinc.org"/>
                  <code value="26436-6"/>
                  <display value="Laboratory studies (set)"/>
               </coding>
            </category>
            <subject>
               <reference value="urn:uuid:266dd8b5-f764-49c5-8cc2-bd92dcb96582"/>
               <display value="Ludmila Vávrová"/>
            </subject>
            <date value="2023-11-22T04:51:38Z"/>
            <author>
               <reference value="urn:uuid:5794692b-ec3e-4803-97fc-6a5ebe755a79"/>
            </author>
            <title value="Laboratory Report"/>
            <confidentiality value="N"/>
            <section>
               <title value="Laboratory Report"/>
               <code>
                  <coding>
                     <system value="http://loinc.org"/>
                     <code value="26436-6"/>
                     <display value="Laboratory studies (set)"/>
                  </coding>
                  <text value="Laboratory studies"/>
               </code>
               <section>
                  <title value="Chemistry"/>
                  <code>
                     <coding>
                        <system value="http://loinc.org"/>
                        <code value="$18719-5"/>
                        <display value="Chemistry studies (set)"/>
                     </coding>
                     <text value="Chemistry"/>
                  </code>
                  <text>
                     <status value="generated"/>
                     <div xmlns="http://www.w3.org/1999/xhtml">
                        <h3>Chemistry</h3>
                        <table class="hl7__eu__lab__report">
                           <thead>
                              <tr>
                                 <th>Test</th>
                                 <th>22-NOV-2023</th>
                                 <th>Reference Range</th>
                                 <th>Unit</th>
                              </tr>
                           </thead>
                           <tbody>
                              <tr>
                                 <td>Cholesterol [Mass/volume] in Serum or Plasma</td>
                                 <td>
                                    <strong>296.1 H</strong>
                                 </td>
                                 <td>125 - 200</td>
                                 <td>mg/dL</td>
                              </tr>
                              <tr>
                                 <td>Triglyceride [Mass/volume] in Serum or Plasma</td>
                                 <td>129.2</td>
                                 <td>10 - 175</td>
                                 <td>mg/dL</td>
                              </tr>
                              <tr>
                                 <td>Cholesterol in LDL [Mass/volume] in Serum or Plasma by Direct assay</td>
                                 <td>
                                    <strong>217.1 H</strong>
                                 </td>
                                 <td>0 - 130</td>
                                 <td>mg/dL</td>
                              </tr>
                              <tr>
                                 <td>Cholesterol in HDL [Mass/volume] in Serum or Plasma</td>
                                 <td>53.2</td>
                                 <td>50 - 100</td>
                                 <td>mg/dL</td>
                              </tr>
                           </tbody>
                        </table>
                     </div>
                  </text>
                  <entry>
                     <reference value="urn:uuid:d51f2abe-c4e8-4704-ac70-bfc136444c04"/>
                  </entry>
                  <entry>
                     <reference value="urn:uuid:7f8de70b-629d-47dd-bba9-97ab757477c7"/>
                  </entry>
                  <entry>
                     <reference value="urn:uuid:77376277-5a2e-4785-8112-1fb49a011517"/>
                  </entry>
                  <entry>
                     <reference value="urn:uuid:530380b9-3bba-4d6f-8629-6a2927fdd527"/>
                  </entry>
               </section>
            </section>
            <section>
               <title value="Annotation comment"/>
               <code>
                  <coding>
                     <system value="http://loinc.org"/>
                     <code value="48767-8"/>
                     <display value="Annotation comment"/>
                  </coding>
               </code>
               <text>
                  <status value="generated"/>
                  <div xmlns="http://www.w3.org/1999/xhtml">
                     <h3>Annotation</h3>
                     <table class="hl7__eu__lab__report">
                        <tr>
                           <th>Conclusion and Recommendations based on this report and previous findings known to us</th>
                        </tr>
                        <tr>
                           <td>The patient shows significantly elevated total cholesterol and LDL cholesterol, both of which increase cardiovascular risk, while HDL and triglycerides are within normal limits. Recommend clinical evaluation for cardiovascular risk factors and consideration of lipid-lowering therapy as appropriate.</td>
                        </tr>
                     </table>
                  </div>
               </text>
            </section>
         </Composition>
      </resource>
   </entry>
   <entry>
      <fullUrl value="urn:uuid:5d85b5fd-1c4a-4575-90dc-bbe0b5f30ef3"/>
      <resource>
         <DiagnosticReport>
            <id value="5d85b5fd-1c4a-4575-90dc-bbe0b5f30ef3"/>
            <meta>
               <profile value="http://hl7.eu/fhir/laboratory/StructureDefinition/DiagnosticReport-eu-lab"/>
            </meta>
            <extension url="http://hl7.org/fhir/5.0/StructureDefinition/extension-DiagnosticReport.composition">
               <valueReference>
                  <reference value="urn:uuid:dc144f1e-7d24-43c5-908a-e301b6abf49c"/>
               </valueReference>
            </extension>
            <identifier>
               <system value="urn:oid:2.16.840.1.113883.2.51.999"/>
               <value value="e7af147a-957f-4e39-b82d-a7286db0c547"/>
               <assigner>
                  <display value="HL7 Europe"/>
               </assigner>
            </identifier>
            <status value="registered"/>
            <category>
               <coding>
                  <system value="http://loinc.org"/>
                  <code value="26436-6"/>
                  <display value="Laboratory studies (set)"/>
               </coding>
            </category>
            <code>
               <coding>
                  <system value="http://loinc.org"/>
                  <code value="11502-2"/>
                  <display value="Laboratory report"/>
               </coding>
            </code>
            <subject>
               <reference value="urn:uuid:266dd8b5-f764-49c5-8cc2-bd92dcb96582"/>
               <display value="Ludmila Vávrová"/>
            </subject>
            <specimen>
               <reference value="urn:uuid:aaf90bba-817a-471c-af04-fbff9fd2397d"/>
            </specimen>
            <result>
               <reference value="urn:uuid:d51f2abe-c4e8-4704-ac70-bfc136444c04"/>
            </result>
            <result>
               <reference value="urn:uuid:7f8de70b-629d-47dd-bba9-97ab757477c7"/>
            </result>
            <result>
               <reference value="urn:uuid:77376277-5a2e-4785-8112-1fb49a011517"/>
            </result>
            <result>
               <reference value="urn:uuid:530380b9-3bba-4d6f-8629-6a2927fdd527"/>
            </result>
         </DiagnosticReport>
      </resource>
   </entry>
   <entry>
      <fullUrl value="urn:uuid:266dd8b5-f764-49c5-8cc2-bd92dcb96582"/>
      <resource>
         <Patient>
            <id value="266dd8b5-f764-49c5-8cc2-bd92dcb96582"/>
            <meta>
               <profile value="http://hl7.eu/fhir/base/StructureDefinition/patient-eu-core"/>
               <security>
                  <system value="http://terminology.hl7.org/CodeSystem/v3-ActReason"/>
                  <code value="HTEST"/>
               </security>
               <security>
                  <system value="http://terminology.hl7.org/CodeSystem/v3-ActReason"/>
                  <code value="TRAIN"/>
               </security>
               <tag>
                  <system value="https://synderai.net/fhir/CodeSystem/tags"/>
                  <code value="synthetic"/>
                  <display value="SYNDERAI Synthetic data"/>
               </tag>
            </meta>
            <text>
               <status value="generated"/>
               <div xmlns="http://www.w3.org/1999/xhtml">
                  <table class="hl7__ips">
                     <tr>
                        <td>Ludmila Vávrová</td>
                        <td>female</td>
                        <td>08-Aug-1940</td>
                     </tr>
                  </table>
               </div>
            </text>
            <extension url="http://hl7.org/fhir/StructureDefinition/patient-nationality">
               <valueCodeableConcept>
                  <coding>
                     <system value="http://hl7.org/fhir/ValueSet/country"/>
                     <code value="CZ"/>
                  </coding>
               </valueCodeableConcept>
            </extension>
            <identifier>
               <type>
                  <coding>
                     <system value="http://terminology.hl7.org/CodeSystem/v2-0203"/>
                     <code value="PT"/>
                  </coding>
               </type>
               <system value="http://ec.europa.eu/identifier/eci"/>
               <value value="1992-540676-1"/>
            </identifier>
            <identifier>
               <type>
                  <coding>
                     <system value="http://terminology.hl7.org/CodeSystem/v2-0203"/>
                     <code value="MR"/>
                  </coding>
               </type>
               <system value="http://local.setting.eu/identifier"/>
               <value value="7c533aae-6e7f-89aa-dfdc-8ff900a5990b"/>
            </identifier>
            <name>
               <family value="Vávrová"/>
            </name>
            <name>
               <given value="Ludmila"/>
            </name>
            <name>
               <text value="Ludmila Vávrová"/>
            </name>
            <telecom>
               <system value="phone"/>
               <value value="00420 607 610 889"/>
            </telecom>
            <gender value="female"/>
            <birthDate value="1940-08-08"/>
            <address>
               <use value="home"/>
               <type value="physical"/>
               <line value="Šárovo Kolo 116"/>
               <city value="Bakov nad Jizerou"/>
               <postalCode value="29471"/>
               <country value="Czechia"/>
            </address>
         </Patient>
      </resource>
   </entry>
   <entry>
      <fullUrl value="urn:uuid:ee552b09-ac0f-40de-807b-16fe7973daa6"/>
      <resource>
         <ServiceRequest>
            <id value="ee552b09-ac0f-40de-807b-16fe7973daa6"/>
            <meta>
               <profile value="http://hl7.eu/fhir/laboratory/StructureDefinition/ServiceRequest-eu-lab"/>
            </meta>
            <identifier>
               <system value="http://example.org"/>
               <value value="edf14395-758a-47bf-b2ad-538c845eccf4"/>
            </identifier>
            <status value="active"/>
            <intent value="order"/>
            <code>
               <coding>
                  <system value="http://snomed.info/sct"/>
                  <code value="108252007"/>
                  <display value="Laboratory procedure"/>
               </coding>
            </code>
            <subject>
               <reference value="urn:uuid:266dd8b5-f764-49c5-8cc2-bd92dcb96582"/>
               <display value="Ludmila Vávrová"/>
            </subject>
            <requester>
               <reference value="urn:uuid:a7df7b95-6174-4b3d-be07-ae72d5bd4aad"/>
            </requester>
            <reasonCode>
               <coding>
                  <system value="http://snomed.info/sct"/>
                  <code value="414545008"/>
                  <display value="Ischemic heart disease"/>
               </coding>
            </reasonCode>
            <reasonCode>
               <coding>
                  <system value="http://snomed.info/sct"/>
                  <code value="64859006"/>
                  <display value="Osteoporosis"/>
               </coding>
            </reasonCode>
            <reasonCode>
               <coding>
                  <system value="http://snomed.info/sct"/>
                  <code value="6525002"/>
                  <display value="Dependent drug abuse"/>
               </coding>
            </reasonCode>
            <reasonCode>
               <coding>
                  <system value="http://snomed.info/sct"/>
                  <code value="55822004"/>
                  <display value="Hyperlipidemia"/>
               </coding>
            </reasonCode>
            <reasonCode>
               <coding>
                  <system value="http://snomed.info/sct"/>
                  <code value="124171000119105"/>
                  <display value="Chronic intractable migraine without aura"/>
               </coding>
            </reasonCode>
            <reasonCode>
               <coding>
                  <system value="http://snomed.info/sct"/>
                  <code value="196416002"/>
                  <display value="Impacted molars"/>
               </coding>
            </reasonCode>
            <reasonCode>
               <coding>
                  <system value="http://snomed.info/sct"/>
                  <code value="239872002"/>
                  <display value="Osteoarthritis of hip"/>
               </coding>
            </reasonCode>
            <reasonCode>
               <coding>
                  <system value="http://snomed.info/sct"/>
                  <code value="40055000"/>
                  <display value="Chronic sinusitis"/>
               </coding>
            </reasonCode>
            <specimen>
               <reference value="urn:uuid:aaf90bba-817a-471c-af04-fbff9fd2397d"/>
            </specimen>
         </ServiceRequest>
      </resource>
   </entry>
   <entry>
      <fullUrl value="urn:uuid:a7df7b95-6174-4b3d-be07-ae72d5bd4aad"/>
      <resource>
         <PractitionerRole>
            <id value="a7df7b95-6174-4b3d-be07-ae72d5bd4aad"/>
            <meta>
               <profile value="http://hl7.eu/fhir/base/StructureDefinition/practitionerRole-eu"/>
            </meta>
            <text>
               <status value="generated"/>
               <div xmlns="http://www.w3.org/1999/xhtml">Provider Role Id: a7df7b95-6174-4b3d-be07-ae72d5bd4aad</div>
            </text>
            <organization>
               <reference value="urn:uuid:ef206cdc-c058-428e-9d90-713b4a6280c0"/>
            </organization>
         </PractitionerRole>
      </resource>
   </entry>
   <entry>
      <fullUrl value="urn:uuid:ef206cdc-c058-428e-9d90-713b4a6280c0"/>
      <resource>
         <Organization>
            <id value="ef206cdc-c058-428e-9d90-713b4a6280c0"/>
            <meta>
               <profile value="http://hl7.eu/fhir/base/StructureDefinition/organization-eu"/>
            </meta>
            <text>
               <status value="generated"/>
               <div xmlns="http://www.w3.org/1999/xhtml">Provider Organization: Psychiatrická nemocnice Kosmonosy</div>
            </text>
            <identifier>
               <system value="urn:oid:2.16.840.1.113883.2.51.999"/>
               <value value="221527bd-a15d-4802-a5fd-4998dbeadc36"/>
               <assigner>
                  <display value="HL7 Europe"/>
               </assigner>
            </identifier>
            <name value="Psychiatrická nemocnice Kosmonosy"/>
            <address>
               <city value="Kosmonosy"/>
               <postalCode value="293 06"/>
               <country value="Czechia"/>
            </address>
         </Organization>
      </resource>
   </entry>
   <entry>
      <fullUrl value="urn:uuid:aaf90bba-817a-471c-af04-fbff9fd2397d"/>
      <resource>
         <Specimen>
            <id value="aaf90bba-817a-471c-af04-fbff9fd2397d"/>
            <meta>
               <profile value="http://hl7.eu/fhir/laboratory/StructureDefinition/Specimen-eu-lab"/>
            </meta>
            <text>
               <status value="generated"/>
               <div xmlns="http://www.w3.org/1999/xhtml">
                  <table class="hl7__eu__lab__report">
                     <tr>
                        <th>Specimen</th>
                        <th>Collection Date</th>
                     </tr>
                     <tr>
                        <td>Acellular blood (serum or plasma) specimen</td>
                        <td>
                           <span class="nb">22-Nov-2023</span>
                        </td>
                     </tr>
                  </table>
               </div>
            </text>
            <type>
               <coding>
                  <system value="http://snomed.info/sct"/>
                  <code value="122592007"/>
                  <display value="Acellular blood (serum or plasma) specimen"/>
               </coding>
            </type>
            <collection>
               <collectedDateTime value="2023-11-22"/>
            </collection>
         </Specimen>
      </resource>
   </entry>
   <entry>
      <fullUrl value="urn:uuid:d51f2abe-c4e8-4704-ac70-bfc136444c04"/>
      <resource>
         <Observation>
            <id value="d51f2abe-c4e8-4704-ac70-bfc136444c04"/>
            <meta>
               <profile value="http://hl7.eu/fhir/laboratory/StructureDefinition/Observation-resultslab-eu-lab"/>
            </meta>
            <text>
               <status value="generated"/>
               <div xmlns="http://www.w3.org/1999/xhtml">
                  <table class="hl7__eu__lab__report">
                     <tr>
                        <th>Test</th>
                        <th>22-Nov-2023</th>
                        <th>Reference Range</th>
                        <th>Unit</th>
                     </tr>
                     <tr>
                        <td>Cholesterol [Mass/volume] in Serum or Plasma</td>
                        <td>296.1</td>
                        <td>125 - 200</td>
                        <td>H</td>
                        <td>mg/dL</td>
                     </tr>
                  </table>
               </div>
            </text>
            <status value="final"/>
            <category>
               <coding>
                  <system value="http://terminology.hl7.org/CodeSystem/observation-category"/>
                  <code value="laboratory"/>
               </coding>
            </category>
            <code>
               <coding>
                  <system value="http://loinc.org"/>
                  <code value="2093-3"/>
                  <display value="Cholesterol [Mass/volume] in Serum or Plasma"/>
               </coding>
               <text value="Cholesterol [Mass/volume] in Serum or Plasma"/>
            </code>
            <subject>
               <reference value="urn:uuid:266dd8b5-f764-49c5-8cc2-bd92dcb96582"/>
               <display value="Ludmila Vávrová"/>
            </subject>
            <effectiveDateTime value="2023-11-22T03:51:38Z"/>
            <performer>
               <display value="The Central European Lab"/>
            </performer>
            <valueQuantity>
               <value value="296.1"/>
               <unit value="mg/dL"/>
               <system value="http://unitsofmeasure.org"/>
               <code value="mg/dL"/>
            </valueQuantity>
            <interpretation>
               <coding>
                  <system value="http://terminology.hl7.org/CodeSystem/v3-ObservationInterpretation"/>
                  <code value="H"/>
                  <display value="High"/>
               </coding>
            </interpretation>
            <specimen>
               <reference value="urn:uuid:aaf90bba-817a-471c-af04-fbff9fd2397d"/>
            </specimen>
            <referenceRange>
               <low>
                  <value value="125"/>
                  <system value="http://unitsofmeasure.org"/>
                  <code value="mg/dL"/>
               </low>
            </referenceRange>
            <referenceRange>
               <high>
                  <value value="200"/>
                  <system value="http://unitsofmeasure.org"/>
                  <code value="mg/dL"/>
               </high>
            </referenceRange>
         </Observation>
      </resource>
   </entry>
   <entry>
      <fullUrl value="urn:uuid:7f8de70b-629d-47dd-bba9-97ab757477c7"/>
      <resource>
         <Observation>
            <id value="7f8de70b-629d-47dd-bba9-97ab757477c7"/>
            <meta>
               <profile value="http://hl7.eu/fhir/laboratory/StructureDefinition/Observation-resultslab-eu-lab"/>
            </meta>
            <text>
               <status value="generated"/>
               <div xmlns="http://www.w3.org/1999/xhtml">
                  <table class="hl7__eu__lab__report">
                     <tr>
                        <th>Test</th>
                        <th>22-Nov-2023</th>
                        <th>Reference Range</th>
                        <th>Unit</th>
                     </tr>
                     <tr>
                        <td>Triglyceride [Mass/volume] in Serum or Plasma</td>
                        <td>129.2</td>
                        <td>10 - 175</td>
                        <td/>
                        <td>mg/dL</td>
                     </tr>
                  </table>
               </div>
            </text>
            <status value="final"/>
            <category>
               <coding>
                  <system value="http://terminology.hl7.org/CodeSystem/observation-category"/>
                  <code value="laboratory"/>
               </coding>
            </category>
            <code>
               <coding>
                  <system value="http://loinc.org"/>
                  <code value="2571-8"/>
                  <display value="Triglyceride [Mass/volume] in Serum or Plasma"/>
               </coding>
               <text value="Triglyceride [Mass/volume] in Serum or Plasma"/>
            </code>
            <subject>
               <reference value="urn:uuid:266dd8b5-f764-49c5-8cc2-bd92dcb96582"/>
               <display value="Ludmila Vávrová"/>
            </subject>
            <effectiveDateTime value="2023-11-22T03:51:38Z"/>
            <performer>
               <display value="The Central European Lab"/>
            </performer>
            <valueQuantity>
               <value value="129.2"/>
               <unit value="mg/dL"/>
               <system value="http://unitsofmeasure.org"/>
               <code value="mg/dL"/>
            </valueQuantity>
            <specimen>
               <reference value="urn:uuid:aaf90bba-817a-471c-af04-fbff9fd2397d"/>
            </specimen>
            <referenceRange>
               <low>
                  <value value="10"/>
                  <system value="http://unitsofmeasure.org"/>
                  <code value="mg/dL"/>
               </low>
            </referenceRange>
            <referenceRange>
               <high>
                  <value value="175"/>
                  <system value="http://unitsofmeasure.org"/>
                  <code value="mg/dL"/>
               </high>
            </referenceRange>
         </Observation>
      </resource>
   </entry>
   <entry>
      <fullUrl value="urn:uuid:77376277-5a2e-4785-8112-1fb49a011517"/>
      <resource>
         <Observation>
            <id value="77376277-5a2e-4785-8112-1fb49a011517"/>
            <meta>
               <profile value="http://hl7.eu/fhir/laboratory/StructureDefinition/Observation-resultslab-eu-lab"/>
            </meta>
            <text>
               <status value="generated"/>
               <div xmlns="http://www.w3.org/1999/xhtml">
                  <table class="hl7__eu__lab__report">
                     <tr>
                        <th>Test</th>
                        <th>22-Nov-2023</th>
                        <th>Reference Range</th>
                        <th>Unit</th>
                     </tr>
                     <tr>
                        <td>Cholesterol in LDL [Mass/volume] in Serum or Plasma by Direct assay</td>
                        <td>217.1</td>
                        <td>0 - 130</td>
                        <td>H</td>
                        <td>mg/dL</td>
                     </tr>
                  </table>
               </div>
            </text>
            <status value="final"/>
            <category>
               <coding>
                  <system value="http://terminology.hl7.org/CodeSystem/observation-category"/>
                  <code value="laboratory"/>
               </coding>
            </category>
            <code>
               <coding>
                  <system value="http://loinc.org"/>
                  <code value="18262-6"/>
                  <display value="Cholesterol in LDL [Mass/volume] in Serum or Plasma by Direct assay"/>
               </coding>
               <text value="Cholesterol in LDL [Mass/volume] in Serum or Plasma by Direct assay"/>
            </code>
            <subject>
               <reference value="urn:uuid:266dd8b5-f764-49c5-8cc2-bd92dcb96582"/>
               <display value="Ludmila Vávrová"/>
            </subject>
            <effectiveDateTime value="2023-11-22T03:51:38Z"/>
            <performer>
               <display value="The Central European Lab"/>
            </performer>
            <valueQuantity>
               <value value="217.1"/>
               <unit value="mg/dL"/>
               <system value="http://unitsofmeasure.org"/>
               <code value="mg/dL"/>
            </valueQuantity>
            <interpretation>
               <coding>
                  <system value="http://terminology.hl7.org/CodeSystem/v3-ObservationInterpretation"/>
                  <code value="H"/>
                  <display value="High"/>
               </coding>
            </interpretation>
            <specimen>
               <reference value="urn:uuid:aaf90bba-817a-471c-af04-fbff9fd2397d"/>
            </specimen>
            <referenceRange>
               <low>
                  <value value="0"/>
                  <system value="http://unitsofmeasure.org"/>
                  <code value="mg/dL"/>
               </low>
            </referenceRange>
            <referenceRange>
               <high>
                  <value value="130"/>
                  <system value="http://unitsofmeasure.org"/>
                  <code value="mg/dL"/>
               </high>
            </referenceRange>
         </Observation>
      </resource>
   </entry>
   <entry>
      <fullUrl value="urn:uuid:530380b9-3bba-4d6f-8629-6a2927fdd527"/>
      <resource>
         <Observation>
            <id value="530380b9-3bba-4d6f-8629-6a2927fdd527"/>
            <meta>
               <profile value="http://hl7.eu/fhir/laboratory/StructureDefinition/Observation-resultslab-eu-lab"/>
            </meta>
            <text>
               <status value="generated"/>
               <div xmlns="http://www.w3.org/1999/xhtml">
                  <table class="hl7__eu__lab__report">
                     <tr>
                        <th>Test</th>
                        <th>22-Nov-2023</th>
                        <th>Reference Range</th>
                        <th>Unit</th>
                     </tr>
                     <tr>
                        <td>Cholesterol in HDL [Mass/volume] in Serum or Plasma</td>
                        <td>53.2</td>
                        <td>50 - 100</td>
                        <td/>
                        <td>mg/dL</td>
                     </tr>
                  </table>
               </div>
            </text>
            <status value="final"/>
            <category>
               <coding>
                  <system value="http://terminology.hl7.org/CodeSystem/observation-category"/>
                  <code value="laboratory"/>
               </coding>
            </category>
            <code>
               <coding>
                  <system value="http://loinc.org"/>
                  <code value="2085-9"/>
                  <display value="Cholesterol in HDL [Mass/volume] in Serum or Plasma"/>
               </coding>
               <text value="Cholesterol in HDL [Mass/volume] in Serum or Plasma"/>
            </code>
            <subject>
               <reference value="urn:uuid:266dd8b5-f764-49c5-8cc2-bd92dcb96582"/>
               <display value="Ludmila Vávrová"/>
            </subject>
            <effectiveDateTime value="2023-11-22T03:51:38Z"/>
            <performer>
               <display value="The Central European Lab"/>
            </performer>
            <valueQuantity>
               <value value="53.2"/>
               <unit value="mg/dL"/>
               <system value="http://unitsofmeasure.org"/>
               <code value="mg/dL"/>
            </valueQuantity>
            <specimen>
               <reference value="urn:uuid:aaf90bba-817a-471c-af04-fbff9fd2397d"/>
            </specimen>
            <referenceRange>
               <low>
                  <value value="50"/>
                  <system value="http://unitsofmeasure.org"/>
                  <code value="mg/dL"/>
               </low>
            </referenceRange>
            <referenceRange>
               <high>
                  <value value="100"/>
                  <system value="http://unitsofmeasure.org"/>
                  <code value="mg/dL"/>
               </high>
            </referenceRange>
         </Observation>
      </resource>
   </entry>
   <entry>
      <fullUrl value="urn:uuid:4c11091f-8168-4e88-ad77-10100dc0be2b"/>
      <resource>
         <Device>
            <id value="4c11091f-8168-4e88-ad77-10100dc0be2b"/>
            <text>
               <status value="generated"/>
               <div xmlns="http://www.w3.org/1999/xhtml">SYNDERAI Synthetic Generator v5.0</div>
            </text>
            <status value="active&#34;"/>
            <distinctIdentifier value="synderai-generator-50"/>
            <manufacturer value="SYNDERAI Project"/>
            <deviceName>
               <name value="SYNDERAI Synthetic Generator"/>
               <type value="manufacturer-name"/>
            </deviceName>
            <version>
               <value value="5.0"/>
            </version>
         </Device>
      </resource>
   </entry>
   <entry>
      <fullUrl value="urn:uuid:e13cc0c1-93d9-4542-b9d1-232da2849bcc"/>
      <resource>
         <Provenance>
            <id value="e13cc0c1-93d9-4542-b9d1-232da2849bcc"/>
            <text>
               <status value="generated"/>
               <div xmlns="http://www.w3.org/1999/xhtml">Provenance for SYNDERAI Synthetic Example Data Resource</div>
            </text>
            <target>
               <reference value="Patient/266dd8b5-f764-49c5-8cc2-bd92dcb96582"/>
            </target>
            <target>
               <reference value="Bundle/0f16c35a-fab2-4ad0-b293-bb64878ac3b6"/>
            </target>
            <target>
               <reference value="Composition/302d0697-d428-4269-af87-42f559ab03d6"/>
            </target>
            <target>
               <reference value="PractitionerRole/5794692b-ec3e-4803-97fc-6a5ebe755a79"/>
            </target>
            <target>
               <reference value="Practitioner/b25f8e1a-99b9-4d67-a9ee-7176d44f5cc9"/>
            </target>
            <target>
               <reference value="PractitionerRole/a7df7b95-6174-4b3d-be07-ae72d5bd4aad"/>
            </target>
            <target>
               <reference value="Organization/ef206cdc-c058-428e-9d90-713b4a6280c0"/>
            </target>
            <recorded value="2023-11-22T04:51:38Z"/>
            <policy value="https://synderai.net/synderai-synthetic-data-policy"/>
            <reason>
               <text value="Interoperability Testing and Training (non-clinical use)"/>
            </reason>
            <activity>
               <text value="Synthetic Example Data Generation"/>
            </activity>
            <agent>
               <type>
                  <text value="author"/>
               </type>
               <who>
                  <reference value="Device/4c11091f-8168-4e88-ad77-10100dc0be2b"/>
               </who>
            </agent>
         </Provenance>
      </resource>
   </entry>
   <entry>
      <fullUrl value="urn:uuid:5794692b-ec3e-4803-97fc-6a5ebe755a79"/>
      <resource>
         <PractitionerRole>
            <id value="5794692b-ec3e-4803-97fc-6a5ebe755a79"/>
            <meta>
               <profile value="http://hl7.eu/fhir/base/StructureDefinition/practitionerRole-eu"/>
            </meta>
            <text>
               <status value="generated"/>
               <div xmlns="http://www.w3.org/1999/xhtml">Laboratory Role Id: 5794692b-ec3e-4803-97fc-6a5ebe755a79</div>
            </text>
            <practitioner>
               <reference value="urn:uuid:b25f8e1a-99b9-4d67-a9ee-7176d44f5cc9"/>
            </practitioner>
         </PractitionerRole>
      </resource>
   </entry>
   <entry>
      <fullUrl value="urn:uuid:b25f8e1a-99b9-4d67-a9ee-7176d44f5cc9"/>
      <resource>
         <Practitioner>
            <id value="b25f8e1a-99b9-4d67-a9ee-7176d44f5cc9"/>
            <meta>
               <profile value="http://hl7.eu/fhir/base/StructureDefinition/practitioner-eu"/>
            </meta>
            <text>
               <status value="generated"/>
               <div xmlns="http://www.w3.org/1999/xhtml">Laboratory: Laboratoire Central Européenne, 1000 Brussels, Belgium</div>
            </text>
            <identifier>
               <system value="urn:oid:2.16.840.1.113883.2.51.999"/>
               <value value="9eb56447-5aae-4a5e-9f15-1c6e9b7a7440"/>
               <assigner>
                  <display value="HL7 Europe"/>
               </assigner>
            </identifier>
            <name>
               <family value="Ample"/>
               <given value="Ex"/>
               <prefix value="dr"/>
            </name>
            <address>
               <line value="Laboratoire Central Européenne"/>
               <line value="Boulevard du Jardin Botanique 32"/>
               <city value="Brussels"/>
               <postalCode value="1000"/>
               <country value="Belgium"/>
            </address>
         </Practitioner>
      </resource>
   </entry>
</Bundle>