{
  "resourceType": "Bundle",
  "id": "a61f3159-1775-4b2c-ba30-1a66bf0d9bcb",
  "meta": {
    "profile": [
      "http://hl7.eu/fhir/laboratory/StructureDefinition/Bundle-eu-lab"
    ]
  },
  "identifier": {
    "assigner": {
      "display": "HL7 Europe"
    },
    "system": "urn:oid:2.16.840.1.113883.2.51.999",
    "value": "6f0c6431-97aa-4cfe-8a6d-1ec0aa0524d2"
  },
  "entry": [
    {
      "fullUrl": "urn:uuid:5d174db6-6c61-4ead-9dff-821d992fe403",
      "resource": {
        "resourceType": "Composition",
        "id": "5d174db6-6c61-4ead-9dff-821d992fe403",
        "meta": {
          "profile": [
            "http://hl7.eu/fhir/laboratory/StructureDefinition/Composition-eu-lab"
          ]
        },
        "identifier": {
          "assigner": {
            "display": "HL7 Europe"
          },
          "system": "urn:oid:2.16.840.1.113883.2.51.999",
          "value": "8c95f3f2-2a9e-41e4-bf38-f37282cd13e7"
        },
        "author": [
          {
            "reference": "urn:uuid:6d9b80a9-8fc8-47a3-b698-1c6a40fca799"
          }
        ],
        "category": [
          {
            "coding": [
              {
                "code": "26436-6",
                "system": "http://loinc.org",
                "display": "Laboratory studies (set)"
              }
            ]
          }
        ],
        "type": {
          "coding": [
            {
              "code": "11502-2",
              "system": "http://loinc.org",
              "display": "Laboratory report"
            }
          ],
          "text": "Laboratory Report"
        },
        "section": [
          {
            "code": {
              "coding": [
                {
                  "code": "26436-6",
                  "system": "http://loinc.org",
                  "display": "Laboratory studies (set)"
                }
              ],
              "text": "Laboratory studies"
            },
            "section": [
              {
                "code": {
                  "coding": [
                    {
                      "code": "$18719-5",
                      "system": "http://loinc.org",
                      "display": "Chemistry studies (set)"
                    }
                  ],
                  "text": "Chemistry"
                },
                "entry": [
                  {
                    "reference": "urn:uuid:2e04f5a0-e800-4d0f-849a-08c47779d7d7"
                  },
                  {
                    "reference": "urn:uuid:92415a82-b0ff-4774-b117-d6dc5be44675"
                  },
                  {
                    "reference": "urn:uuid:7d4754ba-974e-4781-9d84-1860a08a05dd"
                  },
                  {
                    "reference": "urn:uuid:5bc091b9-57eb-4630-a45c-46ef5c8caa7f"
                  },
                  {
                    "reference": "urn:uuid:de46b5e5-a37a-4540-8a4e-2a45d7beb4bd"
                  },
                  {
                    "reference": "urn:uuid:09b8e398-777b-40e1-b296-e6b7d0510d3a"
                  },
                  {
                    "reference": "urn:uuid:06076200-d58b-4a39-9e00-051dd644ae6e"
                  },
                  {
                    "reference": "urn:uuid:339a475a-21bf-4c3d-86c8-d6f77e309227"
                  },
                  {
                    "reference": "urn:uuid:fcf32fc4-a94a-409c-98db-fbabedcef4d6"
                  },
                  {
                    "reference": "urn:uuid:010a3936-c5e6-4dc1-bbe6-8298c150a36a"
                  },
                  {
                    "reference": "urn:uuid:cdab7711-d023-4ac8-8ecf-8507cee2032f"
                  },
                  {
                    "reference": "urn:uuid:c80204e3-cd1e-4c3b-9a76-1e0b7534978d"
                  },
                  {
                    "reference": "urn:uuid:3037e7c2-6aee-4f0a-9f05-93d9c6f9b9c6"
                  },
                  {
                    "reference": "urn:uuid:1e88e4fe-deef-4717-a1d2-fc0bda32a15c"
                  }
                ],
                "text": {
                  "status": "generated",
                  "div": "<div xmlns=\"http://www.w3.org/1999/xhtml\"><h3>Chemistry</h3><table class=\"hl7__eu__lab__report\"><thead><tr><th>Test</th><th>22-APR-2019</th><th>Reference&#xA0;Range</th><th>Unit</th></tr></thead><tbody><tr><td>Hemoglobin A1c/Hemoglobin.total in Blood</td><td><strong>6.9 H</strong></td><td>4.8 - 5.7</td><td>%</td></tr><tr><td>Glucose [Mass/volume] in Blood</td><td>123.7</td><td>70 - 140</td><td>mg/dL</td></tr><tr><td>Urea nitrogen [Mass/volume] in Blood</td><td>14.3</td><td>7 - 20</td><td>mg/dL</td></tr><tr><td>Creatinine [Mass/volume] in Blood</td><td>0.8</td><td>0.6 - 1.3</td><td>mg/dL</td></tr><tr><td>Calcium [Mass/volume] in Blood</td><td>8.8</td><td>8.5 - 10.5</td><td>mg/dL</td></tr><tr><td>Sodium [Moles/volume] in Blood</td><td>142.6</td><td>135 - 145</td><td>mmol/L</td></tr><tr><td>Potassium [Moles/volume] in Blood</td><td>4.2</td><td>3.5 - 5.1</td><td>mmol/L</td></tr><tr><td>Chloride [Moles/volume] in Blood</td><td><strong>108.5 H</strong></td><td>98 - 108</td><td>mmol/L</td></tr><tr><td>Carbon dioxide, total [Moles/volume] in Blood</td><td><strong>20.1 L</strong></td><td>22 - 32</td><td>mmol/L</td></tr><tr><td>Cholesterol [Mass/volume] in Serum or Plasma</td><td><strong>202.0 H</strong></td><td>125 - 200</td><td>mg/dL</td></tr><tr><td>Triglyceride [Mass/volume] in Serum or Plasma</td><td><strong>168.5 H</strong></td><td>40 - 150</td><td>mg/dL</td></tr><tr><td>Cholesterol in LDL [Mass/volume] in Serum or Plasma by Direct assay</td><td>118.3</td><td>0 - 190</td><td>mg/dL</td></tr><tr><td>Cholesterol in HDL [Mass/volume] in Serum or Plasma</td><td>50.0</td><td>40 - 60</td><td>mg/dL</td></tr><tr><td>Microalbumin/Creatinine [Mass Ratio] in Urine</td><td>9.4</td><td>0 - 30</td><td>mg/g</td></tr></tbody></table></div>"
                },
                "title": "Chemistry"
              }
            ],
            "title": "Laboratory Report"
          },
          {
            "text": {
              "status": "generated",
              "div": "<div xmlns=\"http://www.w3.org/1999/xhtml\"><h3>Annotation</h3><table class=\"hl7__eu__lab__report\"><tr><th>Conclusion and Recommendations based on this report and previous findings known to us</th></tr><tr><td>The patient shows elevated HbA1c, indicating suboptimal long-term glycemic control (diabetes). Cholesterol and triglycerides are mildly elevated, suggesting increased cardiovascular risk. Chloride is slightly high and total CO₂ is low, which may indicate a mild metabolic acidosis. Renal function and electrolytes are otherwise within normal limits, and there is no evidence of significant proteinuria. Recommend clinical correlation and consideration of optimizing diabetes and lipid management.</td></tr></table></div>"
            },
            "code": {
              "coding": [
                {
                  "system": "http://loinc.org",
                  "code": "48767-8",
                  "display": "Annotation comment"
                }
              ]
            },
            "title": "Annotation comment"
          }
        ],
        "status": "final",
        "subject": {
          "reference": "urn:uuid:1c116446-de65-40b0-ac30-215bd611d43b",
          "display": "Stephen Weinhage"
        },
        "date": "2019-04-22T08:55:50Z",
        "title": "Laboratory Report",
        "confidentiality": "N"
      }
    },
    {
      "fullUrl": "urn:uuid:c5651117-ea7c-4328-8577-ed9d8184f5ea",
      "resource": {
        "resourceType": "DiagnosticReport",
        "id": "c5651117-ea7c-4328-8577-ed9d8184f5ea",
        "meta": {
          "profile": [
            "http://hl7.eu/fhir/laboratory/StructureDefinition/DiagnosticReport-eu-lab"
          ]
        },
        "identifier": [
          {
            "assigner": {
              "display": "HL7 Europe"
            },
            "system": "urn:oid:2.16.840.1.113883.2.51.999",
            "value": "9f527091-9632-4a21-bee0-67696a5c0b28"
          }
        ],
        "extension": [
          {
            "url": "http://hl7.org/fhir/5.0/StructureDefinition/extension-DiagnosticReport.composition",
            "valueReference": {
              "reference": "urn:uuid:8c95f3f2-2a9e-41e4-bf38-f37282cd13e7"
            }
          }
        ],
        "category": [
          {
            "coding": [
              {
                "code": "26436-6",
                "system": "http://loinc.org",
                "display": "Laboratory studies (set)"
              }
            ]
          }
        ],
        "specimen": [
          {
            "reference": "urn:uuid:62fa060e-6a5b-473c-8f5a-ef3b259534b3"
          },
          {
            "reference": "urn:uuid:93bb55ee-c60b-4a20-9664-86d92b4d1836"
          },
          {
            "reference": "urn:uuid:feb5f199-58c5-40f6-8463-ab1a726296e5"
          }
        ],
        "result": [
          {
            "reference": "urn:uuid:2e04f5a0-e800-4d0f-849a-08c47779d7d7"
          },
          {
            "reference": "urn:uuid:92415a82-b0ff-4774-b117-d6dc5be44675"
          },
          {
            "reference": "urn:uuid:7d4754ba-974e-4781-9d84-1860a08a05dd"
          },
          {
            "reference": "urn:uuid:5bc091b9-57eb-4630-a45c-46ef5c8caa7f"
          },
          {
            "reference": "urn:uuid:de46b5e5-a37a-4540-8a4e-2a45d7beb4bd"
          },
          {
            "reference": "urn:uuid:09b8e398-777b-40e1-b296-e6b7d0510d3a"
          },
          {
            "reference": "urn:uuid:06076200-d58b-4a39-9e00-051dd644ae6e"
          },
          {
            "reference": "urn:uuid:339a475a-21bf-4c3d-86c8-d6f77e309227"
          },
          {
            "reference": "urn:uuid:fcf32fc4-a94a-409c-98db-fbabedcef4d6"
          },
          {
            "reference": "urn:uuid:010a3936-c5e6-4dc1-bbe6-8298c150a36a"
          },
          {
            "reference": "urn:uuid:cdab7711-d023-4ac8-8ecf-8507cee2032f"
          },
          {
            "reference": "urn:uuid:c80204e3-cd1e-4c3b-9a76-1e0b7534978d"
          },
          {
            "reference": "urn:uuid:3037e7c2-6aee-4f0a-9f05-93d9c6f9b9c6"
          },
          {
            "reference": "urn:uuid:1e88e4fe-deef-4717-a1d2-fc0bda32a15c"
          }
        ],
        "status": "registered",
        "code": {
          "coding": [
            {
              "code": "11502-2",
              "system": "http://loinc.org",
              "display": "Laboratory report"
            }
          ]
        },
        "subject": {
          "reference": "urn:uuid:1c116446-de65-40b0-ac30-215bd611d43b",
          "display": "Stephen Weinhage"
        }
      }
    },
    {
      "fullUrl": "urn:uuid:1c116446-de65-40b0-ac30-215bd611d43b",
      "resource": {
        "resourceType": "Patient",
        "id": "1c116446-de65-40b0-ac30-215bd611d43b",
        "meta": {
          "security": [
            {
              "system": "http://terminology.hl7.org/CodeSystem/v3-ActReason",
              "code": "HTEST"
            },
            {
              "system": "http://terminology.hl7.org/CodeSystem/v3-ActReason",
              "code": "TRAIN"
            }
          ],
          "tag": [
            {
              "system": "https://synderai.net/fhir/CodeSystem/tags",
              "code": "synthetic",
              "display": "SYNDERAI Synthetic data"
            }
          ],
          "profile": [
            "http://hl7.eu/fhir/base/StructureDefinition/patient-eu-core"
          ]
        },
        "identifier": [
          {
            "type": {
              "coding": [
                {
                  "code": "PT",
                  "system": "http://terminology.hl7.org/CodeSystem/v2-0203"
                }
              ]
            },
            "system": "http://ec.europa.eu/identifier/eci",
            "value": "6413-101438-9"
          },
          {
            "type": {
              "coding": [
                {
                  "code": "MR",
                  "system": "http://terminology.hl7.org/CodeSystem/v2-0203"
                }
              ]
            },
            "system": "http://local.setting.eu/identifier",
            "value": "24ebd065-2072-c582-96d3-10256a4a5a7d"
          }
        ],
        "name": [
          {
            "family": "Weinhage"
          },
          {
            "given": [
              "Stephen"
            ]
          },
          {
            "text": "Stephen Weinhage"
          }
        ],
        "address": [
          {
            "line": [
              "Bertold-Stahr-Platz 6/3"
            ],
            "use": "home",
            "type": "physical",
            "postalCode": "31535",
            "city": "Neustadt am Rübenberge",
            "country": "Germany"
          }
        ],
        "telecom": [
          {
            "system": "phone",
            "value": "+49(0)5355171263"
          }
        ],
        "extension": [
          {
            "url": "http://hl7.org/fhir/StructureDefinition/patient-nationality",
            "valueCodeableConcept": {
              "coding": [
                {
                  "code": "DE",
                  "system": "http://hl7.org/fhir/ValueSet/country"
                }
              ]
            }
          }
        ],
        "text": {
          "status": "generated",
          "div": "<div xmlns=\"http://www.w3.org/1999/xhtml\"><table class=\"hl7__ips\"><tr><td>Stephen Weinhage</td><td>male</td><td>11-Aug-1950</td></tr></table></div>"
        },
        "gender": "male",
        "birthDate": "1950-08-11"
      }
    },
    {
      "fullUrl": "urn:uuid:4a0b9d77-a43b-4c9e-b566-65ea30e340f1",
      "resource": {
        "resourceType": "ServiceRequest",
        "id": "4a0b9d77-a43b-4c9e-b566-65ea30e340f1",
        "meta": {
          "profile": [
            "http://hl7.eu/fhir/laboratory/StructureDefinition/ServiceRequest-eu-lab"
          ]
        },
        "identifier": [
          {
            "system": "http://example.org",
            "value": "8b3b5f89-d2aa-481d-b347-eacfce319a0f"
          }
        ],
        "specimen": [
          {
            "reference": "urn:uuid:62fa060e-6a5b-473c-8f5a-ef3b259534b3"
          },
          {
            "reference": "urn:uuid:93bb55ee-c60b-4a20-9664-86d92b4d1836"
          },
          {
            "reference": "urn:uuid:feb5f199-58c5-40f6-8463-ab1a726296e5"
          }
        ],
        "reasonCode": [
          {
            "coding": [
              {
                "code": "422034002",
                "system": "http://snomed.info/sct",
                "display": "Retinopathy due to type 2 diabetes mellitus"
              }
            ]
          },
          {
            "coding": [
              {
                "code": "55822004",
                "system": "http://snomed.info/sct",
                "display": "Hyperlipidemia"
              }
            ]
          },
          {
            "coding": [
              {
                "code": "302870006",
                "system": "http://snomed.info/sct",
                "display": "Hypertriglyceridemia"
              }
            ]
          },
          {
            "coding": [
              {
                "code": "44054006",
                "system": "http://snomed.info/sct",
                "display": "Type 2 diabetes mellitus"
              }
            ]
          },
          {
            "coding": [
              {
                "code": "414545008",
                "system": "http://snomed.info/sct",
                "display": "Ischemic heart disease"
              }
            ]
          },
          {
            "coding": [
              {
                "code": "237602007",
                "system": "http://snomed.info/sct",
                "display": "Metabolic syndrome X"
              }
            ]
          },
          {
            "coding": [
              {
                "code": "68496003",
                "system": "http://snomed.info/sct",
                "display": "Polyp of colon"
              }
            ]
          },
          {
            "coding": [
              {
                "code": "59621000",
                "system": "http://snomed.info/sct",
                "display": "Essential hypertension"
              }
            ]
          },
          {
            "coding": [
              {
                "code": "15777000",
                "system": "http://snomed.info/sct",
                "display": "Prediabetes"
              }
            ]
          },
          {
            "coding": [
              {
                "code": "271737000",
                "system": "http://snomed.info/sct",
                "display": "Anemia"
              }
            ]
          },
          {
            "coding": [
              {
                "code": "40055000",
                "system": "http://snomed.info/sct",
                "display": "Chronic sinusitis"
              }
            ]
          }
        ],
        "status": "active",
        "intent": "order",
        "code": {
          "coding": [
            {
              "code": "108252007",
              "system": "http://snomed.info/sct",
              "display": "Laboratory procedure"
            }
          ]
        },
        "subject": {
          "reference": "urn:uuid:1c116446-de65-40b0-ac30-215bd611d43b",
          "display": "Stephen Weinhage"
        },
        "requester": {
          "reference": "urn:uuid:8b552777-506e-4921-a8d5-0edfe01ed96d"
        }
      }
    },
    {
      "fullUrl": "urn:uuid:8b552777-506e-4921-a8d5-0edfe01ed96d",
      "resource": {
        "resourceType": "PractitionerRole",
        "id": "8b552777-506e-4921-a8d5-0edfe01ed96d",
        "meta": {
          "profile": [
            "http://hl7.eu/fhir/base/StructureDefinition/practitionerRole-eu"
          ]
        },
        "text": {
          "status": "generated",
          "div": "<div xmlns=\"http://www.w3.org/1999/xhtml\">Provider Role Id: 8b552777-506e-4921-a8d5-0edfe01ed96d</div>"
        },
        "organization": {
          "reference": "urn:uuid:a4206d54-c190-4688-aa36-8bcf1f07d6f8"
        }
      }
    },
    {
      "fullUrl": "urn:uuid:a4206d54-c190-4688-aa36-8bcf1f07d6f8",
      "resource": {
        "resourceType": "Organization",
        "id": "a4206d54-c190-4688-aa36-8bcf1f07d6f8",
        "meta": {
          "profile": [
            "http://hl7.eu/fhir/base/StructureDefinition/organization-eu"
          ]
        },
        "identifier": [
          {
            "assigner": {
              "display": "HL7 Europe"
            },
            "system": "urn:oid:2.16.840.1.113883.2.51.999",
            "value": "724ff28d-c67a-4074-9768-c4ddcc224975"
          }
        ],
        "address": [
          {
            "line": [
              "Dudenser Straße 41A"
            ],
            "city": "Neustadt am Rübenberge",
            "postalCode": "31535",
            "country": "Germany"
          }
        ],
        "text": {
          "status": "generated",
          "div": "<div xmlns=\"http://www.w3.org/1999/xhtml\">Provider Organization: Landarztpraxis Dudensen</div>"
        },
        "name": "Landarztpraxis Dudensen"
      }
    },
    {
      "fullUrl": "urn:uuid:62fa060e-6a5b-473c-8f5a-ef3b259534b3",
      "resource": {
        "resourceType": "Specimen",
        "id": "62fa060e-6a5b-473c-8f5a-ef3b259534b3",
        "meta": {
          "profile": [
            "http://hl7.eu/fhir/laboratory/StructureDefinition/Specimen-eu-lab"
          ]
        },
        "collection": {
          "collectedDateTime": "2019-04-22"
        },
        "text": {
          "status": "generated",
          "div": "<div xmlns=\"http://www.w3.org/1999/xhtml\"><table class=\"hl7__eu__lab__report\"><tr><th>Specimen</th><th>Collection Date</th></tr><tr><td>Whole blood specimen (specimen)</td><td><span class=\"nb\">22-Apr-2019</span></td></tr></table></div>"
        },
        "type": {
          "coding": [
            {
              "code": "258580003",
              "system": "http://snomed.info/sct",
              "display": "Whole blood specimen (specimen)"
            }
          ]
        }
      }
    },
    {
      "fullUrl": "urn:uuid:93bb55ee-c60b-4a20-9664-86d92b4d1836",
      "resource": {
        "resourceType": "Specimen",
        "id": "93bb55ee-c60b-4a20-9664-86d92b4d1836",
        "meta": {
          "profile": [
            "http://hl7.eu/fhir/laboratory/StructureDefinition/Specimen-eu-lab"
          ]
        },
        "collection": {
          "collectedDateTime": "2019-04-22"
        },
        "text": {
          "status": "generated",
          "div": "<div xmlns=\"http://www.w3.org/1999/xhtml\"><table class=\"hl7__eu__lab__report\"><tr><th>Specimen</th><th>Collection Date</th></tr><tr><td>Acellular blood (serum or plasma) specimen</td><td><span class=\"nb\">22-Apr-2019</span></td></tr></table></div>"
        },
        "type": {
          "coding": [
            {
              "code": "122592007",
              "system": "http://snomed.info/sct",
              "display": "Acellular blood (serum or plasma) specimen"
            }
          ]
        }
      }
    },
    {
      "fullUrl": "urn:uuid:feb5f199-58c5-40f6-8463-ab1a726296e5",
      "resource": {
        "resourceType": "Specimen",
        "id": "feb5f199-58c5-40f6-8463-ab1a726296e5",
        "meta": {
          "profile": [
            "http://hl7.eu/fhir/laboratory/StructureDefinition/Specimen-eu-lab"
          ]
        },
        "collection": {
          "collectedDateTime": "2019-04-22"
        },
        "text": {
          "status": "generated",
          "div": "<div xmlns=\"http://www.w3.org/1999/xhtml\"><table class=\"hl7__eu__lab__report\"><tr><th>Specimen</th><th>Collection Date</th></tr><tr><td>Urine specimen</td><td><span class=\"nb\">22-Apr-2019</span></td></tr></table></div>"
        },
        "type": {
          "coding": [
            {
              "code": "122575003",
              "system": "http://snomed.info/sct",
              "display": "Urine specimen"
            }
          ]
        }
      }
    },
    {
      "fullUrl": "urn:uuid:2e04f5a0-e800-4d0f-849a-08c47779d7d7",
      "resource": {
        "resourceType": "Observation",
        "id": "2e04f5a0-e800-4d0f-849a-08c47779d7d7",
        "meta": {
          "profile": [
            "http://hl7.eu/fhir/laboratory/StructureDefinition/Observation-resultslab-eu-lab"
          ]
        },
        "performer": [
          {
            "display": "The Central European Lab"
          }
        ],
        "category": [
          {
            "coding": [
              {
                "system": "http://terminology.hl7.org/CodeSystem/observation-category",
                "code": "laboratory"
              }
            ]
          }
        ],
        "code": {
          "coding": [
            {
              "code": "4548-4",
              "system": "http://loinc.org",
              "display": "Hemoglobin A1c/Hemoglobin.total in Blood"
            }
          ],
          "text": "Hemoglobin A1c/Hemoglobin.total in Blood"
        },
        "valueQuantity": {
          "system": "http://unitsofmeasure.org",
          "value": 6.9,
          "unit": "%",
          "code": "%"
        },
        "referenceRange": [
          {
            "low": {
              "value": 4.8,
              "code": "%",
              "system": "http://unitsofmeasure.org"
            }
          },
          {
            "high": {
              "value": 5.7,
              "code": "%",
              "system": "http://unitsofmeasure.org"
            }
          }
        ],
        "interpretation": [
          {
            "coding": [
              {
                "code": "H",
                "system": "http://terminology.hl7.org/CodeSystem/v3-ObservationInterpretation",
                "display": "High"
              }
            ]
          }
        ],
        "text": {
          "status": "generated",
          "div": "<div xmlns=\"http://www.w3.org/1999/xhtml\"><table class=\"hl7__eu__lab__report\"><tr><th>Test</th><th>22-Apr-2019</th><th>Reference&#xA0;Range</th><th>Unit</th></tr><tr><td>Hemoglobin A1c/Hemoglobin.total in Blood</td><td>6.9</td><td>4.8 - 5.7</td><td>H</td><td>%</td></tr></table></div>"
        },
        "status": "final",
        "subject": {
          "reference": "urn:uuid:1c116446-de65-40b0-ac30-215bd611d43b",
          "display": "Stephen Weinhage"
        },
        "effectiveDateTime": "2019-04-22T06:55:50Z",
        "specimen": {
          "reference": "urn:uuid:62fa060e-6a5b-473c-8f5a-ef3b259534b3"
        }
      }
    },
    {
      "fullUrl": "urn:uuid:92415a82-b0ff-4774-b117-d6dc5be44675",
      "resource": {
        "resourceType": "Observation",
        "id": "92415a82-b0ff-4774-b117-d6dc5be44675",
        "meta": {
          "profile": [
            "http://hl7.eu/fhir/laboratory/StructureDefinition/Observation-resultslab-eu-lab"
          ]
        },
        "performer": [
          {
            "display": "The Central European Lab"
          }
        ],
        "category": [
          {
            "coding": [
              {
                "system": "http://terminology.hl7.org/CodeSystem/observation-category",
                "code": "laboratory"
              }
            ]
          }
        ],
        "code": {
          "coding": [
            {
              "code": "2339-0",
              "system": "http://loinc.org",
              "display": "Glucose [Mass/volume] in Blood"
            }
          ],
          "text": "Glucose [Mass/volume] in Blood"
        },
        "valueQuantity": {
          "system": "http://unitsofmeasure.org",
          "value": 123.7,
          "unit": "mg/dL",
          "code": "mg/dL"
        },
        "referenceRange": [
          {
            "low": {
              "value": 70,
              "code": "mg/dL",
              "system": "http://unitsofmeasure.org"
            }
          },
          {
            "high": {
              "value": 140,
              "code": "mg/dL",
              "system": "http://unitsofmeasure.org"
            }
          }
        ],
        "text": {
          "status": "generated",
          "div": "<div xmlns=\"http://www.w3.org/1999/xhtml\"><table class=\"hl7__eu__lab__report\"><tr><th>Test</th><th>22-Apr-2019</th><th>Reference&#xA0;Range</th><th>Unit</th></tr><tr><td>Glucose [Mass/volume] in Blood</td><td>123.7</td><td>70 - 140</td><td></td><td>mg/dL</td></tr></table></div>"
        },
        "status": "final",
        "subject": {
          "reference": "urn:uuid:1c116446-de65-40b0-ac30-215bd611d43b",
          "display": "Stephen Weinhage"
        },
        "effectiveDateTime": "2019-04-22T06:55:50Z",
        "specimen": {
          "reference": "urn:uuid:62fa060e-6a5b-473c-8f5a-ef3b259534b3"
        }
      }
    },
    {
      "fullUrl": "urn:uuid:7d4754ba-974e-4781-9d84-1860a08a05dd",
      "resource": {
        "resourceType": "Observation",
        "id": "7d4754ba-974e-4781-9d84-1860a08a05dd",
        "meta": {
          "profile": [
            "http://hl7.eu/fhir/laboratory/StructureDefinition/Observation-resultslab-eu-lab"
          ]
        },
        "performer": [
          {
            "display": "The Central European Lab"
          }
        ],
        "category": [
          {
            "coding": [
              {
                "system": "http://terminology.hl7.org/CodeSystem/observation-category",
                "code": "laboratory"
              }
            ]
          }
        ],
        "code": {
          "coding": [
            {
              "code": "6299-2",
              "system": "http://loinc.org",
              "display": "Urea nitrogen [Mass/volume] in Blood"
            }
          ],
          "text": "Urea nitrogen [Mass/volume] in Blood"
        },
        "valueQuantity": {
          "system": "http://unitsofmeasure.org",
          "value": 14.3,
          "unit": "mg/dL",
          "code": "mg/dL"
        },
        "referenceRange": [
          {
            "low": {
              "value": 7,
              "code": "mg/dL",
              "system": "http://unitsofmeasure.org"
            }
          },
          {
            "high": {
              "value": 20,
              "code": "mg/dL",
              "system": "http://unitsofmeasure.org"
            }
          }
        ],
        "text": {
          "status": "generated",
          "div": "<div xmlns=\"http://www.w3.org/1999/xhtml\"><table class=\"hl7__eu__lab__report\"><tr><th>Test</th><th>22-Apr-2019</th><th>Reference&#xA0;Range</th><th>Unit</th></tr><tr><td>Urea nitrogen [Mass/volume] in Blood</td><td>14.3</td><td>7 - 20</td><td></td><td>mg/dL</td></tr></table></div>"
        },
        "status": "final",
        "subject": {
          "reference": "urn:uuid:1c116446-de65-40b0-ac30-215bd611d43b",
          "display": "Stephen Weinhage"
        },
        "effectiveDateTime": "2019-04-22T06:55:50Z",
        "specimen": {
          "reference": "urn:uuid:62fa060e-6a5b-473c-8f5a-ef3b259534b3"
        }
      }
    },
    {
      "fullUrl": "urn:uuid:5bc091b9-57eb-4630-a45c-46ef5c8caa7f",
      "resource": {
        "resourceType": "Observation",
        "id": "5bc091b9-57eb-4630-a45c-46ef5c8caa7f",
        "meta": {
          "profile": [
            "http://hl7.eu/fhir/laboratory/StructureDefinition/Observation-resultslab-eu-lab"
          ]
        },
        "performer": [
          {
            "display": "The Central European Lab"
          }
        ],
        "category": [
          {
            "coding": [
              {
                "system": "http://terminology.hl7.org/CodeSystem/observation-category",
                "code": "laboratory"
              }
            ]
          }
        ],
        "code": {
          "coding": [
            {
              "code": "38483-4",
              "system": "http://loinc.org",
              "display": "Creatinine [Mass/volume] in Blood"
            }
          ],
          "text": "Creatinine [Mass/volume] in Blood"
        },
        "valueQuantity": {
          "system": "http://unitsofmeasure.org",
          "value": 0.8,
          "unit": "mg/dL",
          "code": "mg/dL"
        },
        "referenceRange": [
          {
            "low": {
              "value": 0.6,
              "code": "mg/dL",
              "system": "http://unitsofmeasure.org"
            }
          },
          {
            "high": {
              "value": 1.3,
              "code": "mg/dL",
              "system": "http://unitsofmeasure.org"
            }
          }
        ],
        "text": {
          "status": "generated",
          "div": "<div xmlns=\"http://www.w3.org/1999/xhtml\"><table class=\"hl7__eu__lab__report\"><tr><th>Test</th><th>22-Apr-2019</th><th>Reference&#xA0;Range</th><th>Unit</th></tr><tr><td>Creatinine [Mass/volume] in Blood</td><td>0.8</td><td>0.6 - 1.3</td><td></td><td>mg/dL</td></tr></table></div>"
        },
        "status": "final",
        "subject": {
          "reference": "urn:uuid:1c116446-de65-40b0-ac30-215bd611d43b",
          "display": "Stephen Weinhage"
        },
        "effectiveDateTime": "2019-04-22T06:55:50Z",
        "specimen": {
          "reference": "urn:uuid:62fa060e-6a5b-473c-8f5a-ef3b259534b3"
        }
      }
    },
    {
      "fullUrl": "urn:uuid:de46b5e5-a37a-4540-8a4e-2a45d7beb4bd",
      "resource": {
        "resourceType": "Observation",
        "id": "de46b5e5-a37a-4540-8a4e-2a45d7beb4bd",
        "meta": {
          "profile": [
            "http://hl7.eu/fhir/laboratory/StructureDefinition/Observation-resultslab-eu-lab"
          ]
        },
        "performer": [
          {
            "display": "The Central European Lab"
          }
        ],
        "category": [
          {
            "coding": [
              {
                "system": "http://terminology.hl7.org/CodeSystem/observation-category",
                "code": "laboratory"
              }
            ]
          }
        ],
        "code": {
          "coding": [
            {
              "code": "49765-1",
              "system": "http://loinc.org",
              "display": "Calcium [Mass/volume] in Blood"
            }
          ],
          "text": "Calcium [Mass/volume] in Blood"
        },
        "valueQuantity": {
          "system": "http://unitsofmeasure.org",
          "value": 8.8,
          "unit": "mg/dL",
          "code": "mg/dL"
        },
        "referenceRange": [
          {
            "low": {
              "value": 8.5,
              "code": "mg/dL",
              "system": "http://unitsofmeasure.org"
            }
          },
          {
            "high": {
              "value": 10.5,
              "code": "mg/dL",
              "system": "http://unitsofmeasure.org"
            }
          }
        ],
        "text": {
          "status": "generated",
          "div": "<div xmlns=\"http://www.w3.org/1999/xhtml\"><table class=\"hl7__eu__lab__report\"><tr><th>Test</th><th>22-Apr-2019</th><th>Reference&#xA0;Range</th><th>Unit</th></tr><tr><td>Calcium [Mass/volume] in Blood</td><td>8.8</td><td>8.5 - 10.5</td><td></td><td>mg/dL</td></tr></table></div>"
        },
        "status": "final",
        "subject": {
          "reference": "urn:uuid:1c116446-de65-40b0-ac30-215bd611d43b",
          "display": "Stephen Weinhage"
        },
        "effectiveDateTime": "2019-04-22T06:55:50Z",
        "specimen": {
          "reference": "urn:uuid:62fa060e-6a5b-473c-8f5a-ef3b259534b3"
        }
      }
    },
    {
      "fullUrl": "urn:uuid:09b8e398-777b-40e1-b296-e6b7d0510d3a",
      "resource": {
        "resourceType": "Observation",
        "id": "09b8e398-777b-40e1-b296-e6b7d0510d3a",
        "meta": {
          "profile": [
            "http://hl7.eu/fhir/laboratory/StructureDefinition/Observation-resultslab-eu-lab"
          ]
        },
        "performer": [
          {
            "display": "The Central European Lab"
          }
        ],
        "category": [
          {
            "coding": [
              {
                "system": "http://terminology.hl7.org/CodeSystem/observation-category",
                "code": "laboratory"
              }
            ]
          }
        ],
        "code": {
          "coding": [
            {
              "code": "2947-0",
              "system": "http://loinc.org",
              "display": "Sodium [Moles/volume] in Blood"
            }
          ],
          "text": "Sodium [Moles/volume] in Blood"
        },
        "valueQuantity": {
          "system": "http://unitsofmeasure.org",
          "value": 142.6,
          "unit": "mmol/L",
          "code": "mmol/L"
        },
        "referenceRange": [
          {
            "low": {
              "value": 135,
              "code": "mmol/L",
              "system": "http://unitsofmeasure.org"
            }
          },
          {
            "high": {
              "value": 145,
              "code": "mmol/L",
              "system": "http://unitsofmeasure.org"
            }
          }
        ],
        "text": {
          "status": "generated",
          "div": "<div xmlns=\"http://www.w3.org/1999/xhtml\"><table class=\"hl7__eu__lab__report\"><tr><th>Test</th><th>22-Apr-2019</th><th>Reference&#xA0;Range</th><th>Unit</th></tr><tr><td>Sodium [Moles/volume] in Blood</td><td>142.6</td><td>135 - 145</td><td></td><td>mmol/L</td></tr></table></div>"
        },
        "status": "final",
        "subject": {
          "reference": "urn:uuid:1c116446-de65-40b0-ac30-215bd611d43b",
          "display": "Stephen Weinhage"
        },
        "effectiveDateTime": "2019-04-22T06:55:50Z",
        "specimen": {
          "reference": "urn:uuid:62fa060e-6a5b-473c-8f5a-ef3b259534b3"
        }
      }
    },
    {
      "fullUrl": "urn:uuid:06076200-d58b-4a39-9e00-051dd644ae6e",
      "resource": {
        "resourceType": "Observation",
        "id": "06076200-d58b-4a39-9e00-051dd644ae6e",
        "meta": {
          "profile": [
            "http://hl7.eu/fhir/laboratory/StructureDefinition/Observation-resultslab-eu-lab"
          ]
        },
        "performer": [
          {
            "display": "The Central European Lab"
          }
        ],
        "category": [
          {
            "coding": [
              {
                "system": "http://terminology.hl7.org/CodeSystem/observation-category",
                "code": "laboratory"
              }
            ]
          }
        ],
        "code": {
          "coding": [
            {
              "code": "6298-4",
              "system": "http://loinc.org",
              "display": "Potassium [Moles/volume] in Blood"
            }
          ],
          "text": "Potassium [Moles/volume] in Blood"
        },
        "valueQuantity": {
          "system": "http://unitsofmeasure.org",
          "value": 4.2,
          "unit": "mmol/L",
          "code": "mmol/L"
        },
        "referenceRange": [
          {
            "low": {
              "value": 3.5,
              "code": "mmol/L",
              "system": "http://unitsofmeasure.org"
            }
          },
          {
            "high": {
              "value": 5.1,
              "code": "mmol/L",
              "system": "http://unitsofmeasure.org"
            }
          }
        ],
        "text": {
          "status": "generated",
          "div": "<div xmlns=\"http://www.w3.org/1999/xhtml\"><table class=\"hl7__eu__lab__report\"><tr><th>Test</th><th>22-Apr-2019</th><th>Reference&#xA0;Range</th><th>Unit</th></tr><tr><td>Potassium [Moles/volume] in Blood</td><td>4.2</td><td>3.5 - 5.1</td><td></td><td>mmol/L</td></tr></table></div>"
        },
        "status": "final",
        "subject": {
          "reference": "urn:uuid:1c116446-de65-40b0-ac30-215bd611d43b",
          "display": "Stephen Weinhage"
        },
        "effectiveDateTime": "2019-04-22T06:55:50Z",
        "specimen": {
          "reference": "urn:uuid:62fa060e-6a5b-473c-8f5a-ef3b259534b3"
        }
      }
    },
    {
      "fullUrl": "urn:uuid:339a475a-21bf-4c3d-86c8-d6f77e309227",
      "resource": {
        "resourceType": "Observation",
        "id": "339a475a-21bf-4c3d-86c8-d6f77e309227",
        "meta": {
          "profile": [
            "http://hl7.eu/fhir/laboratory/StructureDefinition/Observation-resultslab-eu-lab"
          ]
        },
        "performer": [
          {
            "display": "The Central European Lab"
          }
        ],
        "category": [
          {
            "coding": [
              {
                "system": "http://terminology.hl7.org/CodeSystem/observation-category",
                "code": "laboratory"
              }
            ]
          }
        ],
        "code": {
          "coding": [
            {
              "code": "2069-3",
              "system": "http://loinc.org",
              "display": "Chloride [Moles/volume] in Blood"
            }
          ],
          "text": "Chloride [Moles/volume] in Blood"
        },
        "valueQuantity": {
          "system": "http://unitsofmeasure.org",
          "value": 108.5,
          "unit": "mmol/L",
          "code": "mmol/L"
        },
        "referenceRange": [
          {
            "low": {
              "value": 98,
              "code": "mmol/L",
              "system": "http://unitsofmeasure.org"
            }
          },
          {
            "high": {
              "value": 108,
              "code": "mmol/L",
              "system": "http://unitsofmeasure.org"
            }
          }
        ],
        "interpretation": [
          {
            "coding": [
              {
                "code": "H",
                "system": "http://terminology.hl7.org/CodeSystem/v3-ObservationInterpretation",
                "display": "High"
              }
            ]
          }
        ],
        "text": {
          "status": "generated",
          "div": "<div xmlns=\"http://www.w3.org/1999/xhtml\"><table class=\"hl7__eu__lab__report\"><tr><th>Test</th><th>22-Apr-2019</th><th>Reference&#xA0;Range</th><th>Unit</th></tr><tr><td>Chloride [Moles/volume] in Blood</td><td>108.5</td><td>98 - 108</td><td>H</td><td>mmol/L</td></tr></table></div>"
        },
        "status": "final",
        "subject": {
          "reference": "urn:uuid:1c116446-de65-40b0-ac30-215bd611d43b",
          "display": "Stephen Weinhage"
        },
        "effectiveDateTime": "2019-04-22T06:55:50Z",
        "specimen": {
          "reference": "urn:uuid:62fa060e-6a5b-473c-8f5a-ef3b259534b3"
        }
      }
    },
    {
      "fullUrl": "urn:uuid:fcf32fc4-a94a-409c-98db-fbabedcef4d6",
      "resource": {
        "resourceType": "Observation",
        "id": "fcf32fc4-a94a-409c-98db-fbabedcef4d6",
        "meta": {
          "profile": [
            "http://hl7.eu/fhir/laboratory/StructureDefinition/Observation-resultslab-eu-lab"
          ]
        },
        "performer": [
          {
            "display": "The Central European Lab"
          }
        ],
        "category": [
          {
            "coding": [
              {
                "system": "http://terminology.hl7.org/CodeSystem/observation-category",
                "code": "laboratory"
              }
            ]
          }
        ],
        "code": {
          "coding": [
            {
              "code": "20565-8",
              "system": "http://loinc.org",
              "display": "Carbon dioxide, total [Moles/volume] in Blood"
            }
          ],
          "text": "Carbon dioxide, total [Moles/volume] in Blood"
        },
        "valueQuantity": {
          "system": "http://unitsofmeasure.org",
          "value": 20.1,
          "unit": "mmol/L",
          "code": "mmol/L"
        },
        "referenceRange": [
          {
            "low": {
              "value": 22,
              "code": "mmol/L",
              "system": "http://unitsofmeasure.org"
            }
          },
          {
            "high": {
              "value": 32,
              "code": "mmol/L",
              "system": "http://unitsofmeasure.org"
            }
          }
        ],
        "interpretation": [
          {
            "coding": [
              {
                "code": "L",
                "system": "http://terminology.hl7.org/CodeSystem/v3-ObservationInterpretation",
                "display": "Low"
              }
            ]
          }
        ],
        "text": {
          "status": "generated",
          "div": "<div xmlns=\"http://www.w3.org/1999/xhtml\"><table class=\"hl7__eu__lab__report\"><tr><th>Test</th><th>22-Apr-2019</th><th>Reference&#xA0;Range</th><th>Unit</th></tr><tr><td>Carbon dioxide, total [Moles/volume] in Blood</td><td>20.1</td><td>22 - 32</td><td>L</td><td>mmol/L</td></tr></table></div>"
        },
        "status": "final",
        "subject": {
          "reference": "urn:uuid:1c116446-de65-40b0-ac30-215bd611d43b",
          "display": "Stephen Weinhage"
        },
        "effectiveDateTime": "2019-04-22T06:55:50Z",
        "specimen": {
          "reference": "urn:uuid:62fa060e-6a5b-473c-8f5a-ef3b259534b3"
        }
      }
    },
    {
      "fullUrl": "urn:uuid:010a3936-c5e6-4dc1-bbe6-8298c150a36a",
      "resource": {
        "resourceType": "Observation",
        "id": "010a3936-c5e6-4dc1-bbe6-8298c150a36a",
        "meta": {
          "profile": [
            "http://hl7.eu/fhir/laboratory/StructureDefinition/Observation-resultslab-eu-lab"
          ]
        },
        "performer": [
          {
            "display": "The Central European Lab"
          }
        ],
        "category": [
          {
            "coding": [
              {
                "system": "http://terminology.hl7.org/CodeSystem/observation-category",
                "code": "laboratory"
              }
            ]
          }
        ],
        "code": {
          "coding": [
            {
              "code": "2093-3",
              "system": "http://loinc.org",
              "display": "Cholesterol [Mass/volume] in Serum or Plasma"
            }
          ],
          "text": "Cholesterol [Mass/volume] in Serum or Plasma"
        },
        "valueQuantity": {
          "system": "http://unitsofmeasure.org",
          "value": 202,
          "unit": "mg/dL",
          "code": "mg/dL"
        },
        "referenceRange": [
          {
            "low": {
              "value": 125,
              "code": "mg/dL",
              "system": "http://unitsofmeasure.org"
            }
          },
          {
            "high": {
              "value": 200,
              "code": "mg/dL",
              "system": "http://unitsofmeasure.org"
            }
          }
        ],
        "interpretation": [
          {
            "coding": [
              {
                "code": "H",
                "system": "http://terminology.hl7.org/CodeSystem/v3-ObservationInterpretation",
                "display": "High"
              }
            ]
          }
        ],
        "text": {
          "status": "generated",
          "div": "<div xmlns=\"http://www.w3.org/1999/xhtml\"><table class=\"hl7__eu__lab__report\"><tr><th>Test</th><th>22-Apr-2019</th><th>Reference&#xA0;Range</th><th>Unit</th></tr><tr><td>Cholesterol [Mass/volume] in Serum or Plasma</td><td>202.0</td><td>125 - 200</td><td>H</td><td>mg/dL</td></tr></table></div>"
        },
        "status": "final",
        "subject": {
          "reference": "urn:uuid:1c116446-de65-40b0-ac30-215bd611d43b",
          "display": "Stephen Weinhage"
        },
        "effectiveDateTime": "2019-04-22T06:55:50Z",
        "specimen": {
          "reference": "urn:uuid:93bb55ee-c60b-4a20-9664-86d92b4d1836"
        }
      }
    },
    {
      "fullUrl": "urn:uuid:cdab7711-d023-4ac8-8ecf-8507cee2032f",
      "resource": {
        "resourceType": "Observation",
        "id": "cdab7711-d023-4ac8-8ecf-8507cee2032f",
        "meta": {
          "profile": [
            "http://hl7.eu/fhir/laboratory/StructureDefinition/Observation-resultslab-eu-lab"
          ]
        },
        "performer": [
          {
            "display": "The Central European Lab"
          }
        ],
        "category": [
          {
            "coding": [
              {
                "system": "http://terminology.hl7.org/CodeSystem/observation-category",
                "code": "laboratory"
              }
            ]
          }
        ],
        "code": {
          "coding": [
            {
              "code": "2571-8",
              "system": "http://loinc.org",
              "display": "Triglyceride [Mass/volume] in Serum or Plasma"
            }
          ],
          "text": "Triglyceride [Mass/volume] in Serum or Plasma"
        },
        "valueQuantity": {
          "system": "http://unitsofmeasure.org",
          "value": 168.5,
          "unit": "mg/dL",
          "code": "mg/dL"
        },
        "referenceRange": [
          {
            "low": {
              "value": 40,
              "code": "mg/dL",
              "system": "http://unitsofmeasure.org"
            }
          },
          {
            "high": {
              "value": 150,
              "code": "mg/dL",
              "system": "http://unitsofmeasure.org"
            }
          }
        ],
        "interpretation": [
          {
            "coding": [
              {
                "code": "H",
                "system": "http://terminology.hl7.org/CodeSystem/v3-ObservationInterpretation",
                "display": "High"
              }
            ]
          }
        ],
        "text": {
          "status": "generated",
          "div": "<div xmlns=\"http://www.w3.org/1999/xhtml\"><table class=\"hl7__eu__lab__report\"><tr><th>Test</th><th>22-Apr-2019</th><th>Reference&#xA0;Range</th><th>Unit</th></tr><tr><td>Triglyceride [Mass/volume] in Serum or Plasma</td><td>168.5</td><td>40 - 150</td><td>H</td><td>mg/dL</td></tr></table></div>"
        },
        "status": "final",
        "subject": {
          "reference": "urn:uuid:1c116446-de65-40b0-ac30-215bd611d43b",
          "display": "Stephen Weinhage"
        },
        "effectiveDateTime": "2019-04-22T06:55:50Z",
        "specimen": {
          "reference": "urn:uuid:93bb55ee-c60b-4a20-9664-86d92b4d1836"
        }
      }
    },
    {
      "fullUrl": "urn:uuid:c80204e3-cd1e-4c3b-9a76-1e0b7534978d",
      "resource": {
        "resourceType": "Observation",
        "id": "c80204e3-cd1e-4c3b-9a76-1e0b7534978d",
        "meta": {
          "profile": [
            "http://hl7.eu/fhir/laboratory/StructureDefinition/Observation-resultslab-eu-lab"
          ]
        },
        "performer": [
          {
            "display": "The Central European Lab"
          }
        ],
        "category": [
          {
            "coding": [
              {
                "system": "http://terminology.hl7.org/CodeSystem/observation-category",
                "code": "laboratory"
              }
            ]
          }
        ],
        "code": {
          "coding": [
            {
              "code": "18262-6",
              "system": "http://loinc.org",
              "display": "Cholesterol in LDL [Mass/volume] in Serum or Plasma by Direct assay"
            }
          ],
          "text": "Cholesterol in LDL [Mass/volume] in Serum or Plasma by Direct assay"
        },
        "valueQuantity": {
          "system": "http://unitsofmeasure.org",
          "value": 118.3,
          "unit": "mg/dL",
          "code": "mg/dL"
        },
        "referenceRange": [
          {
            "low": {
              "value": 0,
              "code": "mg/dL",
              "system": "http://unitsofmeasure.org"
            }
          },
          {
            "high": {
              "value": 190,
              "code": "mg/dL",
              "system": "http://unitsofmeasure.org"
            }
          }
        ],
        "text": {
          "status": "generated",
          "div": "<div xmlns=\"http://www.w3.org/1999/xhtml\"><table class=\"hl7__eu__lab__report\"><tr><th>Test</th><th>22-Apr-2019</th><th>Reference&#xA0;Range</th><th>Unit</th></tr><tr><td>Cholesterol in LDL [Mass/volume] in Serum or Plasma by Direct assay</td><td>118.3</td><td>0 - 190</td><td></td><td>mg/dL</td></tr></table></div>"
        },
        "status": "final",
        "subject": {
          "reference": "urn:uuid:1c116446-de65-40b0-ac30-215bd611d43b",
          "display": "Stephen Weinhage"
        },
        "effectiveDateTime": "2019-04-22T06:55:50Z",
        "specimen": {
          "reference": "urn:uuid:93bb55ee-c60b-4a20-9664-86d92b4d1836"
        }
      }
    },
    {
      "fullUrl": "urn:uuid:3037e7c2-6aee-4f0a-9f05-93d9c6f9b9c6",
      "resource": {
        "resourceType": "Observation",
        "id": "3037e7c2-6aee-4f0a-9f05-93d9c6f9b9c6",
        "meta": {
          "profile": [
            "http://hl7.eu/fhir/laboratory/StructureDefinition/Observation-resultslab-eu-lab"
          ]
        },
        "performer": [
          {
            "display": "The Central European Lab"
          }
        ],
        "category": [
          {
            "coding": [
              {
                "system": "http://terminology.hl7.org/CodeSystem/observation-category",
                "code": "laboratory"
              }
            ]
          }
        ],
        "code": {
          "coding": [
            {
              "code": "2085-9",
              "system": "http://loinc.org",
              "display": "Cholesterol in HDL [Mass/volume] in Serum or Plasma"
            }
          ],
          "text": "Cholesterol in HDL [Mass/volume] in Serum or Plasma"
        },
        "valueQuantity": {
          "system": "http://unitsofmeasure.org",
          "value": 50,
          "unit": "mg/dL",
          "code": "mg/dL"
        },
        "referenceRange": [
          {
            "low": {
              "value": 40,
              "code": "mg/dL",
              "system": "http://unitsofmeasure.org"
            }
          },
          {
            "high": {
              "value": 60,
              "code": "mg/dL",
              "system": "http://unitsofmeasure.org"
            }
          }
        ],
        "text": {
          "status": "generated",
          "div": "<div xmlns=\"http://www.w3.org/1999/xhtml\"><table class=\"hl7__eu__lab__report\"><tr><th>Test</th><th>22-Apr-2019</th><th>Reference&#xA0;Range</th><th>Unit</th></tr><tr><td>Cholesterol in HDL [Mass/volume] in Serum or Plasma</td><td>50.0</td><td>40 - 60</td><td></td><td>mg/dL</td></tr></table></div>"
        },
        "status": "final",
        "subject": {
          "reference": "urn:uuid:1c116446-de65-40b0-ac30-215bd611d43b",
          "display": "Stephen Weinhage"
        },
        "effectiveDateTime": "2019-04-22T06:55:50Z",
        "specimen": {
          "reference": "urn:uuid:93bb55ee-c60b-4a20-9664-86d92b4d1836"
        }
      }
    },
    {
      "fullUrl": "urn:uuid:1e88e4fe-deef-4717-a1d2-fc0bda32a15c",
      "resource": {
        "resourceType": "Observation",
        "id": "1e88e4fe-deef-4717-a1d2-fc0bda32a15c",
        "meta": {
          "profile": [
            "http://hl7.eu/fhir/laboratory/StructureDefinition/Observation-resultslab-eu-lab"
          ]
        },
        "performer": [
          {
            "display": "The Central European Lab"
          }
        ],
        "category": [
          {
            "coding": [
              {
                "system": "http://terminology.hl7.org/CodeSystem/observation-category",
                "code": "laboratory"
              }
            ]
          }
        ],
        "code": {
          "coding": [
            {
              "code": "14959-1",
              "system": "http://loinc.org",
              "display": "Microalbumin/Creatinine [Mass Ratio] in Urine"
            }
          ],
          "text": "Microalbumin/Creatinine [Mass Ratio] in Urine"
        },
        "valueQuantity": {
          "system": "http://unitsofmeasure.org",
          "value": 9.4,
          "unit": "mg/g",
          "code": "mg/g"
        },
        "referenceRange": [
          {
            "low": {
              "value": 0,
              "code": "mg/g",
              "system": "http://unitsofmeasure.org"
            }
          },
          {
            "high": {
              "value": 30,
              "code": "mg/g",
              "system": "http://unitsofmeasure.org"
            }
          }
        ],
        "text": {
          "status": "generated",
          "div": "<div xmlns=\"http://www.w3.org/1999/xhtml\"><table class=\"hl7__eu__lab__report\"><tr><th>Test</th><th>22-Apr-2019</th><th>Reference&#xA0;Range</th><th>Unit</th></tr><tr><td>Microalbumin/Creatinine [Mass Ratio] in Urine</td><td>9.4</td><td>0 - 30</td><td></td><td>mg/g</td></tr></table></div>"
        },
        "status": "final",
        "subject": {
          "reference": "urn:uuid:1c116446-de65-40b0-ac30-215bd611d43b",
          "display": "Stephen Weinhage"
        },
        "effectiveDateTime": "2019-04-22T06:55:50Z",
        "specimen": {
          "reference": "urn:uuid:feb5f199-58c5-40f6-8463-ab1a726296e5"
        }
      }
    },
    {
      "fullUrl": "urn:uuid:ffffe2ff-4c98-4dd2-ad0e-645d09a380f8",
      "resource": {
        "resourceType": "Device",
        "id": "ffffe2ff-4c98-4dd2-ad0e-645d09a380f8",
        "deviceName": [
          {
            "name": "SYNDERAI Synthetic Generator",
            "type": "manufacturer-name"
          }
        ],
        "version": [
          {
            "value": "5.0"
          }
        ],
        "text": {
          "status": "generated",
          "div": "<div xmlns=\"http://www.w3.org/1999/xhtml\">SYNDERAI Synthetic Generator v5.0</div>"
        },
        "status": "active\"",
        "distinctIdentifier": "synderai-generator-50",
        "manufacturer": "SYNDERAI Project"
      }
    },
    {
      "fullUrl": "urn:uuid:f6bb38cf-1485-428d-b328-8e9f9fd111db",
      "resource": {
        "resourceType": "Provenance",
        "id": "f6bb38cf-1485-428d-b328-8e9f9fd111db",
        "target": [
          {
            "reference": "Patient/1c116446-de65-40b0-ac30-215bd611d43b"
          },
          {
            "reference": "Bundle/a61f3159-1775-4b2c-ba30-1a66bf0d9bcb"
          },
          {
            "reference": "Composition/5d174db6-6c61-4ead-9dff-821d992fe403"
          },
          {
            "reference": "PractitionerRole/6d9b80a9-8fc8-47a3-b698-1c6a40fca799"
          },
          {
            "reference": "Practitioner/10add63b-c638-4d37-aef7-0f1ba5d715bb"
          },
          {
            "reference": "PractitionerRole/8b552777-506e-4921-a8d5-0edfe01ed96d"
          },
          {
            "reference": "Organization/a4206d54-c190-4688-aa36-8bcf1f07d6f8"
          }
        ],
        "activity": {
          "text": "Synthetic Example Data Generation"
        },
        "policy": [
          "https://synderai.net/synderai-synthetic-data-policy"
        ],
        "agent": [
          {
            "type": {
              "text": "author"
            },
            "who": {
              "reference": "Device/ffffe2ff-4c98-4dd2-ad0e-645d09a380f8"
            }
          }
        ],
        "reason": [
          {
            "text": "Interoperability Testing and Training (non-clinical use)"
          }
        ],
        "text": {
          "status": "generated",
          "div": "<div xmlns=\"http://www.w3.org/1999/xhtml\">Provenance for SYNDERAI Synthetic Example Data Resource</div>"
        },
        "recorded": "2019-04-22T08:55:50Z"
      }
    },
    {
      "fullUrl": "urn:uuid:6d9b80a9-8fc8-47a3-b698-1c6a40fca799",
      "resource": {
        "resourceType": "PractitionerRole",
        "id": "6d9b80a9-8fc8-47a3-b698-1c6a40fca799",
        "meta": {
          "profile": [
            "http://hl7.eu/fhir/base/StructureDefinition/practitionerRole-eu"
          ]
        },
        "text": {
          "status": "generated",
          "div": "<div xmlns=\"http://www.w3.org/1999/xhtml\">Laboratory Role Id: 6d9b80a9-8fc8-47a3-b698-1c6a40fca799</div>"
        },
        "practitioner": {
          "reference": "urn:uuid:10add63b-c638-4d37-aef7-0f1ba5d715bb"
        }
      }
    },
    {
      "fullUrl": "urn:uuid:10add63b-c638-4d37-aef7-0f1ba5d715bb",
      "resource": {
        "resourceType": "Practitioner",
        "id": "10add63b-c638-4d37-aef7-0f1ba5d715bb",
        "meta": {
          "profile": [
            "http://hl7.eu/fhir/base/StructureDefinition/practitioner-eu"
          ]
        },
        "identifier": [
          {
            "assigner": {
              "display": "HL7 Europe"
            },
            "system": "urn:oid:2.16.840.1.113883.2.51.999",
            "value": "a5d9d246-3890-4c9b-b828-1cb50a04c972"
          }
        ],
        "name": [
          {
            "prefix": [
              "dr"
            ],
            "given": [
              "Ex"
            ],
            "family": "Ample"
          }
        ],
        "address": [
          {
            "line": [
              "Laboratoire Central Européenne",
              "Boulevard du Jardin Botanique 32"
            ],
            "postalCode": "1000",
            "city": "Brussels",
            "country": "Belgium"
          }
        ],
        "text": {
          "status": "generated",
          "div": "<div xmlns=\"http://www.w3.org/1999/xhtml\">Laboratory: Laboratoire Central Européenne, 1000 Brussels, Belgium</div>"
        }
      }
    }
  ],
  "type": "document",
  "timestamp": "2019-04-22T08:55:50Z"
}
