{
  "resourceType": "Bundle",
  "id": "930a0718-337c-4f56-a634-048546d87ccd",
  "meta": {
    "profile": [
      "http://hl7.eu/fhir/laboratory/StructureDefinition/Bundle-eu-lab"
    ]
  },
  "identifier": {
    "assigner": {
      "display": "HL7 Europe"
    },
    "system": "urn:oid:2.16.840.1.113883.2.51.999",
    "value": "4032fd06-07ad-42fa-8001-be52d4817f6d"
  },
  "entry": [
    {
      "fullUrl": "urn:uuid:04c97ebe-8b5b-49cf-bb7b-daca40310d60",
      "resource": {
        "resourceType": "Composition",
        "id": "04c97ebe-8b5b-49cf-bb7b-daca40310d60",
        "meta": {
          "profile": [
            "http://hl7.eu/fhir/laboratory/StructureDefinition/Composition-eu-lab"
          ]
        },
        "identifier": {
          "assigner": {
            "display": "HL7 Europe"
          },
          "system": "urn:oid:2.16.840.1.113883.2.51.999",
          "value": "a905c25f-a521-42f6-9ef9-e18ce194e130"
        },
        "author": [
          {
            "reference": "urn:uuid:80bd0458-59b7-4667-864f-d7b6215478cb"
          }
        ],
        "category": [
          {
            "coding": [
              {
                "code": "26436-6",
                "system": "http://loinc.org",
                "display": "Laboratory studies (set)"
              }
            ]
          }
        ],
        "type": {
          "coding": [
            {
              "code": "11502-2",
              "system": "http://loinc.org",
              "display": "Laboratory report"
            }
          ],
          "text": "Laboratory Report"
        },
        "section": [
          {
            "code": {
              "coding": [
                {
                  "code": "26436-6",
                  "system": "http://loinc.org",
                  "display": "Laboratory studies (set)"
                }
              ],
              "text": "Laboratory studies"
            },
            "section": [
              {
                "code": {
                  "coding": [
                    {
                      "code": "$18719-5",
                      "system": "http://loinc.org",
                      "display": "Chemistry studies (set)"
                    }
                  ],
                  "text": "Chemistry"
                },
                "entry": [
                  {
                    "reference": "urn:uuid:0830780c-519f-4cdd-b95b-37d15ae1b323"
                  },
                  {
                    "reference": "urn:uuid:9bc80204-9655-4b9f-9730-b3554ff395bf"
                  },
                  {
                    "reference": "urn:uuid:017ee955-1aba-4e79-8827-5bf8dd6510ff"
                  },
                  {
                    "reference": "urn:uuid:05f3de66-7ac6-4d95-bee0-88a0e0a2ec1a"
                  },
                  {
                    "reference": "urn:uuid:fe2a5846-e2b6-4522-80e6-b663b9055ae1"
                  },
                  {
                    "reference": "urn:uuid:bafba822-1de4-4871-aa9e-70c4a0fe551f"
                  },
                  {
                    "reference": "urn:uuid:85efcfb5-af83-450a-a6e8-840a9ef70b66"
                  },
                  {
                    "reference": "urn:uuid:df91c48d-c943-47b9-ae86-e08ad34618fc"
                  },
                  {
                    "reference": "urn:uuid:37b4b94f-e909-469a-b2d3-6ac8a01374af"
                  },
                  {
                    "reference": "urn:uuid:b7c20abf-fe40-41cb-8d71-61699de1107a"
                  },
                  {
                    "reference": "urn:uuid:446a7690-f175-4335-9478-b84893820a55"
                  },
                  {
                    "reference": "urn:uuid:91543f32-73e0-4d26-b59c-1401bd771440"
                  },
                  {
                    "reference": "urn:uuid:a0cf6790-68f9-466b-b616-21576a9487af"
                  },
                  {
                    "reference": "urn:uuid:545efbbf-6070-4de7-8ba9-ce3b6f9ad593"
                  },
                  {
                    "reference": "urn:uuid:d591b4e2-8671-4307-97d8-173b153e76a7"
                  },
                  {
                    "reference": "urn:uuid:7a9eb1bc-8021-4209-b2b8-4104046b8bb1"
                  },
                  {
                    "reference": "urn:uuid:c983e365-7914-4515-96d4-c4a5eeb9093c"
                  },
                  {
                    "reference": "urn:uuid:4174b60f-eb8d-4a7b-8732-ce2c25886eed"
                  },
                  {
                    "reference": "urn:uuid:f26d89f8-398d-4e46-8711-3acd6426a45c"
                  },
                  {
                    "reference": "urn:uuid:12ee3b63-4a69-46a6-b6c0-0c5fb0a09e4d"
                  },
                  {
                    "reference": "urn:uuid:037d1289-0a11-4a07-9a84-c40f7bcefde3"
                  },
                  {
                    "reference": "urn:uuid:6c5b3417-df3a-4422-88a3-e2a9f8921935"
                  }
                ],
                "text": {
                  "status": "generated",
                  "div": "<div xmlns=\"http://www.w3.org/1999/xhtml\"><h3>Chemistry</h3><table class=\"hl7__eu__lab__report\"><thead><tr><th>Test</th><th>20-MAR-2025</th><th>Reference&#xA0;Range</th><th>Unit</th></tr></thead><tbody><tr><td>Glucose [Mass/volume] in Serum or Plasma</td><td>73.2</td><td>70 - 140</td><td>mg/dL</td></tr><tr><td>Urea nitrogen [Mass/volume] in Serum or Plasma</td><td>8.8</td><td>7 - 25</td><td>mg/dL</td></tr><tr><td>Creatinine [Mass/volume] in Serum or Plasma</td><td><strong>2.1 H</strong></td><td>0.9 - 1.3</td><td>mg/dL</td></tr><tr><td>Calcium [Mass/volume] in Serum or Plasma</td><td>9.0</td><td>8.5 - 10.5</td><td>mg/dL</td></tr><tr><td>Sodium [Moles/volume] in Serum or Plasma</td><td>137.6</td><td>135 - 145</td><td>mmol/L</td></tr><tr><td>Potassium [Moles/volume] in Serum or Plasma</td><td>5.1</td><td>3.5 - 5.3</td><td>mmol/L</td></tr><tr><td>Chloride [Moles/volume] in Serum or Plasma</td><td>105.4</td><td>98 - 107</td><td>mmol/L</td></tr><tr><td>Carbon dioxide, total [Moles/volume] in Serum or Plasma</td><td>25.9</td><td>22 - 29</td><td>mmol/L</td></tr><tr><td>Ketones [Presence] in Urine by Test strip</td><td>Urine ketone test = +</td><td></td><td></td></tr><tr><td>Hemoglobin A1c/Hemoglobin.total in Blood</td><td><strong>3.1 L</strong></td><td>4.5 - 6.4</td><td>%</td></tr><tr><td>Glucose [Mass/volume] in Blood</td><td>73.2</td><td>70 - 140</td><td>mg/dL</td></tr><tr><td>Urea nitrogen [Mass/volume] in Blood</td><td>8.8</td><td>7 - 25</td><td>mg/dL</td></tr><tr><td>Creatinine [Mass/volume] in Blood</td><td><strong>2.2 H</strong></td><td>0.9 - 1.3</td><td>mg/dL</td></tr><tr><td>Calcium [Mass/volume] in Blood</td><td>9.0</td><td>8.6 - 10.2</td><td>mg/dL</td></tr><tr><td>Sodium [Moles/volume] in Blood</td><td>137.6</td><td>135 - 145</td><td>mmol/L</td></tr><tr><td>Potassium [Moles/volume] in Blood</td><td>5.1</td><td>3.5 - 5.1</td><td>mmol/L</td></tr><tr><td>Chloride [Moles/volume] in Blood</td><td>105.4</td><td>98 - 108</td><td>mmol/L</td></tr><tr><td>Carbon dioxide, total [Moles/volume] in Blood</td><td>25.9</td><td>22 - 32</td><td>mmol/L</td></tr><tr><td>Cholesterol [Mass/volume] in Serum or Plasma</td><td>160.3</td><td>0 - 200</td><td>mg/dL</td></tr><tr><td>Triglyceride [Mass/volume] in Serum or Plasma</td><td>143.9</td><td>0 - 199</td><td>mg/dL</td></tr><tr><td>Cholesterol in LDL [Mass/volume] in Serum or Plasma by Direct assay</td><td>78.2</td><td>0 - 130</td><td>mg/dL</td></tr><tr><td>Cholesterol in HDL [Mass/volume] in Serum or Plasma</td><td>53.3</td><td>40 - 65</td><td>mg/dL</td></tr></tbody></table></div>"
                },
                "title": "Chemistry"
              },
              {
                "code": {
                  "coding": [
                    {
                      "code": "$18729-4",
                      "system": "http://loinc.org",
                      "display": "Urinalysis studies (set)"
                    }
                  ],
                  "text": "Urinalysis"
                },
                "entry": [
                  {
                    "reference": "urn:uuid:367346a3-db40-4f5a-937e-d6d0900d5c0f"
                  },
                  {
                    "reference": "urn:uuid:3dc51c7c-42c2-4980-a36c-fc33acebbfa4"
                  },
                  {
                    "reference": "urn:uuid:4b9dfa1d-05b4-4e1e-bf4a-05ba5cb5000a"
                  },
                  {
                    "reference": "urn:uuid:989f6a30-483f-431a-a75b-d59b49d8c732"
                  },
                  {
                    "reference": "urn:uuid:67b4ad86-3935-401d-b2ed-422bf82c0b9b"
                  },
                  {
                    "reference": "urn:uuid:8a37d971-a6df-4d5f-8d6e-216dd1571e4a"
                  },
                  {
                    "reference": "urn:uuid:f316ac97-cc40-45fd-a7ad-77261142014a"
                  },
                  {
                    "reference": "urn:uuid:2e493e8a-27d3-41ec-81cb-53a2defd6c26"
                  },
                  {
                    "reference": "urn:uuid:f389a381-27d6-4676-950d-48e38cf0c6e9"
                  },
                  {
                    "reference": "urn:uuid:9e625d71-ce49-4a54-92bc-2a8d03b9e2f2"
                  },
                  {
                    "reference": "urn:uuid:9429964a-e797-4713-a67f-067bff3198d1"
                  },
                  {
                    "reference": "urn:uuid:7f32a62d-70bd-4b8f-9631-321b91b72a1b"
                  }
                ],
                "text": {
                  "status": "generated",
                  "div": "<div xmlns=\"http://www.w3.org/1999/xhtml\"><h3>Urinalysis</h3><table class=\"hl7__eu__lab__report\"><thead><tr><th>Test</th><th>20-MAR-2025</th><th>Reference&#xA0;Range</th><th>Unit</th></tr></thead><tbody><tr><td>Glucose [Mass/volume] in Urine by Test strip</td><td><strong>2.0 H</strong></td><td>0.8 - 0</td><td>mg/dL</td></tr><tr><td>Glucose [Presence] in Urine by Test strip</td><td>++</td><td></td><td></td></tr><tr><td>Bilirubin.total [Mass/volume] in Urine by Test strip</td><td>1.0</td><td>0.2 - 1.5</td><td>mg/dL</td></tr><tr><td>Bilirubin.total [Presence] in Urine by Test strip</td><td>Finding of bilirubin in urine</td><td></td><td></td></tr><tr><td>Ketones [Mass/volume] in Urine by Test strip</td><td><strong>18.6 H</strong></td><td>0 - 4</td><td>mg/dL</td></tr><tr><td>Specific gravity of Urine by Test strip</td><td><strong>1.0 L</strong></td><td>1.01 - 1.03</td><td>{nominal}</td></tr><tr><td>pH of Urine by Test strip</td><td>5.1</td><td>4.5 - 7.5</td><td>pH</td></tr><tr><td>Protein [Mass/volume] in Urine by Test strip</td><td><strong>157.7 H</strong></td><td>0 - 150</td><td>mg/dL</td></tr><tr><td>Protein [Presence] in Urine by Test strip</td><td>Urine protein test = ++</td><td></td><td></td></tr><tr><td>Nitrite [Presence] in Urine by Test strip</td><td>Urine nitrite negative</td><td></td><td></td></tr><tr><td>Hemoglobin [Presence] in Urine by Test strip</td><td>Urine blood test = negative</td><td></td><td></td></tr><tr><td>Leukocyte esterase [Presence] in Urine by Test strip</td><td>Urine leukocyte test negative</td><td></td><td></td></tr></tbody></table></div>"
                },
                "title": "Urinalysis"
              },
              {
                "code": {
                  "coding": [
                    {
                      "code": "$LP7846-1",
                      "system": "http://loinc.org",
                      "display": "Specimen information"
                    }
                  ],
                  "text": "Specimen information"
                },
                "entry": [
                  {
                    "reference": "urn:uuid:23c52be1-e846-4ba6-8b2c-9e84c54494b8"
                  },
                  {
                    "reference": "urn:uuid:1c348479-cb01-4615-915b-9e98428d26c0"
                  },
                  {
                    "reference": "urn:uuid:911eec07-b62f-43e1-a0c8-4dddc86f5393"
                  },
                  {
                    "reference": "urn:uuid:b8fe3423-5c61-449d-b8a8-49df11f2b3f1"
                  }
                ],
                "text": {
                  "status": "generated",
                  "div": "<div xmlns=\"http://www.w3.org/1999/xhtml\"><h3>Specimen information</h3><table class=\"hl7__eu__lab__report\"><thead><tr><th>Test</th><th>20-MAR-2025</th><th>Specimen</th><th></th></tr></thead><tbody><tr><td>Appearance of Urine</td><td>Cloudy urine</td><td>Urine</td><td></td></tr><tr><td>Odor of Urine</td><td>Urine smell ammoniacal</td><td>Urine</td><td></td></tr><tr><td>Clarity of Urine</td><td>Translucent</td><td>Urine</td><td></td></tr><tr><td>Color of Urine</td><td>Brown color</td><td>Urine</td><td></td></tr></tbody></table></div>"
                },
                "title": "Specimen information"
              }
            ],
            "title": "Laboratory Report"
          },
          {
            "text": {
              "status": "generated",
              "div": "<div xmlns=\"http://www.w3.org/1999/xhtml\"><h3>Annotation</h3><table class=\"hl7__eu__lab__report\"><tr><th>Conclusion and Recommendations based on this report and previous findings known to us</th></tr><tr><td>The patient shows elevated creatinine, proteinuria, glycosuria, ketonuria, and low urine specific gravity, suggesting impaired renal function with possible nephropathy. Low HbA1c with normoglycemia may indicate recent hypoglycemia or anemia. Urine findings (cloudy, brown, ammoniacal) raise suspicion for urinary tract pathology, though no infection markers are present. Recommend further renal evaluation and clinical correlation for possible chronic kidney disease and metabolic disturbances.</td></tr></table></div>"
            },
            "code": {
              "coding": [
                {
                  "system": "http://loinc.org",
                  "code": "48767-8",
                  "display": "Annotation comment"
                }
              ]
            },
            "title": "Annotation comment"
          }
        ],
        "status": "final",
        "subject": {
          "reference": "urn:uuid:e6e121e7-d4d8-4717-9708-d224e2f01649",
          "display": "Pelayo Casal"
        },
        "date": "2025-03-20T06:38:59Z",
        "title": "Laboratory Report",
        "confidentiality": "N"
      }
    },
    {
      "fullUrl": "urn:uuid:b1f08f90-4e26-45ef-859e-3743b655a674",
      "resource": {
        "resourceType": "DiagnosticReport",
        "id": "b1f08f90-4e26-45ef-859e-3743b655a674",
        "meta": {
          "profile": [
            "http://hl7.eu/fhir/laboratory/StructureDefinition/DiagnosticReport-eu-lab"
          ]
        },
        "identifier": [
          {
            "assigner": {
              "display": "HL7 Europe"
            },
            "system": "urn:oid:2.16.840.1.113883.2.51.999",
            "value": "a8fbdcaa-f8d2-4db1-a81a-5cc07c4a0523"
          }
        ],
        "extension": [
          {
            "url": "http://hl7.org/fhir/5.0/StructureDefinition/extension-DiagnosticReport.composition",
            "valueReference": {
              "reference": "urn:uuid:a905c25f-a521-42f6-9ef9-e18ce194e130"
            }
          }
        ],
        "category": [
          {
            "coding": [
              {
                "code": "26436-6",
                "system": "http://loinc.org",
                "display": "Laboratory studies (set)"
              }
            ]
          }
        ],
        "specimen": [
          {
            "reference": "urn:uuid:0fb6c39f-f896-4d80-889d-27876dd9c8c1"
          },
          {
            "reference": "urn:uuid:6ec9ce43-41b2-48f9-bb90-e000c02c0f68"
          },
          {
            "reference": "urn:uuid:f19d94e0-6b38-4a4e-9a4b-595069f2ae10"
          }
        ],
        "result": [
          {
            "reference": "urn:uuid:0830780c-519f-4cdd-b95b-37d15ae1b323"
          },
          {
            "reference": "urn:uuid:9bc80204-9655-4b9f-9730-b3554ff395bf"
          },
          {
            "reference": "urn:uuid:017ee955-1aba-4e79-8827-5bf8dd6510ff"
          },
          {
            "reference": "urn:uuid:05f3de66-7ac6-4d95-bee0-88a0e0a2ec1a"
          },
          {
            "reference": "urn:uuid:fe2a5846-e2b6-4522-80e6-b663b9055ae1"
          },
          {
            "reference": "urn:uuid:bafba822-1de4-4871-aa9e-70c4a0fe551f"
          },
          {
            "reference": "urn:uuid:85efcfb5-af83-450a-a6e8-840a9ef70b66"
          },
          {
            "reference": "urn:uuid:df91c48d-c943-47b9-ae86-e08ad34618fc"
          },
          {
            "reference": "urn:uuid:23c52be1-e846-4ba6-8b2c-9e84c54494b8"
          },
          {
            "reference": "urn:uuid:1c348479-cb01-4615-915b-9e98428d26c0"
          },
          {
            "reference": "urn:uuid:911eec07-b62f-43e1-a0c8-4dddc86f5393"
          },
          {
            "reference": "urn:uuid:b8fe3423-5c61-449d-b8a8-49df11f2b3f1"
          },
          {
            "reference": "urn:uuid:367346a3-db40-4f5a-937e-d6d0900d5c0f"
          },
          {
            "reference": "urn:uuid:3dc51c7c-42c2-4980-a36c-fc33acebbfa4"
          },
          {
            "reference": "urn:uuid:4b9dfa1d-05b4-4e1e-bf4a-05ba5cb5000a"
          },
          {
            "reference": "urn:uuid:989f6a30-483f-431a-a75b-d59b49d8c732"
          },
          {
            "reference": "urn:uuid:67b4ad86-3935-401d-b2ed-422bf82c0b9b"
          },
          {
            "reference": "urn:uuid:37b4b94f-e909-469a-b2d3-6ac8a01374af"
          },
          {
            "reference": "urn:uuid:8a37d971-a6df-4d5f-8d6e-216dd1571e4a"
          },
          {
            "reference": "urn:uuid:f316ac97-cc40-45fd-a7ad-77261142014a"
          },
          {
            "reference": "urn:uuid:2e493e8a-27d3-41ec-81cb-53a2defd6c26"
          },
          {
            "reference": "urn:uuid:f389a381-27d6-4676-950d-48e38cf0c6e9"
          },
          {
            "reference": "urn:uuid:9e625d71-ce49-4a54-92bc-2a8d03b9e2f2"
          },
          {
            "reference": "urn:uuid:9429964a-e797-4713-a67f-067bff3198d1"
          },
          {
            "reference": "urn:uuid:7f32a62d-70bd-4b8f-9631-321b91b72a1b"
          },
          {
            "reference": "urn:uuid:b7c20abf-fe40-41cb-8d71-61699de1107a"
          },
          {
            "reference": "urn:uuid:446a7690-f175-4335-9478-b84893820a55"
          },
          {
            "reference": "urn:uuid:91543f32-73e0-4d26-b59c-1401bd771440"
          },
          {
            "reference": "urn:uuid:a0cf6790-68f9-466b-b616-21576a9487af"
          },
          {
            "reference": "urn:uuid:545efbbf-6070-4de7-8ba9-ce3b6f9ad593"
          },
          {
            "reference": "urn:uuid:d591b4e2-8671-4307-97d8-173b153e76a7"
          },
          {
            "reference": "urn:uuid:7a9eb1bc-8021-4209-b2b8-4104046b8bb1"
          },
          {
            "reference": "urn:uuid:c983e365-7914-4515-96d4-c4a5eeb9093c"
          },
          {
            "reference": "urn:uuid:4174b60f-eb8d-4a7b-8732-ce2c25886eed"
          },
          {
            "reference": "urn:uuid:f26d89f8-398d-4e46-8711-3acd6426a45c"
          },
          {
            "reference": "urn:uuid:12ee3b63-4a69-46a6-b6c0-0c5fb0a09e4d"
          },
          {
            "reference": "urn:uuid:037d1289-0a11-4a07-9a84-c40f7bcefde3"
          },
          {
            "reference": "urn:uuid:6c5b3417-df3a-4422-88a3-e2a9f8921935"
          }
        ],
        "status": "registered",
        "code": {
          "coding": [
            {
              "code": "11502-2",
              "system": "http://loinc.org",
              "display": "Laboratory report"
            }
          ]
        },
        "subject": {
          "reference": "urn:uuid:e6e121e7-d4d8-4717-9708-d224e2f01649",
          "display": "Pelayo Casal"
        }
      }
    },
    {
      "fullUrl": "urn:uuid:e6e121e7-d4d8-4717-9708-d224e2f01649",
      "resource": {
        "resourceType": "Patient",
        "id": "e6e121e7-d4d8-4717-9708-d224e2f01649",
        "meta": {
          "security": [
            {
              "system": "http://terminology.hl7.org/CodeSystem/v3-ActReason",
              "code": "HTEST"
            },
            {
              "system": "http://terminology.hl7.org/CodeSystem/v3-ActReason",
              "code": "TRAIN"
            }
          ],
          "tag": [
            {
              "system": "https://synderai.net/fhir/CodeSystem/tags",
              "code": "synthetic",
              "display": "SYNDERAI Synthetic data"
            }
          ],
          "profile": [
            "http://hl7.eu/fhir/base/StructureDefinition/patient-eu-core"
          ]
        },
        "identifier": [
          {
            "type": {
              "coding": [
                {
                  "code": "PT",
                  "system": "http://terminology.hl7.org/CodeSystem/v2-0203"
                }
              ]
            },
            "system": "http://ec.europa.eu/identifier/eci",
            "value": "7707-510028-7"
          },
          {
            "type": {
              "coding": [
                {
                  "code": "MR",
                  "system": "http://terminology.hl7.org/CodeSystem/v2-0203"
                }
              ]
            },
            "system": "http://local.setting.eu/identifier",
            "value": "d88e82c6-df33-82d2-8538-f8b57da06491"
          }
        ],
        "name": [
          {
            "family": "Casal"
          },
          {
            "given": [
              "Pelayo"
            ]
          },
          {
            "text": "Pelayo Casal"
          }
        ],
        "address": [
          {
            "line": [
              "Callejón de Ignacio Pedrosa 67 Apt. 68 "
            ],
            "use": "home",
            "type": "physical",
            "postalCode": "35001",
            "city": "Las Palmas",
            "country": "Spain"
          }
        ],
        "telecom": [
          {
            "system": "phone",
            "value": "+34 875724898"
          }
        ],
        "extension": [
          {
            "url": "http://hl7.org/fhir/StructureDefinition/patient-nationality",
            "valueCodeableConcept": {
              "coding": [
                {
                  "code": "ES",
                  "system": "http://hl7.org/fhir/ValueSet/country"
                }
              ]
            }
          }
        ],
        "text": {
          "status": "generated",
          "div": "<div xmlns=\"http://www.w3.org/1999/xhtml\"><table class=\"hl7__ips\"><tr><td>Pelayo Casal</td><td>male</td><td>19-Apr-1940</td></tr></table></div>"
        },
        "gender": "male",
        "birthDate": "1940-04-19"
      }
    },
    {
      "fullUrl": "urn:uuid:c8cd7f90-22e3-412b-b20e-107141d1fd0b",
      "resource": {
        "resourceType": "ServiceRequest",
        "id": "c8cd7f90-22e3-412b-b20e-107141d1fd0b",
        "meta": {
          "profile": [
            "http://hl7.eu/fhir/laboratory/StructureDefinition/ServiceRequest-eu-lab"
          ]
        },
        "identifier": [
          {
            "system": "http://example.org",
            "value": "cd08f285-9236-450a-9575-efe8710661bb"
          }
        ],
        "specimen": [
          {
            "reference": "urn:uuid:0fb6c39f-f896-4d80-889d-27876dd9c8c1"
          },
          {
            "reference": "urn:uuid:6ec9ce43-41b2-48f9-bb90-e000c02c0f68"
          },
          {
            "reference": "urn:uuid:f19d94e0-6b38-4a4e-9a4b-595069f2ae10"
          }
        ],
        "reasonCode": [
          {
            "coding": [
              {
                "code": "431856006",
                "system": "http://snomed.info/sct",
                "display": "Chronic kidney disease stage 2"
              }
            ]
          },
          {
            "coding": [
              {
                "code": "90781000119102",
                "system": "http://snomed.info/sct",
                "display": "Microalbuminuria due to type 2 diabetes mellitus"
              }
            ]
          },
          {
            "coding": [
              {
                "code": "127013003",
                "system": "http://snomed.info/sct",
                "display": "Disorder of kidney due to diabetes mellitus"
              }
            ]
          },
          {
            "coding": [
              {
                "code": "431855005",
                "system": "http://snomed.info/sct",
                "display": "Chronic kidney disease stage 1"
              }
            ]
          },
          {
            "coding": [
              {
                "code": "64859006",
                "system": "http://snomed.info/sct",
                "display": "Osteoporosis"
              }
            ]
          },
          {
            "coding": [
              {
                "code": "414545008",
                "system": "http://snomed.info/sct",
                "display": "Ischemic heart disease"
              }
            ]
          },
          {
            "coding": [
              {
                "code": "237602007",
                "system": "http://snomed.info/sct",
                "display": "Metabolic syndrome X"
              }
            ]
          },
          {
            "coding": [
              {
                "code": "59621000",
                "system": "http://snomed.info/sct",
                "display": "Essential hypertension"
              }
            ]
          },
          {
            "coding": [
              {
                "code": "271737000",
                "system": "http://snomed.info/sct",
                "display": "Anemia"
              }
            ]
          },
          {
            "coding": [
              {
                "code": "15777000",
                "system": "http://snomed.info/sct",
                "display": "Prediabetes"
              }
            ]
          }
        ],
        "status": "active",
        "intent": "order",
        "code": {
          "coding": [
            {
              "code": "108252007",
              "system": "http://snomed.info/sct",
              "display": "Laboratory procedure"
            }
          ]
        },
        "subject": {
          "reference": "urn:uuid:e6e121e7-d4d8-4717-9708-d224e2f01649",
          "display": "Pelayo Casal"
        },
        "requester": {
          "reference": "urn:uuid:e257070f-4cd6-46c6-904f-268e3d0a7902"
        }
      }
    },
    {
      "fullUrl": "urn:uuid:e257070f-4cd6-46c6-904f-268e3d0a7902",
      "resource": {
        "resourceType": "PractitionerRole",
        "id": "e257070f-4cd6-46c6-904f-268e3d0a7902",
        "meta": {
          "profile": [
            "http://hl7.eu/fhir/base/StructureDefinition/practitionerRole-eu"
          ]
        },
        "text": {
          "status": "generated",
          "div": "<div xmlns=\"http://www.w3.org/1999/xhtml\">Provider Role Id: e257070f-4cd6-46c6-904f-268e3d0a7902</div>"
        },
        "organization": {
          "reference": "urn:uuid:96535b68-6721-4ba2-a5c7-d5fbda9b4592"
        }
      }
    },
    {
      "fullUrl": "urn:uuid:96535b68-6721-4ba2-a5c7-d5fbda9b4592",
      "resource": {
        "resourceType": "Organization",
        "id": "96535b68-6721-4ba2-a5c7-d5fbda9b4592",
        "meta": {
          "profile": [
            "http://hl7.eu/fhir/base/StructureDefinition/organization-eu"
          ]
        },
        "identifier": [
          {
            "assigner": {
              "display": "HL7 Europe"
            },
            "system": "urn:oid:2.16.840.1.113883.2.51.999",
            "value": "555afa40-658c-489a-88dd-c375bb76e00e"
          }
        ],
        "address": [
          {
            "country": "Spain"
          }
        ],
        "text": {
          "status": "generated",
          "div": "<div xmlns=\"http://www.w3.org/1999/xhtml\">Provider Organization: Centro de Salud de Guanarteme</div>"
        },
        "name": "Centro de Salud de Guanarteme"
      }
    },
    {
      "fullUrl": "urn:uuid:0fb6c39f-f896-4d80-889d-27876dd9c8c1",
      "resource": {
        "resourceType": "Specimen",
        "id": "0fb6c39f-f896-4d80-889d-27876dd9c8c1",
        "meta": {
          "profile": [
            "http://hl7.eu/fhir/laboratory/StructureDefinition/Specimen-eu-lab"
          ]
        },
        "collection": {
          "collectedDateTime": "2025-03-20"
        },
        "text": {
          "status": "generated",
          "div": "<div xmlns=\"http://www.w3.org/1999/xhtml\"><table class=\"hl7__eu__lab__report\"><tr><th>Specimen</th><th>Collection Date</th></tr><tr><td>Acellular blood (serum or plasma) specimen</td><td><span class=\"nb\">20-Mar-2025</span></td></tr></table></div>"
        },
        "type": {
          "coding": [
            {
              "code": "122592007",
              "system": "http://snomed.info/sct",
              "display": "Acellular blood (serum or plasma) specimen"
            }
          ]
        }
      }
    },
    {
      "fullUrl": "urn:uuid:6ec9ce43-41b2-48f9-bb90-e000c02c0f68",
      "resource": {
        "resourceType": "Specimen",
        "id": "6ec9ce43-41b2-48f9-bb90-e000c02c0f68",
        "meta": {
          "profile": [
            "http://hl7.eu/fhir/laboratory/StructureDefinition/Specimen-eu-lab"
          ]
        },
        "collection": {
          "collectedDateTime": "2025-03-20"
        },
        "text": {
          "status": "generated",
          "div": "<div xmlns=\"http://www.w3.org/1999/xhtml\"><table class=\"hl7__eu__lab__report\"><tr><th>Specimen</th><th>Collection Date</th></tr><tr><td>Urine specimen</td><td><span class=\"nb\">20-Mar-2025</span></td></tr></table></div>"
        },
        "type": {
          "coding": [
            {
              "code": "122575003",
              "system": "http://snomed.info/sct",
              "display": "Urine specimen"
            }
          ]
        }
      }
    },
    {
      "fullUrl": "urn:uuid:f19d94e0-6b38-4a4e-9a4b-595069f2ae10",
      "resource": {
        "resourceType": "Specimen",
        "id": "f19d94e0-6b38-4a4e-9a4b-595069f2ae10",
        "meta": {
          "profile": [
            "http://hl7.eu/fhir/laboratory/StructureDefinition/Specimen-eu-lab"
          ]
        },
        "collection": {
          "collectedDateTime": "2025-03-20"
        },
        "text": {
          "status": "generated",
          "div": "<div xmlns=\"http://www.w3.org/1999/xhtml\"><table class=\"hl7__eu__lab__report\"><tr><th>Specimen</th><th>Collection Date</th></tr><tr><td>Whole blood specimen (specimen)</td><td><span class=\"nb\">20-Mar-2025</span></td></tr></table></div>"
        },
        "type": {
          "coding": [
            {
              "code": "258580003",
              "system": "http://snomed.info/sct",
              "display": "Whole blood specimen (specimen)"
            }
          ]
        }
      }
    },
    {
      "fullUrl": "urn:uuid:0830780c-519f-4cdd-b95b-37d15ae1b323",
      "resource": {
        "resourceType": "Observation",
        "id": "0830780c-519f-4cdd-b95b-37d15ae1b323",
        "meta": {
          "profile": [
            "http://hl7.eu/fhir/laboratory/StructureDefinition/Observation-resultslab-eu-lab"
          ]
        },
        "performer": [
          {
            "display": "The Central European Lab"
          }
        ],
        "category": [
          {
            "coding": [
              {
                "system": "http://terminology.hl7.org/CodeSystem/observation-category",
                "code": "laboratory"
              }
            ]
          }
        ],
        "code": {
          "coding": [
            {
              "code": "2345-7",
              "system": "http://loinc.org",
              "display": "Glucose [Mass/volume] in Serum or Plasma"
            }
          ],
          "text": "Glucose [Mass/volume] in Serum or Plasma"
        },
        "valueQuantity": {
          "system": "http://unitsofmeasure.org",
          "value": 73.2,
          "unit": "mg/dL",
          "code": "mg/dL"
        },
        "referenceRange": [
          {
            "low": {
              "value": 70,
              "code": "mg/dL",
              "system": "http://unitsofmeasure.org"
            }
          },
          {
            "high": {
              "value": 140,
              "code": "mg/dL",
              "system": "http://unitsofmeasure.org"
            }
          }
        ],
        "text": {
          "status": "generated",
          "div": "<div xmlns=\"http://www.w3.org/1999/xhtml\"><table class=\"hl7__eu__lab__report\"><tr><th>Test</th><th>20-Mar-2025</th><th>Reference&#xA0;Range</th><th>Unit</th></tr><tr><td>Glucose [Mass/volume] in Serum or Plasma</td><td>73.2</td><td>70 - 140</td><td></td><td>mg/dL</td></tr></table></div>"
        },
        "status": "final",
        "subject": {
          "reference": "urn:uuid:e6e121e7-d4d8-4717-9708-d224e2f01649",
          "display": "Pelayo Casal"
        },
        "effectiveDateTime": "2025-03-20T05:38:59Z",
        "specimen": {
          "reference": "urn:uuid:0fb6c39f-f896-4d80-889d-27876dd9c8c1"
        }
      }
    },
    {
      "fullUrl": "urn:uuid:9bc80204-9655-4b9f-9730-b3554ff395bf",
      "resource": {
        "resourceType": "Observation",
        "id": "9bc80204-9655-4b9f-9730-b3554ff395bf",
        "meta": {
          "profile": [
            "http://hl7.eu/fhir/laboratory/StructureDefinition/Observation-resultslab-eu-lab"
          ]
        },
        "performer": [
          {
            "display": "The Central European Lab"
          }
        ],
        "category": [
          {
            "coding": [
              {
                "system": "http://terminology.hl7.org/CodeSystem/observation-category",
                "code": "laboratory"
              }
            ]
          }
        ],
        "code": {
          "coding": [
            {
              "code": "3094-0",
              "system": "http://loinc.org",
              "display": "Urea nitrogen [Mass/volume] in Serum or Plasma"
            }
          ],
          "text": "Urea nitrogen [Mass/volume] in Serum or Plasma"
        },
        "valueQuantity": {
          "system": "http://unitsofmeasure.org",
          "value": 8.8,
          "unit": "mg/dL",
          "code": "mg/dL"
        },
        "referenceRange": [
          {
            "low": {
              "value": 7,
              "code": "mg/dL",
              "system": "http://unitsofmeasure.org"
            }
          },
          {
            "high": {
              "value": 25,
              "code": "mg/dL",
              "system": "http://unitsofmeasure.org"
            }
          }
        ],
        "text": {
          "status": "generated",
          "div": "<div xmlns=\"http://www.w3.org/1999/xhtml\"><table class=\"hl7__eu__lab__report\"><tr><th>Test</th><th>20-Mar-2025</th><th>Reference&#xA0;Range</th><th>Unit</th></tr><tr><td>Urea nitrogen [Mass/volume] in Serum or Plasma</td><td>8.8</td><td>7 - 25</td><td></td><td>mg/dL</td></tr></table></div>"
        },
        "status": "final",
        "subject": {
          "reference": "urn:uuid:e6e121e7-d4d8-4717-9708-d224e2f01649",
          "display": "Pelayo Casal"
        },
        "effectiveDateTime": "2025-03-20T05:38:59Z",
        "specimen": {
          "reference": "urn:uuid:0fb6c39f-f896-4d80-889d-27876dd9c8c1"
        }
      }
    },
    {
      "fullUrl": "urn:uuid:017ee955-1aba-4e79-8827-5bf8dd6510ff",
      "resource": {
        "resourceType": "Observation",
        "id": "017ee955-1aba-4e79-8827-5bf8dd6510ff",
        "meta": {
          "profile": [
            "http://hl7.eu/fhir/laboratory/StructureDefinition/Observation-resultslab-eu-lab"
          ]
        },
        "performer": [
          {
            "display": "The Central European Lab"
          }
        ],
        "category": [
          {
            "coding": [
              {
                "system": "http://terminology.hl7.org/CodeSystem/observation-category",
                "code": "laboratory"
              }
            ]
          }
        ],
        "code": {
          "coding": [
            {
              "code": "2160-0",
              "system": "http://loinc.org",
              "display": "Creatinine [Mass/volume] in Serum or Plasma"
            }
          ],
          "text": "Creatinine [Mass/volume] in Serum or Plasma"
        },
        "valueQuantity": {
          "system": "http://unitsofmeasure.org",
          "value": 2.1,
          "unit": "mg/dL",
          "code": "mg/dL"
        },
        "referenceRange": [
          {
            "low": {
              "value": 0.9,
              "code": "mg/dL",
              "system": "http://unitsofmeasure.org"
            }
          },
          {
            "high": {
              "value": 1.3,
              "code": "mg/dL",
              "system": "http://unitsofmeasure.org"
            }
          }
        ],
        "interpretation": [
          {
            "coding": [
              {
                "code": "H",
                "system": "http://terminology.hl7.org/CodeSystem/v3-ObservationInterpretation",
                "display": "High"
              }
            ]
          }
        ],
        "text": {
          "status": "generated",
          "div": "<div xmlns=\"http://www.w3.org/1999/xhtml\"><table class=\"hl7__eu__lab__report\"><tr><th>Test</th><th>20-Mar-2025</th><th>Reference&#xA0;Range</th><th>Unit</th></tr><tr><td>Creatinine [Mass/volume] in Serum or Plasma</td><td>2.1</td><td>0.9 - 1.3</td><td>H</td><td>mg/dL</td></tr></table></div>"
        },
        "status": "final",
        "subject": {
          "reference": "urn:uuid:e6e121e7-d4d8-4717-9708-d224e2f01649",
          "display": "Pelayo Casal"
        },
        "effectiveDateTime": "2025-03-20T05:38:59Z",
        "specimen": {
          "reference": "urn:uuid:0fb6c39f-f896-4d80-889d-27876dd9c8c1"
        }
      }
    },
    {
      "fullUrl": "urn:uuid:05f3de66-7ac6-4d95-bee0-88a0e0a2ec1a",
      "resource": {
        "resourceType": "Observation",
        "id": "05f3de66-7ac6-4d95-bee0-88a0e0a2ec1a",
        "meta": {
          "profile": [
            "http://hl7.eu/fhir/laboratory/StructureDefinition/Observation-resultslab-eu-lab"
          ]
        },
        "performer": [
          {
            "display": "The Central European Lab"
          }
        ],
        "category": [
          {
            "coding": [
              {
                "system": "http://terminology.hl7.org/CodeSystem/observation-category",
                "code": "laboratory"
              }
            ]
          }
        ],
        "code": {
          "coding": [
            {
              "code": "17861-6",
              "system": "http://loinc.org",
              "display": "Calcium [Mass/volume] in Serum or Plasma"
            }
          ],
          "text": "Calcium [Mass/volume] in Serum or Plasma"
        },
        "valueQuantity": {
          "system": "http://unitsofmeasure.org",
          "value": 9,
          "unit": "mg/dL",
          "code": "mg/dL"
        },
        "referenceRange": [
          {
            "low": {
              "value": 8.5,
              "code": "mg/dL",
              "system": "http://unitsofmeasure.org"
            }
          },
          {
            "high": {
              "value": 10.5,
              "code": "mg/dL",
              "system": "http://unitsofmeasure.org"
            }
          }
        ],
        "text": {
          "status": "generated",
          "div": "<div xmlns=\"http://www.w3.org/1999/xhtml\"><table class=\"hl7__eu__lab__report\"><tr><th>Test</th><th>20-Mar-2025</th><th>Reference&#xA0;Range</th><th>Unit</th></tr><tr><td>Calcium [Mass/volume] in Serum or Plasma</td><td>9.0</td><td>8.5 - 10.5</td><td></td><td>mg/dL</td></tr></table></div>"
        },
        "status": "final",
        "subject": {
          "reference": "urn:uuid:e6e121e7-d4d8-4717-9708-d224e2f01649",
          "display": "Pelayo Casal"
        },
        "effectiveDateTime": "2025-03-20T05:38:59Z",
        "specimen": {
          "reference": "urn:uuid:0fb6c39f-f896-4d80-889d-27876dd9c8c1"
        }
      }
    },
    {
      "fullUrl": "urn:uuid:fe2a5846-e2b6-4522-80e6-b663b9055ae1",
      "resource": {
        "resourceType": "Observation",
        "id": "fe2a5846-e2b6-4522-80e6-b663b9055ae1",
        "meta": {
          "profile": [
            "http://hl7.eu/fhir/laboratory/StructureDefinition/Observation-resultslab-eu-lab"
          ]
        },
        "performer": [
          {
            "display": "The Central European Lab"
          }
        ],
        "category": [
          {
            "coding": [
              {
                "system": "http://terminology.hl7.org/CodeSystem/observation-category",
                "code": "laboratory"
              }
            ]
          }
        ],
        "code": {
          "coding": [
            {
              "code": "2951-2",
              "system": "http://loinc.org",
              "display": "Sodium [Moles/volume] in Serum or Plasma"
            }
          ],
          "text": "Sodium [Moles/volume] in Serum or Plasma"
        },
        "valueQuantity": {
          "system": "http://unitsofmeasure.org",
          "value": 137.6,
          "unit": "mmol/L",
          "code": "mmol/L"
        },
        "referenceRange": [
          {
            "low": {
              "value": 135,
              "code": "mmol/L",
              "system": "http://unitsofmeasure.org"
            }
          },
          {
            "high": {
              "value": 145,
              "code": "mmol/L",
              "system": "http://unitsofmeasure.org"
            }
          }
        ],
        "text": {
          "status": "generated",
          "div": "<div xmlns=\"http://www.w3.org/1999/xhtml\"><table class=\"hl7__eu__lab__report\"><tr><th>Test</th><th>20-Mar-2025</th><th>Reference&#xA0;Range</th><th>Unit</th></tr><tr><td>Sodium [Moles/volume] in Serum or Plasma</td><td>137.6</td><td>135 - 145</td><td></td><td>mmol/L</td></tr></table></div>"
        },
        "status": "final",
        "subject": {
          "reference": "urn:uuid:e6e121e7-d4d8-4717-9708-d224e2f01649",
          "display": "Pelayo Casal"
        },
        "effectiveDateTime": "2025-03-20T05:38:59Z",
        "specimen": {
          "reference": "urn:uuid:0fb6c39f-f896-4d80-889d-27876dd9c8c1"
        }
      }
    },
    {
      "fullUrl": "urn:uuid:bafba822-1de4-4871-aa9e-70c4a0fe551f",
      "resource": {
        "resourceType": "Observation",
        "id": "bafba822-1de4-4871-aa9e-70c4a0fe551f",
        "meta": {
          "profile": [
            "http://hl7.eu/fhir/laboratory/StructureDefinition/Observation-resultslab-eu-lab"
          ]
        },
        "performer": [
          {
            "display": "The Central European Lab"
          }
        ],
        "category": [
          {
            "coding": [
              {
                "system": "http://terminology.hl7.org/CodeSystem/observation-category",
                "code": "laboratory"
              }
            ]
          }
        ],
        "code": {
          "coding": [
            {
              "code": "2823-3",
              "system": "http://loinc.org",
              "display": "Potassium [Moles/volume] in Serum or Plasma"
            }
          ],
          "text": "Potassium [Moles/volume] in Serum or Plasma"
        },
        "valueQuantity": {
          "system": "http://unitsofmeasure.org",
          "value": 5.1,
          "unit": "mmol/L",
          "code": "mmol/L"
        },
        "referenceRange": [
          {
            "low": {
              "value": 3.5,
              "code": "mmol/L",
              "system": "http://unitsofmeasure.org"
            }
          },
          {
            "high": {
              "value": 5.3,
              "code": "mmol/L",
              "system": "http://unitsofmeasure.org"
            }
          }
        ],
        "text": {
          "status": "generated",
          "div": "<div xmlns=\"http://www.w3.org/1999/xhtml\"><table class=\"hl7__eu__lab__report\"><tr><th>Test</th><th>20-Mar-2025</th><th>Reference&#xA0;Range</th><th>Unit</th></tr><tr><td>Potassium [Moles/volume] in Serum or Plasma</td><td>5.1</td><td>3.5 - 5.3</td><td></td><td>mmol/L</td></tr></table></div>"
        },
        "status": "final",
        "subject": {
          "reference": "urn:uuid:e6e121e7-d4d8-4717-9708-d224e2f01649",
          "display": "Pelayo Casal"
        },
        "effectiveDateTime": "2025-03-20T05:38:59Z",
        "specimen": {
          "reference": "urn:uuid:0fb6c39f-f896-4d80-889d-27876dd9c8c1"
        }
      }
    },
    {
      "fullUrl": "urn:uuid:85efcfb5-af83-450a-a6e8-840a9ef70b66",
      "resource": {
        "resourceType": "Observation",
        "id": "85efcfb5-af83-450a-a6e8-840a9ef70b66",
        "meta": {
          "profile": [
            "http://hl7.eu/fhir/laboratory/StructureDefinition/Observation-resultslab-eu-lab"
          ]
        },
        "performer": [
          {
            "display": "The Central European Lab"
          }
        ],
        "category": [
          {
            "coding": [
              {
                "system": "http://terminology.hl7.org/CodeSystem/observation-category",
                "code": "laboratory"
              }
            ]
          }
        ],
        "code": {
          "coding": [
            {
              "code": "2075-0",
              "system": "http://loinc.org",
              "display": "Chloride [Moles/volume] in Serum or Plasma"
            }
          ],
          "text": "Chloride [Moles/volume] in Serum or Plasma"
        },
        "valueQuantity": {
          "system": "http://unitsofmeasure.org",
          "value": 105.4,
          "unit": "mmol/L",
          "code": "mmol/L"
        },
        "referenceRange": [
          {
            "low": {
              "value": 98,
              "code": "mmol/L",
              "system": "http://unitsofmeasure.org"
            }
          },
          {
            "high": {
              "value": 107,
              "code": "mmol/L",
              "system": "http://unitsofmeasure.org"
            }
          }
        ],
        "text": {
          "status": "generated",
          "div": "<div xmlns=\"http://www.w3.org/1999/xhtml\"><table class=\"hl7__eu__lab__report\"><tr><th>Test</th><th>20-Mar-2025</th><th>Reference&#xA0;Range</th><th>Unit</th></tr><tr><td>Chloride [Moles/volume] in Serum or Plasma</td><td>105.4</td><td>98 - 107</td><td></td><td>mmol/L</td></tr></table></div>"
        },
        "status": "final",
        "subject": {
          "reference": "urn:uuid:e6e121e7-d4d8-4717-9708-d224e2f01649",
          "display": "Pelayo Casal"
        },
        "effectiveDateTime": "2025-03-20T05:38:59Z",
        "specimen": {
          "reference": "urn:uuid:0fb6c39f-f896-4d80-889d-27876dd9c8c1"
        }
      }
    },
    {
      "fullUrl": "urn:uuid:df91c48d-c943-47b9-ae86-e08ad34618fc",
      "resource": {
        "resourceType": "Observation",
        "id": "df91c48d-c943-47b9-ae86-e08ad34618fc",
        "meta": {
          "profile": [
            "http://hl7.eu/fhir/laboratory/StructureDefinition/Observation-resultslab-eu-lab"
          ]
        },
        "performer": [
          {
            "display": "The Central European Lab"
          }
        ],
        "category": [
          {
            "coding": [
              {
                "system": "http://terminology.hl7.org/CodeSystem/observation-category",
                "code": "laboratory"
              }
            ]
          }
        ],
        "code": {
          "coding": [
            {
              "code": "2028-9",
              "system": "http://loinc.org",
              "display": "Carbon dioxide, total [Moles/volume] in Serum or Plasma"
            }
          ],
          "text": "Carbon dioxide, total [Moles/volume] in Serum or Plasma"
        },
        "valueQuantity": {
          "system": "http://unitsofmeasure.org",
          "value": 25.9,
          "unit": "mmol/L",
          "code": "mmol/L"
        },
        "referenceRange": [
          {
            "low": {
              "value": 22,
              "code": "mmol/L",
              "system": "http://unitsofmeasure.org"
            }
          },
          {
            "high": {
              "value": 29,
              "code": "mmol/L",
              "system": "http://unitsofmeasure.org"
            }
          }
        ],
        "text": {
          "status": "generated",
          "div": "<div xmlns=\"http://www.w3.org/1999/xhtml\"><table class=\"hl7__eu__lab__report\"><tr><th>Test</th><th>20-Mar-2025</th><th>Reference&#xA0;Range</th><th>Unit</th></tr><tr><td>Carbon dioxide, total [Moles/volume] in Serum or Plasma</td><td>25.9</td><td>22 - 29</td><td></td><td>mmol/L</td></tr></table></div>"
        },
        "status": "final",
        "subject": {
          "reference": "urn:uuid:e6e121e7-d4d8-4717-9708-d224e2f01649",
          "display": "Pelayo Casal"
        },
        "effectiveDateTime": "2025-03-20T05:38:59Z",
        "specimen": {
          "reference": "urn:uuid:0fb6c39f-f896-4d80-889d-27876dd9c8c1"
        }
      }
    },
    {
      "fullUrl": "urn:uuid:23c52be1-e846-4ba6-8b2c-9e84c54494b8",
      "resource": {
        "resourceType": "Observation",
        "id": "23c52be1-e846-4ba6-8b2c-9e84c54494b8",
        "meta": {
          "profile": [
            "http://hl7.eu/fhir/laboratory/StructureDefinition/Observation-resultslab-eu-lab"
          ]
        },
        "performer": [
          {
            "display": "The Central European Lab"
          }
        ],
        "category": [
          {
            "coding": [
              {
                "system": "http://terminology.hl7.org/CodeSystem/observation-category",
                "code": "laboratory"
              }
            ]
          }
        ],
        "code": {
          "coding": [
            {
              "code": "5767-9",
              "system": "http://loinc.org",
              "display": "Appearance of Urine"
            }
          ],
          "text": "Appearance of Urine"
        },
        "text": {
          "status": "generated",
          "div": "<div xmlns=\"http://www.w3.org/1999/xhtml\"><table class=\"hl7__eu__lab__report\"><tr><th>Test</th><th>20-Mar-2025</th><th>Reference&#xA0;Range</th><th>Unit</th></tr><tr><td>Appearance of Urine</td></tr></table></div>"
        },
        "status": "final",
        "subject": {
          "reference": "urn:uuid:e6e121e7-d4d8-4717-9708-d224e2f01649",
          "display": "Pelayo Casal"
        },
        "effectiveDateTime": "2025-03-20T05:38:59Z",
        "specimen": {
          "reference": "urn:uuid:6ec9ce43-41b2-48f9-bb90-e000c02c0f68"
        }
      }
    },
    {
      "fullUrl": "urn:uuid:1c348479-cb01-4615-915b-9e98428d26c0",
      "resource": {
        "resourceType": "Observation",
        "id": "1c348479-cb01-4615-915b-9e98428d26c0",
        "meta": {
          "profile": [
            "http://hl7.eu/fhir/laboratory/StructureDefinition/Observation-resultslab-eu-lab"
          ]
        },
        "performer": [
          {
            "display": "The Central European Lab"
          }
        ],
        "category": [
          {
            "coding": [
              {
                "system": "http://terminology.hl7.org/CodeSystem/observation-category",
                "code": "laboratory"
              }
            ]
          }
        ],
        "code": {
          "coding": [
            {
              "code": "34533-0",
              "system": "http://loinc.org",
              "display": "Odor of Urine"
            }
          ],
          "text": "Odor of Urine"
        },
        "text": {
          "status": "generated",
          "div": "<div xmlns=\"http://www.w3.org/1999/xhtml\"><table class=\"hl7__eu__lab__report\"><tr><th>Test</th><th>20-Mar-2025</th><th>Reference&#xA0;Range</th><th>Unit</th></tr><tr><td>Odor of Urine</td></tr></table></div>"
        },
        "status": "final",
        "subject": {
          "reference": "urn:uuid:e6e121e7-d4d8-4717-9708-d224e2f01649",
          "display": "Pelayo Casal"
        },
        "effectiveDateTime": "2025-03-20T05:38:59Z",
        "specimen": {
          "reference": "urn:uuid:6ec9ce43-41b2-48f9-bb90-e000c02c0f68"
        }
      }
    },
    {
      "fullUrl": "urn:uuid:911eec07-b62f-43e1-a0c8-4dddc86f5393",
      "resource": {
        "resourceType": "Observation",
        "id": "911eec07-b62f-43e1-a0c8-4dddc86f5393",
        "meta": {
          "profile": [
            "http://hl7.eu/fhir/laboratory/StructureDefinition/Observation-resultslab-eu-lab"
          ]
        },
        "performer": [
          {
            "display": "The Central European Lab"
          }
        ],
        "category": [
          {
            "coding": [
              {
                "system": "http://terminology.hl7.org/CodeSystem/observation-category",
                "code": "laboratory"
              }
            ]
          }
        ],
        "code": {
          "coding": [
            {
              "code": "32167-9",
              "system": "http://loinc.org",
              "display": "Clarity of Urine"
            }
          ],
          "text": "Clarity of Urine"
        },
        "text": {
          "status": "generated",
          "div": "<div xmlns=\"http://www.w3.org/1999/xhtml\"><table class=\"hl7__eu__lab__report\"><tr><th>Test</th><th>20-Mar-2025</th><th>Reference&#xA0;Range</th><th>Unit</th></tr><tr><td>Clarity of Urine</td></tr></table></div>"
        },
        "status": "final",
        "subject": {
          "reference": "urn:uuid:e6e121e7-d4d8-4717-9708-d224e2f01649",
          "display": "Pelayo Casal"
        },
        "effectiveDateTime": "2025-03-20T05:38:59Z",
        "specimen": {
          "reference": "urn:uuid:6ec9ce43-41b2-48f9-bb90-e000c02c0f68"
        }
      }
    },
    {
      "fullUrl": "urn:uuid:b8fe3423-5c61-449d-b8a8-49df11f2b3f1",
      "resource": {
        "resourceType": "Observation",
        "id": "b8fe3423-5c61-449d-b8a8-49df11f2b3f1",
        "meta": {
          "profile": [
            "http://hl7.eu/fhir/laboratory/StructureDefinition/Observation-resultslab-eu-lab"
          ]
        },
        "performer": [
          {
            "display": "The Central European Lab"
          }
        ],
        "category": [
          {
            "coding": [
              {
                "system": "http://terminology.hl7.org/CodeSystem/observation-category",
                "code": "laboratory"
              }
            ]
          }
        ],
        "code": {
          "coding": [
            {
              "code": "5778-6",
              "system": "http://loinc.org",
              "display": "Color of Urine"
            }
          ],
          "text": "Color of Urine"
        },
        "text": {
          "status": "generated",
          "div": "<div xmlns=\"http://www.w3.org/1999/xhtml\"><table class=\"hl7__eu__lab__report\"><tr><th>Test</th><th>20-Mar-2025</th><th>Reference&#xA0;Range</th><th>Unit</th></tr><tr><td>Color of Urine</td></tr></table></div>"
        },
        "status": "final",
        "subject": {
          "reference": "urn:uuid:e6e121e7-d4d8-4717-9708-d224e2f01649",
          "display": "Pelayo Casal"
        },
        "effectiveDateTime": "2025-03-20T05:38:59Z",
        "specimen": {
          "reference": "urn:uuid:6ec9ce43-41b2-48f9-bb90-e000c02c0f68"
        }
      }
    },
    {
      "fullUrl": "urn:uuid:367346a3-db40-4f5a-937e-d6d0900d5c0f",
      "resource": {
        "resourceType": "Observation",
        "id": "367346a3-db40-4f5a-937e-d6d0900d5c0f",
        "meta": {
          "profile": [
            "http://hl7.eu/fhir/laboratory/StructureDefinition/Observation-resultslab-eu-lab"
          ]
        },
        "performer": [
          {
            "display": "The Central European Lab"
          }
        ],
        "category": [
          {
            "coding": [
              {
                "system": "http://terminology.hl7.org/CodeSystem/observation-category",
                "code": "laboratory"
              }
            ]
          }
        ],
        "code": {
          "coding": [
            {
              "code": "5792-7",
              "system": "http://loinc.org",
              "display": "Glucose [Mass/volume] in Urine by Test strip"
            }
          ],
          "text": "Glucose [Mass/volume] in Urine by Test strip"
        },
        "valueQuantity": {
          "system": "http://unitsofmeasure.org",
          "value": 2,
          "unit": "mg/dL",
          "code": "mg/dL"
        },
        "referenceRange": [
          {
            "low": {
              "value": 0.8,
              "code": "mg/dL",
              "system": "http://unitsofmeasure.org"
            }
          },
          {
            "high": {
              "value": 0,
              "code": "mg/dL",
              "system": "http://unitsofmeasure.org"
            }
          }
        ],
        "interpretation": [
          {
            "coding": [
              {
                "code": "H",
                "system": "http://terminology.hl7.org/CodeSystem/v3-ObservationInterpretation",
                "display": "High"
              }
            ]
          }
        ],
        "text": {
          "status": "generated",
          "div": "<div xmlns=\"http://www.w3.org/1999/xhtml\"><table class=\"hl7__eu__lab__report\"><tr><th>Test</th><th>20-Mar-2025</th><th>Reference&#xA0;Range</th><th>Unit</th></tr><tr><td>Glucose [Mass/volume] in Urine by Test strip</td><td>2.0</td><td>0.8 - 0</td><td>H</td><td>mg/dL</td></tr></table></div>"
        },
        "status": "final",
        "subject": {
          "reference": "urn:uuid:e6e121e7-d4d8-4717-9708-d224e2f01649",
          "display": "Pelayo Casal"
        },
        "effectiveDateTime": "2025-03-20T05:38:59Z",
        "specimen": {
          "reference": "urn:uuid:6ec9ce43-41b2-48f9-bb90-e000c02c0f68"
        }
      }
    },
    {
      "fullUrl": "urn:uuid:3dc51c7c-42c2-4980-a36c-fc33acebbfa4",
      "resource": {
        "resourceType": "Observation",
        "id": "3dc51c7c-42c2-4980-a36c-fc33acebbfa4",
        "meta": {
          "profile": [
            "http://hl7.eu/fhir/laboratory/StructureDefinition/Observation-resultslab-eu-lab"
          ]
        },
        "performer": [
          {
            "display": "The Central European Lab"
          }
        ],
        "category": [
          {
            "coding": [
              {
                "system": "http://terminology.hl7.org/CodeSystem/observation-category",
                "code": "laboratory"
              }
            ]
          }
        ],
        "code": {
          "coding": [
            {
              "code": "25428-4",
              "system": "http://loinc.org",
              "display": "Glucose [Presence] in Urine by Test strip"
            }
          ],
          "text": "Glucose [Presence] in Urine by Test strip"
        },
        "text": {
          "status": "generated",
          "div": "<div xmlns=\"http://www.w3.org/1999/xhtml\"><table class=\"hl7__eu__lab__report\"><tr><th>Test</th><th>20-Mar-2025</th><th>Reference&#xA0;Range</th><th>Unit</th></tr><tr><td>Glucose [Presence] in Urine by Test strip</td></tr></table></div>"
        },
        "status": "final",
        "subject": {
          "reference": "urn:uuid:e6e121e7-d4d8-4717-9708-d224e2f01649",
          "display": "Pelayo Casal"
        },
        "effectiveDateTime": "2025-03-20T05:38:59Z",
        "specimen": {
          "reference": "urn:uuid:6ec9ce43-41b2-48f9-bb90-e000c02c0f68"
        }
      }
    },
    {
      "fullUrl": "urn:uuid:4b9dfa1d-05b4-4e1e-bf4a-05ba5cb5000a",
      "resource": {
        "resourceType": "Observation",
        "id": "4b9dfa1d-05b4-4e1e-bf4a-05ba5cb5000a",
        "meta": {
          "profile": [
            "http://hl7.eu/fhir/laboratory/StructureDefinition/Observation-resultslab-eu-lab"
          ]
        },
        "performer": [
          {
            "display": "The Central European Lab"
          }
        ],
        "category": [
          {
            "coding": [
              {
                "system": "http://terminology.hl7.org/CodeSystem/observation-category",
                "code": "laboratory"
              }
            ]
          }
        ],
        "code": {
          "coding": [
            {
              "code": "20505-4",
              "system": "http://loinc.org",
              "display": "Bilirubin.total [Mass/volume] in Urine by Test strip"
            }
          ],
          "text": "Bilirubin.total [Mass/volume] in Urine by Test strip"
        },
        "valueQuantity": {
          "system": "http://unitsofmeasure.org",
          "value": 1,
          "unit": "mg/dL",
          "code": "mg/dL"
        },
        "referenceRange": [
          {
            "low": {
              "value": 0.2,
              "code": "mg/dL",
              "system": "http://unitsofmeasure.org"
            }
          },
          {
            "high": {
              "value": 1.5,
              "code": "mg/dL",
              "system": "http://unitsofmeasure.org"
            }
          }
        ],
        "text": {
          "status": "generated",
          "div": "<div xmlns=\"http://www.w3.org/1999/xhtml\"><table class=\"hl7__eu__lab__report\"><tr><th>Test</th><th>20-Mar-2025</th><th>Reference&#xA0;Range</th><th>Unit</th></tr><tr><td>Bilirubin.total [Mass/volume] in Urine by Test strip</td><td>1.0</td><td>0.2 - 1.5</td><td></td><td>mg/dL</td></tr></table></div>"
        },
        "status": "final",
        "subject": {
          "reference": "urn:uuid:e6e121e7-d4d8-4717-9708-d224e2f01649",
          "display": "Pelayo Casal"
        },
        "effectiveDateTime": "2025-03-20T05:38:59Z",
        "specimen": {
          "reference": "urn:uuid:6ec9ce43-41b2-48f9-bb90-e000c02c0f68"
        }
      }
    },
    {
      "fullUrl": "urn:uuid:989f6a30-483f-431a-a75b-d59b49d8c732",
      "resource": {
        "resourceType": "Observation",
        "id": "989f6a30-483f-431a-a75b-d59b49d8c732",
        "meta": {
          "profile": [
            "http://hl7.eu/fhir/laboratory/StructureDefinition/Observation-resultslab-eu-lab"
          ]
        },
        "performer": [
          {
            "display": "The Central European Lab"
          }
        ],
        "category": [
          {
            "coding": [
              {
                "system": "http://terminology.hl7.org/CodeSystem/observation-category",
                "code": "laboratory"
              }
            ]
          }
        ],
        "code": {
          "coding": [
            {
              "code": "5770-3",
              "system": "http://loinc.org",
              "display": "Bilirubin.total [Presence] in Urine by Test strip"
            }
          ],
          "text": "Bilirubin.total [Presence] in Urine by Test strip"
        },
        "text": {
          "status": "generated",
          "div": "<div xmlns=\"http://www.w3.org/1999/xhtml\"><table class=\"hl7__eu__lab__report\"><tr><th>Test</th><th>20-Mar-2025</th><th>Reference&#xA0;Range</th><th>Unit</th></tr><tr><td>Bilirubin.total [Presence] in Urine by Test strip</td></tr></table></div>"
        },
        "status": "final",
        "subject": {
          "reference": "urn:uuid:e6e121e7-d4d8-4717-9708-d224e2f01649",
          "display": "Pelayo Casal"
        },
        "effectiveDateTime": "2025-03-20T05:38:59Z",
        "specimen": {
          "reference": "urn:uuid:6ec9ce43-41b2-48f9-bb90-e000c02c0f68"
        }
      }
    },
    {
      "fullUrl": "urn:uuid:67b4ad86-3935-401d-b2ed-422bf82c0b9b",
      "resource": {
        "resourceType": "Observation",
        "id": "67b4ad86-3935-401d-b2ed-422bf82c0b9b",
        "meta": {
          "profile": [
            "http://hl7.eu/fhir/laboratory/StructureDefinition/Observation-resultslab-eu-lab"
          ]
        },
        "performer": [
          {
            "display": "The Central European Lab"
          }
        ],
        "category": [
          {
            "coding": [
              {
                "system": "http://terminology.hl7.org/CodeSystem/observation-category",
                "code": "laboratory"
              }
            ]
          }
        ],
        "code": {
          "coding": [
            {
              "code": "5797-6",
              "system": "http://loinc.org",
              "display": "Ketones [Mass/volume] in Urine by Test strip"
            }
          ],
          "text": "Ketones [Mass/volume] in Urine by Test strip"
        },
        "valueQuantity": {
          "system": "http://unitsofmeasure.org",
          "value": 18.6,
          "unit": "mg/dL",
          "code": "mg/dL"
        },
        "referenceRange": [
          {
            "low": {
              "value": 0,
              "code": "mg/dL",
              "system": "http://unitsofmeasure.org"
            }
          },
          {
            "high": {
              "value": 4,
              "code": "mg/dL",
              "system": "http://unitsofmeasure.org"
            }
          }
        ],
        "interpretation": [
          {
            "coding": [
              {
                "code": "H",
                "system": "http://terminology.hl7.org/CodeSystem/v3-ObservationInterpretation",
                "display": "High"
              }
            ]
          }
        ],
        "text": {
          "status": "generated",
          "div": "<div xmlns=\"http://www.w3.org/1999/xhtml\"><table class=\"hl7__eu__lab__report\"><tr><th>Test</th><th>20-Mar-2025</th><th>Reference&#xA0;Range</th><th>Unit</th></tr><tr><td>Ketones [Mass/volume] in Urine by Test strip</td><td>18.6</td><td>0 - 4</td><td>H</td><td>mg/dL</td></tr></table></div>"
        },
        "status": "final",
        "subject": {
          "reference": "urn:uuid:e6e121e7-d4d8-4717-9708-d224e2f01649",
          "display": "Pelayo Casal"
        },
        "effectiveDateTime": "2025-03-20T05:38:59Z",
        "specimen": {
          "reference": "urn:uuid:6ec9ce43-41b2-48f9-bb90-e000c02c0f68"
        }
      }
    },
    {
      "fullUrl": "urn:uuid:37b4b94f-e909-469a-b2d3-6ac8a01374af",
      "resource": {
        "resourceType": "Observation",
        "id": "37b4b94f-e909-469a-b2d3-6ac8a01374af",
        "meta": {
          "profile": [
            "http://hl7.eu/fhir/laboratory/StructureDefinition/Observation-resultslab-eu-lab"
          ]
        },
        "performer": [
          {
            "display": "The Central European Lab"
          }
        ],
        "category": [
          {
            "coding": [
              {
                "system": "http://terminology.hl7.org/CodeSystem/observation-category",
                "code": "laboratory"
              }
            ]
          }
        ],
        "code": {
          "coding": [
            {
              "code": "2514-8",
              "system": "http://loinc.org",
              "display": "Ketones [Presence] in Urine by Test strip"
            }
          ],
          "text": "Ketones [Presence] in Urine by Test strip"
        },
        "text": {
          "status": "generated",
          "div": "<div xmlns=\"http://www.w3.org/1999/xhtml\"><table class=\"hl7__eu__lab__report\"><tr><th>Test</th><th>20-Mar-2025</th><th>Reference&#xA0;Range</th><th>Unit</th></tr><tr><td>Ketones [Presence] in Urine by Test strip</td></tr></table></div>"
        },
        "status": "final",
        "subject": {
          "reference": "urn:uuid:e6e121e7-d4d8-4717-9708-d224e2f01649",
          "display": "Pelayo Casal"
        },
        "effectiveDateTime": "2025-03-20T05:38:59Z",
        "specimen": {
          "reference": "urn:uuid:6ec9ce43-41b2-48f9-bb90-e000c02c0f68"
        }
      }
    },
    {
      "fullUrl": "urn:uuid:8a37d971-a6df-4d5f-8d6e-216dd1571e4a",
      "resource": {
        "resourceType": "Observation",
        "id": "8a37d971-a6df-4d5f-8d6e-216dd1571e4a",
        "meta": {
          "profile": [
            "http://hl7.eu/fhir/laboratory/StructureDefinition/Observation-resultslab-eu-lab"
          ]
        },
        "performer": [
          {
            "display": "The Central European Lab"
          }
        ],
        "category": [
          {
            "coding": [
              {
                "system": "http://terminology.hl7.org/CodeSystem/observation-category",
                "code": "laboratory"
              }
            ]
          }
        ],
        "code": {
          "coding": [
            {
              "code": "5811-5",
              "system": "http://loinc.org",
              "display": "Specific gravity of Urine by Test strip"
            }
          ],
          "text": "Specific gravity of Urine by Test strip"
        },
        "valueQuantity": {
          "system": "http://unitsofmeasure.org",
          "value": 1,
          "unit": "{nominal}",
          "code": "{nominal}"
        },
        "referenceRange": [
          {
            "low": {
              "value": 1.01,
              "code": "g/mL",
              "system": "http://unitsofmeasure.org"
            }
          },
          {
            "high": {
              "value": 1.03,
              "code": "g/mL",
              "system": "http://unitsofmeasure.org"
            }
          }
        ],
        "interpretation": [
          {
            "coding": [
              {
                "code": "L",
                "system": "http://terminology.hl7.org/CodeSystem/v3-ObservationInterpretation",
                "display": "Low"
              }
            ]
          }
        ],
        "text": {
          "status": "generated",
          "div": "<div xmlns=\"http://www.w3.org/1999/xhtml\"><table class=\"hl7__eu__lab__report\"><tr><th>Test</th><th>20-Mar-2025</th><th>Reference&#xA0;Range</th><th>Unit</th></tr><tr><td>Specific gravity of Urine by Test strip</td><td>1.0</td><td>1.01 - 1.03</td><td>L</td><td>{nominal}</td></tr></table></div>"
        },
        "status": "final",
        "subject": {
          "reference": "urn:uuid:e6e121e7-d4d8-4717-9708-d224e2f01649",
          "display": "Pelayo Casal"
        },
        "effectiveDateTime": "2025-03-20T05:38:59Z",
        "specimen": {
          "reference": "urn:uuid:6ec9ce43-41b2-48f9-bb90-e000c02c0f68"
        }
      }
    },
    {
      "fullUrl": "urn:uuid:f316ac97-cc40-45fd-a7ad-77261142014a",
      "resource": {
        "resourceType": "Observation",
        "id": "f316ac97-cc40-45fd-a7ad-77261142014a",
        "meta": {
          "profile": [
            "http://hl7.eu/fhir/laboratory/StructureDefinition/Observation-resultslab-eu-lab"
          ]
        },
        "performer": [
          {
            "display": "The Central European Lab"
          }
        ],
        "category": [
          {
            "coding": [
              {
                "system": "http://terminology.hl7.org/CodeSystem/observation-category",
                "code": "laboratory"
              }
            ]
          }
        ],
        "code": {
          "coding": [
            {
              "code": "5803-2",
              "system": "http://loinc.org",
              "display": "pH of Urine by Test strip"
            }
          ],
          "text": "pH of Urine by Test strip"
        },
        "valueQuantity": {
          "system": "http://unitsofmeasure.org",
          "value": 5.1,
          "unit": "pH",
          "code": "pH"
        },
        "referenceRange": [
          {
            "low": {
              "value": 4.5,
              "code": "pH",
              "system": "http://unitsofmeasure.org"
            }
          },
          {
            "high": {
              "value": 7.5,
              "code": "pH",
              "system": "http://unitsofmeasure.org"
            }
          }
        ],
        "text": {
          "status": "generated",
          "div": "<div xmlns=\"http://www.w3.org/1999/xhtml\"><table class=\"hl7__eu__lab__report\"><tr><th>Test</th><th>20-Mar-2025</th><th>Reference&#xA0;Range</th><th>Unit</th></tr><tr><td>pH of Urine by Test strip</td><td>5.1</td><td>4.5 - 7.5</td><td></td><td>pH</td></tr></table></div>"
        },
        "status": "final",
        "subject": {
          "reference": "urn:uuid:e6e121e7-d4d8-4717-9708-d224e2f01649",
          "display": "Pelayo Casal"
        },
        "effectiveDateTime": "2025-03-20T05:38:59Z",
        "specimen": {
          "reference": "urn:uuid:6ec9ce43-41b2-48f9-bb90-e000c02c0f68"
        }
      }
    },
    {
      "fullUrl": "urn:uuid:2e493e8a-27d3-41ec-81cb-53a2defd6c26",
      "resource": {
        "resourceType": "Observation",
        "id": "2e493e8a-27d3-41ec-81cb-53a2defd6c26",
        "meta": {
          "profile": [
            "http://hl7.eu/fhir/laboratory/StructureDefinition/Observation-resultslab-eu-lab"
          ]
        },
        "performer": [
          {
            "display": "The Central European Lab"
          }
        ],
        "category": [
          {
            "coding": [
              {
                "system": "http://terminology.hl7.org/CodeSystem/observation-category",
                "code": "laboratory"
              }
            ]
          }
        ],
        "code": {
          "coding": [
            {
              "code": "5804-0",
              "system": "http://loinc.org",
              "display": "Protein [Mass/volume] in Urine by Test strip"
            }
          ],
          "text": "Protein [Mass/volume] in Urine by Test strip"
        },
        "valueQuantity": {
          "system": "http://unitsofmeasure.org",
          "value": 157.7,
          "unit": "mg/dL",
          "code": "mg/dL"
        },
        "referenceRange": [
          {
            "low": {
              "value": 0,
              "code": "mg/dL",
              "system": "http://unitsofmeasure.org"
            }
          },
          {
            "high": {
              "value": 150,
              "code": "mg/dL",
              "system": "http://unitsofmeasure.org"
            }
          }
        ],
        "interpretation": [
          {
            "coding": [
              {
                "code": "H",
                "system": "http://terminology.hl7.org/CodeSystem/v3-ObservationInterpretation",
                "display": "High"
              }
            ]
          }
        ],
        "text": {
          "status": "generated",
          "div": "<div xmlns=\"http://www.w3.org/1999/xhtml\"><table class=\"hl7__eu__lab__report\"><tr><th>Test</th><th>20-Mar-2025</th><th>Reference&#xA0;Range</th><th>Unit</th></tr><tr><td>Protein [Mass/volume] in Urine by Test strip</td><td>157.7</td><td>0 - 150</td><td>H</td><td>mg/dL</td></tr></table></div>"
        },
        "status": "final",
        "subject": {
          "reference": "urn:uuid:e6e121e7-d4d8-4717-9708-d224e2f01649",
          "display": "Pelayo Casal"
        },
        "effectiveDateTime": "2025-03-20T05:38:59Z",
        "specimen": {
          "reference": "urn:uuid:6ec9ce43-41b2-48f9-bb90-e000c02c0f68"
        }
      }
    },
    {
      "fullUrl": "urn:uuid:f389a381-27d6-4676-950d-48e38cf0c6e9",
      "resource": {
        "resourceType": "Observation",
        "id": "f389a381-27d6-4676-950d-48e38cf0c6e9",
        "meta": {
          "profile": [
            "http://hl7.eu/fhir/laboratory/StructureDefinition/Observation-resultslab-eu-lab"
          ]
        },
        "performer": [
          {
            "display": "The Central European Lab"
          }
        ],
        "category": [
          {
            "coding": [
              {
                "system": "http://terminology.hl7.org/CodeSystem/observation-category",
                "code": "laboratory"
              }
            ]
          }
        ],
        "code": {
          "coding": [
            {
              "code": "20454-5",
              "system": "http://loinc.org",
              "display": "Protein [Presence] in Urine by Test strip"
            }
          ],
          "text": "Protein [Presence] in Urine by Test strip"
        },
        "text": {
          "status": "generated",
          "div": "<div xmlns=\"http://www.w3.org/1999/xhtml\"><table class=\"hl7__eu__lab__report\"><tr><th>Test</th><th>20-Mar-2025</th><th>Reference&#xA0;Range</th><th>Unit</th></tr><tr><td>Protein [Presence] in Urine by Test strip</td></tr></table></div>"
        },
        "status": "final",
        "subject": {
          "reference": "urn:uuid:e6e121e7-d4d8-4717-9708-d224e2f01649",
          "display": "Pelayo Casal"
        },
        "effectiveDateTime": "2025-03-20T05:38:59Z",
        "specimen": {
          "reference": "urn:uuid:6ec9ce43-41b2-48f9-bb90-e000c02c0f68"
        }
      }
    },
    {
      "fullUrl": "urn:uuid:9e625d71-ce49-4a54-92bc-2a8d03b9e2f2",
      "resource": {
        "resourceType": "Observation",
        "id": "9e625d71-ce49-4a54-92bc-2a8d03b9e2f2",
        "meta": {
          "profile": [
            "http://hl7.eu/fhir/laboratory/StructureDefinition/Observation-resultslab-eu-lab"
          ]
        },
        "performer": [
          {
            "display": "The Central European Lab"
          }
        ],
        "category": [
          {
            "coding": [
              {
                "system": "http://terminology.hl7.org/CodeSystem/observation-category",
                "code": "laboratory"
              }
            ]
          }
        ],
        "code": {
          "coding": [
            {
              "code": "5802-4",
              "system": "http://loinc.org",
              "display": "Nitrite [Presence] in Urine by Test strip"
            }
          ],
          "text": "Nitrite [Presence] in Urine by Test strip"
        },
        "text": {
          "status": "generated",
          "div": "<div xmlns=\"http://www.w3.org/1999/xhtml\"><table class=\"hl7__eu__lab__report\"><tr><th>Test</th><th>20-Mar-2025</th><th>Reference&#xA0;Range</th><th>Unit</th></tr><tr><td>Nitrite [Presence] in Urine by Test strip</td></tr></table></div>"
        },
        "status": "final",
        "subject": {
          "reference": "urn:uuid:e6e121e7-d4d8-4717-9708-d224e2f01649",
          "display": "Pelayo Casal"
        },
        "effectiveDateTime": "2025-03-20T05:38:59Z",
        "specimen": {
          "reference": "urn:uuid:6ec9ce43-41b2-48f9-bb90-e000c02c0f68"
        }
      }
    },
    {
      "fullUrl": "urn:uuid:9429964a-e797-4713-a67f-067bff3198d1",
      "resource": {
        "resourceType": "Observation",
        "id": "9429964a-e797-4713-a67f-067bff3198d1",
        "meta": {
          "profile": [
            "http://hl7.eu/fhir/laboratory/StructureDefinition/Observation-resultslab-eu-lab"
          ]
        },
        "performer": [
          {
            "display": "The Central European Lab"
          }
        ],
        "category": [
          {
            "coding": [
              {
                "system": "http://terminology.hl7.org/CodeSystem/observation-category",
                "code": "laboratory"
              }
            ]
          }
        ],
        "code": {
          "coding": [
            {
              "code": "5794-3",
              "system": "http://loinc.org",
              "display": "Hemoglobin [Presence] in Urine by Test strip"
            }
          ],
          "text": "Hemoglobin [Presence] in Urine by Test strip"
        },
        "text": {
          "status": "generated",
          "div": "<div xmlns=\"http://www.w3.org/1999/xhtml\"><table class=\"hl7__eu__lab__report\"><tr><th>Test</th><th>20-Mar-2025</th><th>Reference&#xA0;Range</th><th>Unit</th></tr><tr><td>Hemoglobin [Presence] in Urine by Test strip</td></tr></table></div>"
        },
        "status": "final",
        "subject": {
          "reference": "urn:uuid:e6e121e7-d4d8-4717-9708-d224e2f01649",
          "display": "Pelayo Casal"
        },
        "effectiveDateTime": "2025-03-20T05:38:59Z",
        "specimen": {
          "reference": "urn:uuid:6ec9ce43-41b2-48f9-bb90-e000c02c0f68"
        }
      }
    },
    {
      "fullUrl": "urn:uuid:7f32a62d-70bd-4b8f-9631-321b91b72a1b",
      "resource": {
        "resourceType": "Observation",
        "id": "7f32a62d-70bd-4b8f-9631-321b91b72a1b",
        "meta": {
          "profile": [
            "http://hl7.eu/fhir/laboratory/StructureDefinition/Observation-resultslab-eu-lab"
          ]
        },
        "performer": [
          {
            "display": "The Central European Lab"
          }
        ],
        "category": [
          {
            "coding": [
              {
                "system": "http://terminology.hl7.org/CodeSystem/observation-category",
                "code": "laboratory"
              }
            ]
          }
        ],
        "code": {
          "coding": [
            {
              "code": "5799-2",
              "system": "http://loinc.org",
              "display": "Leukocyte esterase [Presence] in Urine by Test strip"
            }
          ],
          "text": "Leukocyte esterase [Presence] in Urine by Test strip"
        },
        "text": {
          "status": "generated",
          "div": "<div xmlns=\"http://www.w3.org/1999/xhtml\"><table class=\"hl7__eu__lab__report\"><tr><th>Test</th><th>20-Mar-2025</th><th>Reference&#xA0;Range</th><th>Unit</th></tr><tr><td>Leukocyte esterase [Presence] in Urine by Test strip</td></tr></table></div>"
        },
        "status": "final",
        "subject": {
          "reference": "urn:uuid:e6e121e7-d4d8-4717-9708-d224e2f01649",
          "display": "Pelayo Casal"
        },
        "effectiveDateTime": "2025-03-20T05:38:59Z",
        "specimen": {
          "reference": "urn:uuid:6ec9ce43-41b2-48f9-bb90-e000c02c0f68"
        }
      }
    },
    {
      "fullUrl": "urn:uuid:b7c20abf-fe40-41cb-8d71-61699de1107a",
      "resource": {
        "resourceType": "Observation",
        "id": "b7c20abf-fe40-41cb-8d71-61699de1107a",
        "meta": {
          "profile": [
            "http://hl7.eu/fhir/laboratory/StructureDefinition/Observation-resultslab-eu-lab"
          ]
        },
        "performer": [
          {
            "display": "The Central European Lab"
          }
        ],
        "category": [
          {
            "coding": [
              {
                "system": "http://terminology.hl7.org/CodeSystem/observation-category",
                "code": "laboratory"
              }
            ]
          }
        ],
        "code": {
          "coding": [
            {
              "code": "4548-4",
              "system": "http://loinc.org",
              "display": "Hemoglobin A1c/Hemoglobin.total in Blood"
            }
          ],
          "text": "Hemoglobin A1c/Hemoglobin.total in Blood"
        },
        "valueQuantity": {
          "system": "http://unitsofmeasure.org",
          "value": 3.1,
          "unit": "%",
          "code": "%"
        },
        "referenceRange": [
          {
            "low": {
              "value": 4.5,
              "code": "%",
              "system": "http://unitsofmeasure.org"
            }
          },
          {
            "high": {
              "value": 6.4,
              "code": "%",
              "system": "http://unitsofmeasure.org"
            }
          }
        ],
        "interpretation": [
          {
            "coding": [
              {
                "code": "L",
                "system": "http://terminology.hl7.org/CodeSystem/v3-ObservationInterpretation",
                "display": "Low"
              }
            ]
          }
        ],
        "text": {
          "status": "generated",
          "div": "<div xmlns=\"http://www.w3.org/1999/xhtml\"><table class=\"hl7__eu__lab__report\"><tr><th>Test</th><th>20-Mar-2025</th><th>Reference&#xA0;Range</th><th>Unit</th></tr><tr><td>Hemoglobin A1c/Hemoglobin.total in Blood</td><td>3.1</td><td>4.5 - 6.4</td><td>L</td><td>%</td></tr></table></div>"
        },
        "status": "final",
        "subject": {
          "reference": "urn:uuid:e6e121e7-d4d8-4717-9708-d224e2f01649",
          "display": "Pelayo Casal"
        },
        "effectiveDateTime": "2025-03-20T05:38:59Z",
        "specimen": {
          "reference": "urn:uuid:f19d94e0-6b38-4a4e-9a4b-595069f2ae10"
        }
      }
    },
    {
      "fullUrl": "urn:uuid:446a7690-f175-4335-9478-b84893820a55",
      "resource": {
        "resourceType": "Observation",
        "id": "446a7690-f175-4335-9478-b84893820a55",
        "meta": {
          "profile": [
            "http://hl7.eu/fhir/laboratory/StructureDefinition/Observation-resultslab-eu-lab"
          ]
        },
        "performer": [
          {
            "display": "The Central European Lab"
          }
        ],
        "category": [
          {
            "coding": [
              {
                "system": "http://terminology.hl7.org/CodeSystem/observation-category",
                "code": "laboratory"
              }
            ]
          }
        ],
        "code": {
          "coding": [
            {
              "code": "2339-0",
              "system": "http://loinc.org",
              "display": "Glucose [Mass/volume] in Blood"
            }
          ],
          "text": "Glucose [Mass/volume] in Blood"
        },
        "valueQuantity": {
          "system": "http://unitsofmeasure.org",
          "value": 73.2,
          "unit": "mg/dL",
          "code": "mg/dL"
        },
        "referenceRange": [
          {
            "low": {
              "value": 70,
              "code": "mg/dL",
              "system": "http://unitsofmeasure.org"
            }
          },
          {
            "high": {
              "value": 140,
              "code": "mg/dL",
              "system": "http://unitsofmeasure.org"
            }
          }
        ],
        "text": {
          "status": "generated",
          "div": "<div xmlns=\"http://www.w3.org/1999/xhtml\"><table class=\"hl7__eu__lab__report\"><tr><th>Test</th><th>20-Mar-2025</th><th>Reference&#xA0;Range</th><th>Unit</th></tr><tr><td>Glucose [Mass/volume] in Blood</td><td>73.2</td><td>70 - 140</td><td></td><td>mg/dL</td></tr></table></div>"
        },
        "status": "final",
        "subject": {
          "reference": "urn:uuid:e6e121e7-d4d8-4717-9708-d224e2f01649",
          "display": "Pelayo Casal"
        },
        "effectiveDateTime": "2025-03-20T05:38:59Z",
        "specimen": {
          "reference": "urn:uuid:f19d94e0-6b38-4a4e-9a4b-595069f2ae10"
        }
      }
    },
    {
      "fullUrl": "urn:uuid:91543f32-73e0-4d26-b59c-1401bd771440",
      "resource": {
        "resourceType": "Observation",
        "id": "91543f32-73e0-4d26-b59c-1401bd771440",
        "meta": {
          "profile": [
            "http://hl7.eu/fhir/laboratory/StructureDefinition/Observation-resultslab-eu-lab"
          ]
        },
        "performer": [
          {
            "display": "The Central European Lab"
          }
        ],
        "category": [
          {
            "coding": [
              {
                "system": "http://terminology.hl7.org/CodeSystem/observation-category",
                "code": "laboratory"
              }
            ]
          }
        ],
        "code": {
          "coding": [
            {
              "code": "6299-2",
              "system": "http://loinc.org",
              "display": "Urea nitrogen [Mass/volume] in Blood"
            }
          ],
          "text": "Urea nitrogen [Mass/volume] in Blood"
        },
        "valueQuantity": {
          "system": "http://unitsofmeasure.org",
          "value": 8.8,
          "unit": "mg/dL",
          "code": "mg/dL"
        },
        "referenceRange": [
          {
            "low": {
              "value": 7,
              "code": "mg/dL",
              "system": "http://unitsofmeasure.org"
            }
          },
          {
            "high": {
              "value": 25,
              "code": "mg/dL",
              "system": "http://unitsofmeasure.org"
            }
          }
        ],
        "text": {
          "status": "generated",
          "div": "<div xmlns=\"http://www.w3.org/1999/xhtml\"><table class=\"hl7__eu__lab__report\"><tr><th>Test</th><th>20-Mar-2025</th><th>Reference&#xA0;Range</th><th>Unit</th></tr><tr><td>Urea nitrogen [Mass/volume] in Blood</td><td>8.8</td><td>7 - 25</td><td></td><td>mg/dL</td></tr></table></div>"
        },
        "status": "final",
        "subject": {
          "reference": "urn:uuid:e6e121e7-d4d8-4717-9708-d224e2f01649",
          "display": "Pelayo Casal"
        },
        "effectiveDateTime": "2025-03-20T05:38:59Z",
        "specimen": {
          "reference": "urn:uuid:f19d94e0-6b38-4a4e-9a4b-595069f2ae10"
        }
      }
    },
    {
      "fullUrl": "urn:uuid:a0cf6790-68f9-466b-b616-21576a9487af",
      "resource": {
        "resourceType": "Observation",
        "id": "a0cf6790-68f9-466b-b616-21576a9487af",
        "meta": {
          "profile": [
            "http://hl7.eu/fhir/laboratory/StructureDefinition/Observation-resultslab-eu-lab"
          ]
        },
        "performer": [
          {
            "display": "The Central European Lab"
          }
        ],
        "category": [
          {
            "coding": [
              {
                "system": "http://terminology.hl7.org/CodeSystem/observation-category",
                "code": "laboratory"
              }
            ]
          }
        ],
        "code": {
          "coding": [
            {
              "code": "38483-4",
              "system": "http://loinc.org",
              "display": "Creatinine [Mass/volume] in Blood"
            }
          ],
          "text": "Creatinine [Mass/volume] in Blood"
        },
        "valueQuantity": {
          "system": "http://unitsofmeasure.org",
          "value": 2.2,
          "unit": "mg/dL",
          "code": "mg/dL"
        },
        "referenceRange": [
          {
            "low": {
              "value": 0.9,
              "code": "mg/dL",
              "system": "http://unitsofmeasure.org"
            }
          },
          {
            "high": {
              "value": 1.3,
              "code": "mg/dL",
              "system": "http://unitsofmeasure.org"
            }
          }
        ],
        "interpretation": [
          {
            "coding": [
              {
                "code": "H",
                "system": "http://terminology.hl7.org/CodeSystem/v3-ObservationInterpretation",
                "display": "High"
              }
            ]
          }
        ],
        "text": {
          "status": "generated",
          "div": "<div xmlns=\"http://www.w3.org/1999/xhtml\"><table class=\"hl7__eu__lab__report\"><tr><th>Test</th><th>20-Mar-2025</th><th>Reference&#xA0;Range</th><th>Unit</th></tr><tr><td>Creatinine [Mass/volume] in Blood</td><td>2.2</td><td>0.9 - 1.3</td><td>H</td><td>mg/dL</td></tr></table></div>"
        },
        "status": "final",
        "subject": {
          "reference": "urn:uuid:e6e121e7-d4d8-4717-9708-d224e2f01649",
          "display": "Pelayo Casal"
        },
        "effectiveDateTime": "2025-03-20T05:38:59Z",
        "specimen": {
          "reference": "urn:uuid:f19d94e0-6b38-4a4e-9a4b-595069f2ae10"
        }
      }
    },
    {
      "fullUrl": "urn:uuid:545efbbf-6070-4de7-8ba9-ce3b6f9ad593",
      "resource": {
        "resourceType": "Observation",
        "id": "545efbbf-6070-4de7-8ba9-ce3b6f9ad593",
        "meta": {
          "profile": [
            "http://hl7.eu/fhir/laboratory/StructureDefinition/Observation-resultslab-eu-lab"
          ]
        },
        "performer": [
          {
            "display": "The Central European Lab"
          }
        ],
        "category": [
          {
            "coding": [
              {
                "system": "http://terminology.hl7.org/CodeSystem/observation-category",
                "code": "laboratory"
              }
            ]
          }
        ],
        "code": {
          "coding": [
            {
              "code": "49765-1",
              "system": "http://loinc.org",
              "display": "Calcium [Mass/volume] in Blood"
            }
          ],
          "text": "Calcium [Mass/volume] in Blood"
        },
        "valueQuantity": {
          "system": "http://unitsofmeasure.org",
          "value": 9,
          "unit": "mg/dL",
          "code": "mg/dL"
        },
        "referenceRange": [
          {
            "low": {
              "value": 8.6,
              "code": "mg/dL",
              "system": "http://unitsofmeasure.org"
            }
          },
          {
            "high": {
              "value": 10.2,
              "code": "mg/dL",
              "system": "http://unitsofmeasure.org"
            }
          }
        ],
        "text": {
          "status": "generated",
          "div": "<div xmlns=\"http://www.w3.org/1999/xhtml\"><table class=\"hl7__eu__lab__report\"><tr><th>Test</th><th>20-Mar-2025</th><th>Reference&#xA0;Range</th><th>Unit</th></tr><tr><td>Calcium [Mass/volume] in Blood</td><td>9.0</td><td>8.6 - 10.2</td><td></td><td>mg/dL</td></tr></table></div>"
        },
        "status": "final",
        "subject": {
          "reference": "urn:uuid:e6e121e7-d4d8-4717-9708-d224e2f01649",
          "display": "Pelayo Casal"
        },
        "effectiveDateTime": "2025-03-20T05:38:59Z",
        "specimen": {
          "reference": "urn:uuid:f19d94e0-6b38-4a4e-9a4b-595069f2ae10"
        }
      }
    },
    {
      "fullUrl": "urn:uuid:d591b4e2-8671-4307-97d8-173b153e76a7",
      "resource": {
        "resourceType": "Observation",
        "id": "d591b4e2-8671-4307-97d8-173b153e76a7",
        "meta": {
          "profile": [
            "http://hl7.eu/fhir/laboratory/StructureDefinition/Observation-resultslab-eu-lab"
          ]
        },
        "performer": [
          {
            "display": "The Central European Lab"
          }
        ],
        "category": [
          {
            "coding": [
              {
                "system": "http://terminology.hl7.org/CodeSystem/observation-category",
                "code": "laboratory"
              }
            ]
          }
        ],
        "code": {
          "coding": [
            {
              "code": "2947-0",
              "system": "http://loinc.org",
              "display": "Sodium [Moles/volume] in Blood"
            }
          ],
          "text": "Sodium [Moles/volume] in Blood"
        },
        "valueQuantity": {
          "system": "http://unitsofmeasure.org",
          "value": 137.6,
          "unit": "mmol/L",
          "code": "mmol/L"
        },
        "referenceRange": [
          {
            "low": {
              "value": 135,
              "code": "mmol/L",
              "system": "http://unitsofmeasure.org"
            }
          },
          {
            "high": {
              "value": 145,
              "code": "mmol/L",
              "system": "http://unitsofmeasure.org"
            }
          }
        ],
        "text": {
          "status": "generated",
          "div": "<div xmlns=\"http://www.w3.org/1999/xhtml\"><table class=\"hl7__eu__lab__report\"><tr><th>Test</th><th>20-Mar-2025</th><th>Reference&#xA0;Range</th><th>Unit</th></tr><tr><td>Sodium [Moles/volume] in Blood</td><td>137.6</td><td>135 - 145</td><td></td><td>mmol/L</td></tr></table></div>"
        },
        "status": "final",
        "subject": {
          "reference": "urn:uuid:e6e121e7-d4d8-4717-9708-d224e2f01649",
          "display": "Pelayo Casal"
        },
        "effectiveDateTime": "2025-03-20T05:38:59Z",
        "specimen": {
          "reference": "urn:uuid:f19d94e0-6b38-4a4e-9a4b-595069f2ae10"
        }
      }
    },
    {
      "fullUrl": "urn:uuid:7a9eb1bc-8021-4209-b2b8-4104046b8bb1",
      "resource": {
        "resourceType": "Observation",
        "id": "7a9eb1bc-8021-4209-b2b8-4104046b8bb1",
        "meta": {
          "profile": [
            "http://hl7.eu/fhir/laboratory/StructureDefinition/Observation-resultslab-eu-lab"
          ]
        },
        "performer": [
          {
            "display": "The Central European Lab"
          }
        ],
        "category": [
          {
            "coding": [
              {
                "system": "http://terminology.hl7.org/CodeSystem/observation-category",
                "code": "laboratory"
              }
            ]
          }
        ],
        "code": {
          "coding": [
            {
              "code": "6298-4",
              "system": "http://loinc.org",
              "display": "Potassium [Moles/volume] in Blood"
            }
          ],
          "text": "Potassium [Moles/volume] in Blood"
        },
        "valueQuantity": {
          "system": "http://unitsofmeasure.org",
          "value": 5.1,
          "unit": "mmol/L",
          "code": "mmol/L"
        },
        "referenceRange": [
          {
            "low": {
              "value": 3.5,
              "code": "mmol/L",
              "system": "http://unitsofmeasure.org"
            }
          },
          {
            "high": {
              "value": 5.1,
              "code": "mmol/L",
              "system": "http://unitsofmeasure.org"
            }
          }
        ],
        "text": {
          "status": "generated",
          "div": "<div xmlns=\"http://www.w3.org/1999/xhtml\"><table class=\"hl7__eu__lab__report\"><tr><th>Test</th><th>20-Mar-2025</th><th>Reference&#xA0;Range</th><th>Unit</th></tr><tr><td>Potassium [Moles/volume] in Blood</td><td>5.1</td><td>3.5 - 5.1</td><td></td><td>mmol/L</td></tr></table></div>"
        },
        "status": "final",
        "subject": {
          "reference": "urn:uuid:e6e121e7-d4d8-4717-9708-d224e2f01649",
          "display": "Pelayo Casal"
        },
        "effectiveDateTime": "2025-03-20T05:38:59Z",
        "specimen": {
          "reference": "urn:uuid:f19d94e0-6b38-4a4e-9a4b-595069f2ae10"
        }
      }
    },
    {
      "fullUrl": "urn:uuid:c983e365-7914-4515-96d4-c4a5eeb9093c",
      "resource": {
        "resourceType": "Observation",
        "id": "c983e365-7914-4515-96d4-c4a5eeb9093c",
        "meta": {
          "profile": [
            "http://hl7.eu/fhir/laboratory/StructureDefinition/Observation-resultslab-eu-lab"
          ]
        },
        "performer": [
          {
            "display": "The Central European Lab"
          }
        ],
        "category": [
          {
            "coding": [
              {
                "system": "http://terminology.hl7.org/CodeSystem/observation-category",
                "code": "laboratory"
              }
            ]
          }
        ],
        "code": {
          "coding": [
            {
              "code": "2069-3",
              "system": "http://loinc.org",
              "display": "Chloride [Moles/volume] in Blood"
            }
          ],
          "text": "Chloride [Moles/volume] in Blood"
        },
        "valueQuantity": {
          "system": "http://unitsofmeasure.org",
          "value": 105.4,
          "unit": "mmol/L",
          "code": "mmol/L"
        },
        "referenceRange": [
          {
            "low": {
              "value": 98,
              "code": "mmol/L",
              "system": "http://unitsofmeasure.org"
            }
          },
          {
            "high": {
              "value": 108,
              "code": "mmol/L",
              "system": "http://unitsofmeasure.org"
            }
          }
        ],
        "text": {
          "status": "generated",
          "div": "<div xmlns=\"http://www.w3.org/1999/xhtml\"><table class=\"hl7__eu__lab__report\"><tr><th>Test</th><th>20-Mar-2025</th><th>Reference&#xA0;Range</th><th>Unit</th></tr><tr><td>Chloride [Moles/volume] in Blood</td><td>105.4</td><td>98 - 108</td><td></td><td>mmol/L</td></tr></table></div>"
        },
        "status": "final",
        "subject": {
          "reference": "urn:uuid:e6e121e7-d4d8-4717-9708-d224e2f01649",
          "display": "Pelayo Casal"
        },
        "effectiveDateTime": "2025-03-20T05:38:59Z",
        "specimen": {
          "reference": "urn:uuid:f19d94e0-6b38-4a4e-9a4b-595069f2ae10"
        }
      }
    },
    {
      "fullUrl": "urn:uuid:4174b60f-eb8d-4a7b-8732-ce2c25886eed",
      "resource": {
        "resourceType": "Observation",
        "id": "4174b60f-eb8d-4a7b-8732-ce2c25886eed",
        "meta": {
          "profile": [
            "http://hl7.eu/fhir/laboratory/StructureDefinition/Observation-resultslab-eu-lab"
          ]
        },
        "performer": [
          {
            "display": "The Central European Lab"
          }
        ],
        "category": [
          {
            "coding": [
              {
                "system": "http://terminology.hl7.org/CodeSystem/observation-category",
                "code": "laboratory"
              }
            ]
          }
        ],
        "code": {
          "coding": [
            {
              "code": "20565-8",
              "system": "http://loinc.org",
              "display": "Carbon dioxide, total [Moles/volume] in Blood"
            }
          ],
          "text": "Carbon dioxide, total [Moles/volume] in Blood"
        },
        "valueQuantity": {
          "system": "http://unitsofmeasure.org",
          "value": 25.9,
          "unit": "mmol/L",
          "code": "mmol/L"
        },
        "referenceRange": [
          {
            "low": {
              "value": 22,
              "code": "mmol/L",
              "system": "http://unitsofmeasure.org"
            }
          },
          {
            "high": {
              "value": 32,
              "code": "mmol/L",
              "system": "http://unitsofmeasure.org"
            }
          }
        ],
        "text": {
          "status": "generated",
          "div": "<div xmlns=\"http://www.w3.org/1999/xhtml\"><table class=\"hl7__eu__lab__report\"><tr><th>Test</th><th>20-Mar-2025</th><th>Reference&#xA0;Range</th><th>Unit</th></tr><tr><td>Carbon dioxide, total [Moles/volume] in Blood</td><td>25.9</td><td>22 - 32</td><td></td><td>mmol/L</td></tr></table></div>"
        },
        "status": "final",
        "subject": {
          "reference": "urn:uuid:e6e121e7-d4d8-4717-9708-d224e2f01649",
          "display": "Pelayo Casal"
        },
        "effectiveDateTime": "2025-03-20T05:38:59Z",
        "specimen": {
          "reference": "urn:uuid:f19d94e0-6b38-4a4e-9a4b-595069f2ae10"
        }
      }
    },
    {
      "fullUrl": "urn:uuid:f26d89f8-398d-4e46-8711-3acd6426a45c",
      "resource": {
        "resourceType": "Observation",
        "id": "f26d89f8-398d-4e46-8711-3acd6426a45c",
        "meta": {
          "profile": [
            "http://hl7.eu/fhir/laboratory/StructureDefinition/Observation-resultslab-eu-lab"
          ]
        },
        "performer": [
          {
            "display": "The Central European Lab"
          }
        ],
        "category": [
          {
            "coding": [
              {
                "system": "http://terminology.hl7.org/CodeSystem/observation-category",
                "code": "laboratory"
              }
            ]
          }
        ],
        "code": {
          "coding": [
            {
              "code": "2093-3",
              "system": "http://loinc.org",
              "display": "Cholesterol [Mass/volume] in Serum or Plasma"
            }
          ],
          "text": "Cholesterol [Mass/volume] in Serum or Plasma"
        },
        "valueQuantity": {
          "system": "http://unitsofmeasure.org",
          "value": 160.3,
          "unit": "mg/dL",
          "code": "mg/dL"
        },
        "referenceRange": [
          {
            "low": {
              "value": 0,
              "code": "mg/dL",
              "system": "http://unitsofmeasure.org"
            }
          },
          {
            "high": {
              "value": 200,
              "code": "mg/dL",
              "system": "http://unitsofmeasure.org"
            }
          }
        ],
        "text": {
          "status": "generated",
          "div": "<div xmlns=\"http://www.w3.org/1999/xhtml\"><table class=\"hl7__eu__lab__report\"><tr><th>Test</th><th>20-Mar-2025</th><th>Reference&#xA0;Range</th><th>Unit</th></tr><tr><td>Cholesterol [Mass/volume] in Serum or Plasma</td><td>160.3</td><td>0 - 200</td><td></td><td>mg/dL</td></tr></table></div>"
        },
        "status": "final",
        "subject": {
          "reference": "urn:uuid:e6e121e7-d4d8-4717-9708-d224e2f01649",
          "display": "Pelayo Casal"
        },
        "effectiveDateTime": "2025-03-20T05:38:59Z",
        "specimen": {
          "reference": "urn:uuid:0fb6c39f-f896-4d80-889d-27876dd9c8c1"
        }
      }
    },
    {
      "fullUrl": "urn:uuid:12ee3b63-4a69-46a6-b6c0-0c5fb0a09e4d",
      "resource": {
        "resourceType": "Observation",
        "id": "12ee3b63-4a69-46a6-b6c0-0c5fb0a09e4d",
        "meta": {
          "profile": [
            "http://hl7.eu/fhir/laboratory/StructureDefinition/Observation-resultslab-eu-lab"
          ]
        },
        "performer": [
          {
            "display": "The Central European Lab"
          }
        ],
        "category": [
          {
            "coding": [
              {
                "system": "http://terminology.hl7.org/CodeSystem/observation-category",
                "code": "laboratory"
              }
            ]
          }
        ],
        "code": {
          "coding": [
            {
              "code": "2571-8",
              "system": "http://loinc.org",
              "display": "Triglyceride [Mass/volume] in Serum or Plasma"
            }
          ],
          "text": "Triglyceride [Mass/volume] in Serum or Plasma"
        },
        "valueQuantity": {
          "system": "http://unitsofmeasure.org",
          "value": 143.9,
          "unit": "mg/dL",
          "code": "mg/dL"
        },
        "referenceRange": [
          {
            "low": {
              "value": 0,
              "code": "mg/dL",
              "system": "http://unitsofmeasure.org"
            }
          },
          {
            "high": {
              "value": 199,
              "code": "mg/dL",
              "system": "http://unitsofmeasure.org"
            }
          }
        ],
        "text": {
          "status": "generated",
          "div": "<div xmlns=\"http://www.w3.org/1999/xhtml\"><table class=\"hl7__eu__lab__report\"><tr><th>Test</th><th>20-Mar-2025</th><th>Reference&#xA0;Range</th><th>Unit</th></tr><tr><td>Triglyceride [Mass/volume] in Serum or Plasma</td><td>143.9</td><td>0 - 199</td><td></td><td>mg/dL</td></tr></table></div>"
        },
        "status": "final",
        "subject": {
          "reference": "urn:uuid:e6e121e7-d4d8-4717-9708-d224e2f01649",
          "display": "Pelayo Casal"
        },
        "effectiveDateTime": "2025-03-20T05:38:59Z",
        "specimen": {
          "reference": "urn:uuid:0fb6c39f-f896-4d80-889d-27876dd9c8c1"
        }
      }
    },
    {
      "fullUrl": "urn:uuid:037d1289-0a11-4a07-9a84-c40f7bcefde3",
      "resource": {
        "resourceType": "Observation",
        "id": "037d1289-0a11-4a07-9a84-c40f7bcefde3",
        "meta": {
          "profile": [
            "http://hl7.eu/fhir/laboratory/StructureDefinition/Observation-resultslab-eu-lab"
          ]
        },
        "performer": [
          {
            "display": "The Central European Lab"
          }
        ],
        "category": [
          {
            "coding": [
              {
                "system": "http://terminology.hl7.org/CodeSystem/observation-category",
                "code": "laboratory"
              }
            ]
          }
        ],
        "code": {
          "coding": [
            {
              "code": "18262-6",
              "system": "http://loinc.org",
              "display": "Cholesterol in LDL [Mass/volume] in Serum or Plasma by Direct assay"
            }
          ],
          "text": "Cholesterol in LDL [Mass/volume] in Serum or Plasma by Direct assay"
        },
        "valueQuantity": {
          "system": "http://unitsofmeasure.org",
          "value": 78.2,
          "unit": "mg/dL",
          "code": "mg/dL"
        },
        "referenceRange": [
          {
            "low": {
              "value": 0,
              "code": "mg/dL",
              "system": "http://unitsofmeasure.org"
            }
          },
          {
            "high": {
              "value": 130,
              "code": "mg/dL",
              "system": "http://unitsofmeasure.org"
            }
          }
        ],
        "text": {
          "status": "generated",
          "div": "<div xmlns=\"http://www.w3.org/1999/xhtml\"><table class=\"hl7__eu__lab__report\"><tr><th>Test</th><th>20-Mar-2025</th><th>Reference&#xA0;Range</th><th>Unit</th></tr><tr><td>Cholesterol in LDL [Mass/volume] in Serum or Plasma by Direct assay</td><td>78.2</td><td>0 - 130</td><td></td><td>mg/dL</td></tr></table></div>"
        },
        "status": "final",
        "subject": {
          "reference": "urn:uuid:e6e121e7-d4d8-4717-9708-d224e2f01649",
          "display": "Pelayo Casal"
        },
        "effectiveDateTime": "2025-03-20T05:38:59Z",
        "specimen": {
          "reference": "urn:uuid:0fb6c39f-f896-4d80-889d-27876dd9c8c1"
        }
      }
    },
    {
      "fullUrl": "urn:uuid:6c5b3417-df3a-4422-88a3-e2a9f8921935",
      "resource": {
        "resourceType": "Observation",
        "id": "6c5b3417-df3a-4422-88a3-e2a9f8921935",
        "meta": {
          "profile": [
            "http://hl7.eu/fhir/laboratory/StructureDefinition/Observation-resultslab-eu-lab"
          ]
        },
        "performer": [
          {
            "display": "The Central European Lab"
          }
        ],
        "category": [
          {
            "coding": [
              {
                "system": "http://terminology.hl7.org/CodeSystem/observation-category",
                "code": "laboratory"
              }
            ]
          }
        ],
        "code": {
          "coding": [
            {
              "code": "2085-9",
              "system": "http://loinc.org",
              "display": "Cholesterol in HDL [Mass/volume] in Serum or Plasma"
            }
          ],
          "text": "Cholesterol in HDL [Mass/volume] in Serum or Plasma"
        },
        "valueQuantity": {
          "system": "http://unitsofmeasure.org",
          "value": 53.3,
          "unit": "mg/dL",
          "code": "mg/dL"
        },
        "referenceRange": [
          {
            "low": {
              "value": 40,
              "code": "mg/dL",
              "system": "http://unitsofmeasure.org"
            }
          },
          {
            "high": {
              "value": 65,
              "code": "mg/dL",
              "system": "http://unitsofmeasure.org"
            }
          }
        ],
        "text": {
          "status": "generated",
          "div": "<div xmlns=\"http://www.w3.org/1999/xhtml\"><table class=\"hl7__eu__lab__report\"><tr><th>Test</th><th>20-Mar-2025</th><th>Reference&#xA0;Range</th><th>Unit</th></tr><tr><td>Cholesterol in HDL [Mass/volume] in Serum or Plasma</td><td>53.3</td><td>40 - 65</td><td></td><td>mg/dL</td></tr></table></div>"
        },
        "status": "final",
        "subject": {
          "reference": "urn:uuid:e6e121e7-d4d8-4717-9708-d224e2f01649",
          "display": "Pelayo Casal"
        },
        "effectiveDateTime": "2025-03-20T05:38:59Z",
        "specimen": {
          "reference": "urn:uuid:0fb6c39f-f896-4d80-889d-27876dd9c8c1"
        }
      }
    },
    {
      "fullUrl": "urn:uuid:61149aa6-65f4-4d1d-9ae7-52caecb93071",
      "resource": {
        "resourceType": "Device",
        "id": "61149aa6-65f4-4d1d-9ae7-52caecb93071",
        "deviceName": [
          {
            "name": "SYNDERAI Synthetic Generator",
            "type": "manufacturer-name"
          }
        ],
        "version": [
          {
            "value": "5.0"
          }
        ],
        "text": {
          "status": "generated",
          "div": "<div xmlns=\"http://www.w3.org/1999/xhtml\">SYNDERAI Synthetic Generator v5.0</div>"
        },
        "status": "active\"",
        "distinctIdentifier": "synderai-generator-50",
        "manufacturer": "SYNDERAI Project"
      }
    },
    {
      "fullUrl": "urn:uuid:d14a5e91-1942-45f3-b228-19cb6cfe21cb",
      "resource": {
        "resourceType": "Provenance",
        "id": "d14a5e91-1942-45f3-b228-19cb6cfe21cb",
        "target": [
          {
            "reference": "Patient/e6e121e7-d4d8-4717-9708-d224e2f01649"
          },
          {
            "reference": "Bundle/930a0718-337c-4f56-a634-048546d87ccd"
          },
          {
            "reference": "Composition/04c97ebe-8b5b-49cf-bb7b-daca40310d60"
          },
          {
            "reference": "PractitionerRole/80bd0458-59b7-4667-864f-d7b6215478cb"
          },
          {
            "reference": "Practitioner/af1d51be-b8a5-4bc0-ac1c-31e981d4127f"
          },
          {
            "reference": "PractitionerRole/e257070f-4cd6-46c6-904f-268e3d0a7902"
          },
          {
            "reference": "Organization/96535b68-6721-4ba2-a5c7-d5fbda9b4592"
          }
        ],
        "activity": {
          "text": "Synthetic Example Data Generation"
        },
        "policy": [
          "https://synderai.net/synderai-synthetic-data-policy"
        ],
        "agent": [
          {
            "type": {
              "text": "author"
            },
            "who": {
              "reference": "Device/61149aa6-65f4-4d1d-9ae7-52caecb93071"
            }
          }
        ],
        "reason": [
          {
            "text": "Interoperability Testing and Training (non-clinical use)"
          }
        ],
        "text": {
          "status": "generated",
          "div": "<div xmlns=\"http://www.w3.org/1999/xhtml\">Provenance for SYNDERAI Synthetic Example Data Resource</div>"
        },
        "recorded": "2025-03-20T06:38:59Z"
      }
    },
    {
      "fullUrl": "urn:uuid:80bd0458-59b7-4667-864f-d7b6215478cb",
      "resource": {
        "resourceType": "PractitionerRole",
        "id": "80bd0458-59b7-4667-864f-d7b6215478cb",
        "meta": {
          "profile": [
            "http://hl7.eu/fhir/base/StructureDefinition/practitionerRole-eu"
          ]
        },
        "text": {
          "status": "generated",
          "div": "<div xmlns=\"http://www.w3.org/1999/xhtml\">Laboratory Role Id: 80bd0458-59b7-4667-864f-d7b6215478cb</div>"
        },
        "practitioner": {
          "reference": "urn:uuid:af1d51be-b8a5-4bc0-ac1c-31e981d4127f"
        }
      }
    },
    {
      "fullUrl": "urn:uuid:af1d51be-b8a5-4bc0-ac1c-31e981d4127f",
      "resource": {
        "resourceType": "Practitioner",
        "id": "af1d51be-b8a5-4bc0-ac1c-31e981d4127f",
        "meta": {
          "profile": [
            "http://hl7.eu/fhir/base/StructureDefinition/practitioner-eu"
          ]
        },
        "identifier": [
          {
            "assigner": {
              "display": "HL7 Europe"
            },
            "system": "urn:oid:2.16.840.1.113883.2.51.999",
            "value": "57a438c6-466e-47d6-8c14-d0d5e1cc257e"
          }
        ],
        "name": [
          {
            "prefix": [
              "dr"
            ],
            "given": [
              "Ex"
            ],
            "family": "Ample"
          }
        ],
        "address": [
          {
            "line": [
              "Laboratoire Central Européenne",
              "Boulevard du Jardin Botanique 32"
            ],
            "postalCode": "1000",
            "city": "Brussels",
            "country": "Belgium"
          }
        ],
        "text": {
          "status": "generated",
          "div": "<div xmlns=\"http://www.w3.org/1999/xhtml\">Laboratory: Laboratoire Central Européenne, 1000 Brussels, Belgium</div>"
        }
      }
    }
  ],
  "type": "document",
  "timestamp": "2025-03-20T06:38:59Z"
}
