{
  "resourceType": "Bundle",
  "id": "ccf18757-52fb-4595-8096-a6985cedabfe",
  "meta": {
    "profile": [
      "http://hl7.eu/fhir/laboratory/StructureDefinition/Bundle-eu-lab"
    ]
  },
  "identifier": {
    "assigner": {
      "display": "HL7 Europe"
    },
    "system": "urn:oid:2.16.840.1.113883.2.51.999",
    "value": "7f4515f2-528e-47e3-a613-0a2245a212b5"
  },
  "entry": [
    {
      "fullUrl": "urn:uuid:7a777a9d-d153-495c-b456-4c713d84ea33",
      "resource": {
        "resourceType": "Composition",
        "id": "7a777a9d-d153-495c-b456-4c713d84ea33",
        "meta": {
          "profile": [
            "http://hl7.eu/fhir/laboratory/StructureDefinition/Composition-eu-lab"
          ]
        },
        "identifier": {
          "assigner": {
            "display": "HL7 Europe"
          },
          "system": "urn:oid:2.16.840.1.113883.2.51.999",
          "value": "0498843c-5889-4d38-8820-22145193e675"
        },
        "author": [
          {
            "reference": "urn:uuid:c5e5d9c3-20c6-483b-a107-63ffe96fe6a4"
          }
        ],
        "category": [
          {
            "coding": [
              {
                "code": "26436-6",
                "system": "http://loinc.org",
                "display": "Laboratory studies (set)"
              }
            ]
          }
        ],
        "type": {
          "coding": [
            {
              "code": "11502-2",
              "system": "http://loinc.org",
              "display": "Laboratory report"
            }
          ],
          "text": "Laboratory Report"
        },
        "section": [
          {
            "code": {
              "coding": [
                {
                  "code": "26436-6",
                  "system": "http://loinc.org",
                  "display": "Laboratory studies (set)"
                }
              ],
              "text": "Laboratory studies"
            },
            "section": [
              {
                "code": {
                  "coding": [
                    {
                      "code": "$18719-5",
                      "system": "http://loinc.org",
                      "display": "Chemistry studies (set)"
                    }
                  ],
                  "text": "Chemistry"
                },
                "entry": [
                  {
                    "reference": "urn:uuid:736924b6-30a0-439c-a910-a1cf925bf4d9"
                  },
                  {
                    "reference": "urn:uuid:44ed5e3d-7f47-4064-ba01-06993e85803e"
                  },
                  {
                    "reference": "urn:uuid:f816aa88-2a1b-4a28-8e57-2a0976e97dac"
                  },
                  {
                    "reference": "urn:uuid:81db7dc6-c720-4062-9bcc-da86a340435d"
                  },
                  {
                    "reference": "urn:uuid:5bbdae61-a121-4176-99cc-5339fa878284"
                  },
                  {
                    "reference": "urn:uuid:87f09f3f-68d9-4ecc-b1c5-7a2d217b3755"
                  },
                  {
                    "reference": "urn:uuid:55015d7c-05f8-4285-bfcd-41bc7f4ecab9"
                  },
                  {
                    "reference": "urn:uuid:7537e893-ad99-49ed-98e9-81f855ba5cb8"
                  },
                  {
                    "reference": "urn:uuid:36ba1cb7-e73e-44d8-af4e-7e6bfd54a97f"
                  },
                  {
                    "reference": "urn:uuid:9106b6a1-4f27-469f-8c8e-993103b0f69b"
                  }
                ],
                "text": {
                  "status": "generated",
                  "div": "<div xmlns=\"http://www.w3.org/1999/xhtml\"><h3>Chemistry</h3><table class=\"hl7__eu__lab__report\"><thead><tr><th>Test</th><th>21-MAR-2021</th><th>Reference&#xA0;Range</th><th>Unit</th></tr></thead><tbody><tr><td>Glucose [Mass/volume] in Serum or Plasma</td><td><strong>66.3 L</strong></td><td>70 - 99</td><td>mg/dL</td></tr><tr><td>Urea nitrogen [Mass/volume] in Serum or Plasma</td><td>11.6</td><td>7 - 20</td><td>mg/dL</td></tr><tr><td>Creatinine [Mass/volume] in Serum or Plasma</td><td><strong>1.5 H</strong></td><td>0.6 - 1.3</td><td>mg/dL</td></tr><tr><td>Calcium [Mass/volume] in Serum or Plasma</td><td>9.8</td><td>8.6 - 10.4</td><td>mg/dL</td></tr><tr><td>Sodium [Moles/volume] in Serum or Plasma</td><td>137.4</td><td>135 - 145</td><td>mmol/L</td></tr><tr><td>Potassium [Moles/volume] in Serum or Plasma</td><td>3.7</td><td>3.5 - 5</td><td>mmol/L</td></tr><tr><td>Chloride [Moles/volume] in Serum or Plasma</td><td>102.1</td><td>98 - 106</td><td>mmol/L</td></tr><tr><td>Carbon dioxide, total [Moles/volume] in Serum or Plasma</td><td>26.7</td><td>22 - 29</td><td>mmol/L</td></tr><tr><td>Ketones [Presence] in Urine by Test strip</td><td>Urine ketone test = trace</td><td></td><td></td></tr><tr><td>Hemoglobin A1c/Hemoglobin.total in Blood</td><td><strong>3.3 L</strong></td><td>4 - 6</td><td>%</td></tr></tbody></table></div>"
                },
                "title": "Chemistry"
              },
              {
                "code": {
                  "coding": [
                    {
                      "code": "$18729-4",
                      "system": "http://loinc.org",
                      "display": "Urinalysis studies (set)"
                    }
                  ],
                  "text": "Urinalysis"
                },
                "entry": [
                  {
                    "reference": "urn:uuid:ff52c82b-0fe3-4261-bcb8-ed8f93077029"
                  },
                  {
                    "reference": "urn:uuid:c3dd96c2-2ace-44d4-8c7c-39768e6cae8e"
                  },
                  {
                    "reference": "urn:uuid:c9fa76b8-b9fc-4615-aafb-54e5510b12e9"
                  },
                  {
                    "reference": "urn:uuid:9e0c549b-7110-4f4a-9ab5-23f96f2c3c55"
                  },
                  {
                    "reference": "urn:uuid:8e74b8bc-1865-409d-92ee-faad10c5742f"
                  },
                  {
                    "reference": "urn:uuid:ff28d669-3ae3-4cb1-9478-8fb530f733ac"
                  },
                  {
                    "reference": "urn:uuid:8aa442d2-579b-47c9-ac2c-8663ab6c1706"
                  },
                  {
                    "reference": "urn:uuid:f09288f6-31a0-4da6-8240-a786b4e4a98b"
                  },
                  {
                    "reference": "urn:uuid:76231487-de93-4273-96f1-353975af1d3c"
                  },
                  {
                    "reference": "urn:uuid:d7744189-0633-4b21-aa30-9b7702565e3a"
                  },
                  {
                    "reference": "urn:uuid:40205442-561a-4d44-8141-4f23e9fac9c4"
                  },
                  {
                    "reference": "urn:uuid:7ef10fa7-6d58-4975-94b1-06d02df75759"
                  }
                ],
                "text": {
                  "status": "generated",
                  "div": "<div xmlns=\"http://www.w3.org/1999/xhtml\"><h3>Urinalysis</h3><table class=\"hl7__eu__lab__report\"><thead><tr><th>Test</th><th>21-MAR-2021</th><th>Reference&#xA0;Range</th><th>Unit</th></tr></thead><tbody><tr><td>Glucose [Mass/volume] in Urine by Test strip</td><td><strong>2.4 H</strong></td><td>0 - 0.8</td><td>mg/dL</td></tr><tr><td>Glucose [Presence] in Urine by Test strip</td><td>++</td><td></td><td></td></tr><tr><td>Bilirubin.total [Mass/volume] in Urine by Test strip</td><td>0.5</td><td>0 - 1</td><td>mg/dL</td></tr><tr><td>Bilirubin.total [Presence] in Urine by Test strip</td><td>Finding of bilirubin in urine</td><td></td><td></td></tr><tr><td>Ketones [Mass/volume] in Urine by Test strip</td><td><strong>18.0 H</strong></td><td>0 - 4</td><td>mg/dL</td></tr><tr><td>Specific gravity of Urine by Test strip</td><td><strong>1.0 L</strong></td><td>1.005 - 1.03</td><td>{nominal}</td></tr><tr><td>pH of Urine by Test strip</td><td>6.2</td><td>4.5 - 7</td><td>pH</td></tr><tr><td>Protein [Mass/volume] in Urine by Test strip</td><td>111.0</td><td>0 - 145</td><td>mg/dL</td></tr><tr><td>Protein [Presence] in Urine by Test strip</td><td>Urine protein test = +</td><td></td><td></td></tr><tr><td>Nitrite [Presence] in Urine by Test strip</td><td>Urine nitrite negative</td><td></td><td></td></tr><tr><td>Hemoglobin [Presence] in Urine by Test strip</td><td>Urine blood test = negative</td><td></td><td></td></tr><tr><td>Leukocyte esterase [Presence] in Urine by Test strip</td><td>Urine leukocyte test negative</td><td></td><td></td></tr></tbody></table></div>"
                },
                "title": "Urinalysis"
              },
              {
                "code": {
                  "coding": [
                    {
                      "code": "$LP7846-1",
                      "system": "http://loinc.org",
                      "display": "Specimen information"
                    }
                  ],
                  "text": "Specimen information"
                },
                "entry": [
                  {
                    "reference": "urn:uuid:da6d48c1-8c87-44dd-81a5-006f91be3e22"
                  },
                  {
                    "reference": "urn:uuid:bd0b5851-1fdf-4f5c-96fa-5ab6dcd4bf6c"
                  },
                  {
                    "reference": "urn:uuid:da0e6552-88b1-48ba-bd86-0a7ad7066492"
                  },
                  {
                    "reference": "urn:uuid:45e29a4c-9ffd-4fb3-9539-07e42b687004"
                  }
                ],
                "text": {
                  "status": "generated",
                  "div": "<div xmlns=\"http://www.w3.org/1999/xhtml\"><h3>Specimen information</h3><table class=\"hl7__eu__lab__report\"><thead><tr><th>Test</th><th>21-MAR-2021</th><th>Specimen</th><th></th></tr></thead><tbody><tr><td>Appearance of Urine</td><td>Cloudy urine</td><td>Urine</td><td></td></tr><tr><td>Odor of Urine</td><td>Urine smell ammoniacal</td><td>Urine</td><td></td></tr><tr><td>Clarity of Urine</td><td>Translucent</td><td>Urine</td><td></td></tr><tr><td>Color of Urine</td><td>Brown color</td><td>Urine</td><td></td></tr></tbody></table></div>"
                },
                "title": "Specimen information"
              }
            ],
            "title": "Laboratory Report"
          },
          {
            "text": {
              "status": "generated",
              "div": "<div xmlns=\"http://www.w3.org/1999/xhtml\"><h3>Annotation</h3><table class=\"hl7__eu__lab__report\"><tr><th>Conclusion and Recommendations based on this report and previous findings known to us</th></tr><tr><td>The patient shows mild hypoglycemia and low HbA1c, suggesting possible chronic low blood glucose. Elevated creatinine may indicate impaired renal function. Urine findings (glucosuria, ketonuria, low specific gravity, brown color, cloudy appearance) suggest possible renal tubular dysfunction or uncontrolled diabetes with ketosis, though blood glucose is low. No evidence of urinary infection. Clinical correlation and further evaluation for renal and metabolic disorders are recommended.</td></tr></table></div>"
            },
            "code": {
              "coding": [
                {
                  "system": "http://loinc.org",
                  "code": "48767-8",
                  "display": "Annotation comment"
                }
              ]
            },
            "title": "Annotation comment"
          }
        ],
        "status": "final",
        "subject": {
          "reference": "urn:uuid:41b4a943-33c5-4295-a53e-7e40d4bc05c1",
          "display": "Iva Kratochvílová"
        },
        "date": "2021-03-21T17:10:29Z",
        "title": "Laboratory Report",
        "confidentiality": "N"
      }
    },
    {
      "fullUrl": "urn:uuid:a2537f0e-d0f7-4faa-979e-58db3b1f48a5",
      "resource": {
        "resourceType": "DiagnosticReport",
        "id": "a2537f0e-d0f7-4faa-979e-58db3b1f48a5",
        "meta": {
          "profile": [
            "http://hl7.eu/fhir/laboratory/StructureDefinition/DiagnosticReport-eu-lab"
          ]
        },
        "identifier": [
          {
            "assigner": {
              "display": "HL7 Europe"
            },
            "system": "urn:oid:2.16.840.1.113883.2.51.999",
            "value": "13ec8b49-d02b-41f1-b396-089b07802a41"
          }
        ],
        "extension": [
          {
            "url": "http://hl7.org/fhir/5.0/StructureDefinition/extension-DiagnosticReport.composition",
            "valueReference": {
              "reference": "urn:uuid:0498843c-5889-4d38-8820-22145193e675"
            }
          }
        ],
        "category": [
          {
            "coding": [
              {
                "code": "26436-6",
                "system": "http://loinc.org",
                "display": "Laboratory studies (set)"
              }
            ]
          }
        ],
        "specimen": [
          {
            "reference": "urn:uuid:fce6d5af-702f-4aea-abbf-0f232f6733d6"
          },
          {
            "reference": "urn:uuid:00746fb5-264e-4fc3-b1c7-5d84c14f3325"
          },
          {
            "reference": "urn:uuid:9f679284-4e88-420b-a832-567854fb2dc9"
          }
        ],
        "result": [
          {
            "reference": "urn:uuid:736924b6-30a0-439c-a910-a1cf925bf4d9"
          },
          {
            "reference": "urn:uuid:44ed5e3d-7f47-4064-ba01-06993e85803e"
          },
          {
            "reference": "urn:uuid:f816aa88-2a1b-4a28-8e57-2a0976e97dac"
          },
          {
            "reference": "urn:uuid:81db7dc6-c720-4062-9bcc-da86a340435d"
          },
          {
            "reference": "urn:uuid:5bbdae61-a121-4176-99cc-5339fa878284"
          },
          {
            "reference": "urn:uuid:87f09f3f-68d9-4ecc-b1c5-7a2d217b3755"
          },
          {
            "reference": "urn:uuid:55015d7c-05f8-4285-bfcd-41bc7f4ecab9"
          },
          {
            "reference": "urn:uuid:7537e893-ad99-49ed-98e9-81f855ba5cb8"
          },
          {
            "reference": "urn:uuid:da6d48c1-8c87-44dd-81a5-006f91be3e22"
          },
          {
            "reference": "urn:uuid:bd0b5851-1fdf-4f5c-96fa-5ab6dcd4bf6c"
          },
          {
            "reference": "urn:uuid:da0e6552-88b1-48ba-bd86-0a7ad7066492"
          },
          {
            "reference": "urn:uuid:45e29a4c-9ffd-4fb3-9539-07e42b687004"
          },
          {
            "reference": "urn:uuid:ff52c82b-0fe3-4261-bcb8-ed8f93077029"
          },
          {
            "reference": "urn:uuid:c3dd96c2-2ace-44d4-8c7c-39768e6cae8e"
          },
          {
            "reference": "urn:uuid:c9fa76b8-b9fc-4615-aafb-54e5510b12e9"
          },
          {
            "reference": "urn:uuid:9e0c549b-7110-4f4a-9ab5-23f96f2c3c55"
          },
          {
            "reference": "urn:uuid:8e74b8bc-1865-409d-92ee-faad10c5742f"
          },
          {
            "reference": "urn:uuid:36ba1cb7-e73e-44d8-af4e-7e6bfd54a97f"
          },
          {
            "reference": "urn:uuid:ff28d669-3ae3-4cb1-9478-8fb530f733ac"
          },
          {
            "reference": "urn:uuid:8aa442d2-579b-47c9-ac2c-8663ab6c1706"
          },
          {
            "reference": "urn:uuid:f09288f6-31a0-4da6-8240-a786b4e4a98b"
          },
          {
            "reference": "urn:uuid:76231487-de93-4273-96f1-353975af1d3c"
          },
          {
            "reference": "urn:uuid:d7744189-0633-4b21-aa30-9b7702565e3a"
          },
          {
            "reference": "urn:uuid:40205442-561a-4d44-8141-4f23e9fac9c4"
          },
          {
            "reference": "urn:uuid:7ef10fa7-6d58-4975-94b1-06d02df75759"
          },
          {
            "reference": "urn:uuid:9106b6a1-4f27-469f-8c8e-993103b0f69b"
          }
        ],
        "status": "registered",
        "code": {
          "coding": [
            {
              "code": "11502-2",
              "system": "http://loinc.org",
              "display": "Laboratory report"
            }
          ]
        },
        "subject": {
          "reference": "urn:uuid:41b4a943-33c5-4295-a53e-7e40d4bc05c1",
          "display": "Iva Kratochvílová"
        }
      }
    },
    {
      "fullUrl": "urn:uuid:41b4a943-33c5-4295-a53e-7e40d4bc05c1",
      "resource": {
        "resourceType": "Patient",
        "id": "41b4a943-33c5-4295-a53e-7e40d4bc05c1",
        "meta": {
          "security": [
            {
              "system": "http://terminology.hl7.org/CodeSystem/v3-ActReason",
              "code": "HTEST"
            },
            {
              "system": "http://terminology.hl7.org/CodeSystem/v3-ActReason",
              "code": "TRAIN"
            }
          ],
          "tag": [
            {
              "system": "https://synderai.net/fhir/CodeSystem/tags",
              "code": "synthetic",
              "display": "SYNDERAI Synthetic data"
            }
          ],
          "profile": [
            "http://hl7.eu/fhir/base/StructureDefinition/patient-eu-core"
          ]
        },
        "identifier": [
          {
            "type": {
              "coding": [
                {
                  "code": "PT",
                  "system": "http://terminology.hl7.org/CodeSystem/v2-0203"
                }
              ]
            },
            "system": "http://ec.europa.eu/identifier/eci",
            "value": "4380-389488-0"
          },
          {
            "type": {
              "coding": [
                {
                  "code": "MR",
                  "system": "http://terminology.hl7.org/CodeSystem/v2-0203"
                }
              ]
            },
            "system": "http://local.setting.eu/identifier",
            "value": "f8f9ebdc-03dd-2fc0-819c-affa4ffd7f67"
          }
        ],
        "name": [
          {
            "family": "Kratochvílová"
          },
          {
            "given": [
              "Iva"
            ]
          },
          {
            "text": "Iva Kratochvílová"
          }
        ],
        "address": [
          {
            "line": [
              "Žofie Podlipské 4"
            ],
            "use": "home",
            "type": "physical",
            "postalCode": "27324",
            "city": "Postoloprty",
            "country": "Czechia"
          }
        ],
        "telecom": [
          {
            "system": "phone",
            "value": "00420 607 985 072"
          }
        ],
        "extension": [
          {
            "url": "http://hl7.org/fhir/StructureDefinition/patient-nationality",
            "valueCodeableConcept": {
              "coding": [
                {
                  "code": "CZ",
                  "system": "http://hl7.org/fhir/ValueSet/country"
                }
              ]
            }
          }
        ],
        "text": {
          "status": "generated",
          "div": "<div xmlns=\"http://www.w3.org/1999/xhtml\"><table class=\"hl7__ips\"><tr><td>Iva Kratochvílová</td><td>female</td><td>17-Sep-1964</td></tr></table></div>"
        },
        "gender": "female",
        "birthDate": "1964-09-17"
      }
    },
    {
      "fullUrl": "urn:uuid:d3a57805-6700-4177-b117-5d142f504b84",
      "resource": {
        "resourceType": "ServiceRequest",
        "id": "d3a57805-6700-4177-b117-5d142f504b84",
        "meta": {
          "profile": [
            "http://hl7.eu/fhir/laboratory/StructureDefinition/ServiceRequest-eu-lab"
          ]
        },
        "identifier": [
          {
            "system": "http://example.org",
            "value": "fbd6690f-86d9-4e25-8fa7-a1deb3d9963a"
          }
        ],
        "specimen": [
          {
            "reference": "urn:uuid:fce6d5af-702f-4aea-abbf-0f232f6733d6"
          },
          {
            "reference": "urn:uuid:00746fb5-264e-4fc3-b1c7-5d84c14f3325"
          },
          {
            "reference": "urn:uuid:9f679284-4e88-420b-a832-567854fb2dc9"
          }
        ],
        "reasonCode": [
          {
            "coding": [
              {
                "code": "431856006",
                "system": "http://snomed.info/sct",
                "display": "Chronic kidney disease stage 2"
              }
            ]
          },
          {
            "coding": [
              {
                "code": "431855005",
                "system": "http://snomed.info/sct",
                "display": "Chronic kidney disease stage 1"
              }
            ]
          },
          {
            "coding": [
              {
                "code": "237602007",
                "system": "http://snomed.info/sct",
                "display": "Metabolic syndrome X"
              }
            ]
          },
          {
            "coding": [
              {
                "code": "91302008",
                "system": "http://snomed.info/sct",
                "display": "Sepsis"
              }
            ]
          },
          {
            "coding": [
              {
                "code": "271737000",
                "system": "http://snomed.info/sct",
                "display": "Anemia"
              }
            ]
          },
          {
            "coding": [
              {
                "code": "15777000",
                "system": "http://snomed.info/sct",
                "display": "Prediabetes"
              }
            ]
          },
          {
            "coding": [
              {
                "code": "157141000119108",
                "system": "http://snomed.info/sct",
                "display": "Proteinuria due to type 2 diabetes mellitus"
              }
            ]
          },
          {
            "coding": [
              {
                "code": "90781000119102",
                "system": "http://snomed.info/sct",
                "display": "Microalbuminuria due to type 2 diabetes mellitus"
              }
            ]
          },
          {
            "coding": [
              {
                "code": "239872002",
                "system": "http://snomed.info/sct",
                "display": "Osteoarthritis of hip"
              }
            ]
          },
          {
            "coding": [
              {
                "code": "40055000",
                "system": "http://snomed.info/sct",
                "display": "Chronic sinusitis"
              }
            ]
          },
          {
            "coding": [
              {
                "code": "127013003",
                "system": "http://snomed.info/sct",
                "display": "Disorder of kidney due to diabetes mellitus"
              }
            ]
          },
          {
            "coding": [
              {
                "code": "59621000",
                "system": "http://snomed.info/sct",
                "display": "Essential hypertension"
              }
            ]
          }
        ],
        "status": "active",
        "intent": "order",
        "code": {
          "coding": [
            {
              "code": "108252007",
              "system": "http://snomed.info/sct",
              "display": "Laboratory procedure"
            }
          ]
        },
        "subject": {
          "reference": "urn:uuid:41b4a943-33c5-4295-a53e-7e40d4bc05c1",
          "display": "Iva Kratochvílová"
        },
        "requester": {
          "reference": "urn:uuid:4499e5f5-4950-4eb8-8c4a-aa780c4b78fc"
        }
      }
    },
    {
      "fullUrl": "urn:uuid:4499e5f5-4950-4eb8-8c4a-aa780c4b78fc",
      "resource": {
        "resourceType": "PractitionerRole",
        "id": "4499e5f5-4950-4eb8-8c4a-aa780c4b78fc",
        "meta": {
          "profile": [
            "http://hl7.eu/fhir/base/StructureDefinition/practitionerRole-eu"
          ]
        },
        "text": {
          "status": "generated",
          "div": "<div xmlns=\"http://www.w3.org/1999/xhtml\">Provider Role Id: 4499e5f5-4950-4eb8-8c4a-aa780c4b78fc</div>"
        },
        "organization": {
          "reference": "urn:uuid:296992af-9fd9-44ab-b709-1734a61c61f5"
        }
      }
    },
    {
      "fullUrl": "urn:uuid:296992af-9fd9-44ab-b709-1734a61c61f5",
      "resource": {
        "resourceType": "Organization",
        "id": "296992af-9fd9-44ab-b709-1734a61c61f5",
        "meta": {
          "profile": [
            "http://hl7.eu/fhir/base/StructureDefinition/organization-eu"
          ]
        },
        "identifier": [
          {
            "assigner": {
              "display": "HL7 Europe"
            },
            "system": "urn:oid:2.16.840.1.113883.2.51.999",
            "value": "e7b76d10-ab0c-4778-885d-d5e487812d4a"
          }
        ],
        "address": [
          {
            "city": "Kadaň",
            "postalCode": "432 01",
            "country": "Czechia"
          }
        ],
        "text": {
          "status": "generated",
          "div": "<div xmlns=\"http://www.w3.org/1999/xhtml\">Provider Organization: Nemocnice s poliklinikou Kadaň</div>"
        },
        "name": "Nemocnice s poliklinikou Kadaň"
      }
    },
    {
      "fullUrl": "urn:uuid:fce6d5af-702f-4aea-abbf-0f232f6733d6",
      "resource": {
        "resourceType": "Specimen",
        "id": "fce6d5af-702f-4aea-abbf-0f232f6733d6",
        "meta": {
          "profile": [
            "http://hl7.eu/fhir/laboratory/StructureDefinition/Specimen-eu-lab"
          ]
        },
        "collection": {
          "collectedDateTime": "2021-03-21"
        },
        "text": {
          "status": "generated",
          "div": "<div xmlns=\"http://www.w3.org/1999/xhtml\"><table class=\"hl7__eu__lab__report\"><tr><th>Specimen</th><th>Collection Date</th></tr><tr><td>Acellular blood (serum or plasma) specimen</td><td><span class=\"nb\">21-Mar-2021</span></td></tr></table></div>"
        },
        "type": {
          "coding": [
            {
              "code": "122592007",
              "system": "http://snomed.info/sct",
              "display": "Acellular blood (serum or plasma) specimen"
            }
          ]
        }
      }
    },
    {
      "fullUrl": "urn:uuid:00746fb5-264e-4fc3-b1c7-5d84c14f3325",
      "resource": {
        "resourceType": "Specimen",
        "id": "00746fb5-264e-4fc3-b1c7-5d84c14f3325",
        "meta": {
          "profile": [
            "http://hl7.eu/fhir/laboratory/StructureDefinition/Specimen-eu-lab"
          ]
        },
        "collection": {
          "collectedDateTime": "2021-03-21"
        },
        "text": {
          "status": "generated",
          "div": "<div xmlns=\"http://www.w3.org/1999/xhtml\"><table class=\"hl7__eu__lab__report\"><tr><th>Specimen</th><th>Collection Date</th></tr><tr><td>Urine specimen</td><td><span class=\"nb\">21-Mar-2021</span></td></tr></table></div>"
        },
        "type": {
          "coding": [
            {
              "code": "122575003",
              "system": "http://snomed.info/sct",
              "display": "Urine specimen"
            }
          ]
        }
      }
    },
    {
      "fullUrl": "urn:uuid:9f679284-4e88-420b-a832-567854fb2dc9",
      "resource": {
        "resourceType": "Specimen",
        "id": "9f679284-4e88-420b-a832-567854fb2dc9",
        "meta": {
          "profile": [
            "http://hl7.eu/fhir/laboratory/StructureDefinition/Specimen-eu-lab"
          ]
        },
        "collection": {
          "collectedDateTime": "2021-03-21"
        },
        "text": {
          "status": "generated",
          "div": "<div xmlns=\"http://www.w3.org/1999/xhtml\"><table class=\"hl7__eu__lab__report\"><tr><th>Specimen</th><th>Collection Date</th></tr><tr><td>Whole blood specimen (specimen)</td><td><span class=\"nb\">21-Mar-2021</span></td></tr></table></div>"
        },
        "type": {
          "coding": [
            {
              "code": "258580003",
              "system": "http://snomed.info/sct",
              "display": "Whole blood specimen (specimen)"
            }
          ]
        }
      }
    },
    {
      "fullUrl": "urn:uuid:736924b6-30a0-439c-a910-a1cf925bf4d9",
      "resource": {
        "resourceType": "Observation",
        "id": "736924b6-30a0-439c-a910-a1cf925bf4d9",
        "meta": {
          "profile": [
            "http://hl7.eu/fhir/laboratory/StructureDefinition/Observation-resultslab-eu-lab"
          ]
        },
        "performer": [
          {
            "display": "The Central European Lab"
          }
        ],
        "category": [
          {
            "coding": [
              {
                "system": "http://terminology.hl7.org/CodeSystem/observation-category",
                "code": "laboratory"
              }
            ]
          }
        ],
        "code": {
          "coding": [
            {
              "code": "2345-7",
              "system": "http://loinc.org",
              "display": "Glucose [Mass/volume] in Serum or Plasma"
            }
          ],
          "text": "Glucose [Mass/volume] in Serum or Plasma"
        },
        "valueQuantity": {
          "system": "http://unitsofmeasure.org",
          "value": 66.3,
          "unit": "mg/dL",
          "code": "mg/dL"
        },
        "referenceRange": [
          {
            "low": {
              "value": 70,
              "code": "mg/dL",
              "system": "http://unitsofmeasure.org"
            }
          },
          {
            "high": {
              "value": 99,
              "code": "mg/dL",
              "system": "http://unitsofmeasure.org"
            }
          }
        ],
        "interpretation": [
          {
            "coding": [
              {
                "code": "L",
                "system": "http://terminology.hl7.org/CodeSystem/v3-ObservationInterpretation",
                "display": "Low"
              }
            ]
          }
        ],
        "text": {
          "status": "generated",
          "div": "<div xmlns=\"http://www.w3.org/1999/xhtml\"><table class=\"hl7__eu__lab__report\"><tr><th>Test</th><th>21-Mar-2021</th><th>Reference&#xA0;Range</th><th>Unit</th></tr><tr><td>Glucose [Mass/volume] in Serum or Plasma</td><td>66.3</td><td>70 - 99</td><td>L</td><td>mg/dL</td></tr></table></div>"
        },
        "status": "final",
        "subject": {
          "reference": "urn:uuid:41b4a943-33c5-4295-a53e-7e40d4bc05c1",
          "display": "Iva Kratochvílová"
        },
        "effectiveDateTime": "2021-03-21T16:10:29Z",
        "specimen": {
          "reference": "urn:uuid:fce6d5af-702f-4aea-abbf-0f232f6733d6"
        }
      }
    },
    {
      "fullUrl": "urn:uuid:44ed5e3d-7f47-4064-ba01-06993e85803e",
      "resource": {
        "resourceType": "Observation",
        "id": "44ed5e3d-7f47-4064-ba01-06993e85803e",
        "meta": {
          "profile": [
            "http://hl7.eu/fhir/laboratory/StructureDefinition/Observation-resultslab-eu-lab"
          ]
        },
        "performer": [
          {
            "display": "The Central European Lab"
          }
        ],
        "category": [
          {
            "coding": [
              {
                "system": "http://terminology.hl7.org/CodeSystem/observation-category",
                "code": "laboratory"
              }
            ]
          }
        ],
        "code": {
          "coding": [
            {
              "code": "3094-0",
              "system": "http://loinc.org",
              "display": "Urea nitrogen [Mass/volume] in Serum or Plasma"
            }
          ],
          "text": "Urea nitrogen [Mass/volume] in Serum or Plasma"
        },
        "valueQuantity": {
          "system": "http://unitsofmeasure.org",
          "value": 11.6,
          "unit": "mg/dL",
          "code": "mg/dL"
        },
        "referenceRange": [
          {
            "low": {
              "value": 7,
              "code": "mg/dL",
              "system": "http://unitsofmeasure.org"
            }
          },
          {
            "high": {
              "value": 20,
              "code": "mg/dL",
              "system": "http://unitsofmeasure.org"
            }
          }
        ],
        "text": {
          "status": "generated",
          "div": "<div xmlns=\"http://www.w3.org/1999/xhtml\"><table class=\"hl7__eu__lab__report\"><tr><th>Test</th><th>21-Mar-2021</th><th>Reference&#xA0;Range</th><th>Unit</th></tr><tr><td>Urea nitrogen [Mass/volume] in Serum or Plasma</td><td>11.6</td><td>7 - 20</td><td></td><td>mg/dL</td></tr></table></div>"
        },
        "status": "final",
        "subject": {
          "reference": "urn:uuid:41b4a943-33c5-4295-a53e-7e40d4bc05c1",
          "display": "Iva Kratochvílová"
        },
        "effectiveDateTime": "2021-03-21T16:10:29Z",
        "specimen": {
          "reference": "urn:uuid:fce6d5af-702f-4aea-abbf-0f232f6733d6"
        }
      }
    },
    {
      "fullUrl": "urn:uuid:f816aa88-2a1b-4a28-8e57-2a0976e97dac",
      "resource": {
        "resourceType": "Observation",
        "id": "f816aa88-2a1b-4a28-8e57-2a0976e97dac",
        "meta": {
          "profile": [
            "http://hl7.eu/fhir/laboratory/StructureDefinition/Observation-resultslab-eu-lab"
          ]
        },
        "performer": [
          {
            "display": "The Central European Lab"
          }
        ],
        "category": [
          {
            "coding": [
              {
                "system": "http://terminology.hl7.org/CodeSystem/observation-category",
                "code": "laboratory"
              }
            ]
          }
        ],
        "code": {
          "coding": [
            {
              "code": "2160-0",
              "system": "http://loinc.org",
              "display": "Creatinine [Mass/volume] in Serum or Plasma"
            }
          ],
          "text": "Creatinine [Mass/volume] in Serum or Plasma"
        },
        "valueQuantity": {
          "system": "http://unitsofmeasure.org",
          "value": 1.5,
          "unit": "mg/dL",
          "code": "mg/dL"
        },
        "referenceRange": [
          {
            "low": {
              "value": 0.6,
              "code": "mg/dL",
              "system": "http://unitsofmeasure.org"
            }
          },
          {
            "high": {
              "value": 1.3,
              "code": "mg/dL",
              "system": "http://unitsofmeasure.org"
            }
          }
        ],
        "interpretation": [
          {
            "coding": [
              {
                "code": "H",
                "system": "http://terminology.hl7.org/CodeSystem/v3-ObservationInterpretation",
                "display": "High"
              }
            ]
          }
        ],
        "text": {
          "status": "generated",
          "div": "<div xmlns=\"http://www.w3.org/1999/xhtml\"><table class=\"hl7__eu__lab__report\"><tr><th>Test</th><th>21-Mar-2021</th><th>Reference&#xA0;Range</th><th>Unit</th></tr><tr><td>Creatinine [Mass/volume] in Serum or Plasma</td><td>1.5</td><td>0.6 - 1.3</td><td>H</td><td>mg/dL</td></tr></table></div>"
        },
        "status": "final",
        "subject": {
          "reference": "urn:uuid:41b4a943-33c5-4295-a53e-7e40d4bc05c1",
          "display": "Iva Kratochvílová"
        },
        "effectiveDateTime": "2021-03-21T16:10:29Z",
        "specimen": {
          "reference": "urn:uuid:fce6d5af-702f-4aea-abbf-0f232f6733d6"
        }
      }
    },
    {
      "fullUrl": "urn:uuid:81db7dc6-c720-4062-9bcc-da86a340435d",
      "resource": {
        "resourceType": "Observation",
        "id": "81db7dc6-c720-4062-9bcc-da86a340435d",
        "meta": {
          "profile": [
            "http://hl7.eu/fhir/laboratory/StructureDefinition/Observation-resultslab-eu-lab"
          ]
        },
        "performer": [
          {
            "display": "The Central European Lab"
          }
        ],
        "category": [
          {
            "coding": [
              {
                "system": "http://terminology.hl7.org/CodeSystem/observation-category",
                "code": "laboratory"
              }
            ]
          }
        ],
        "code": {
          "coding": [
            {
              "code": "17861-6",
              "system": "http://loinc.org",
              "display": "Calcium [Mass/volume] in Serum or Plasma"
            }
          ],
          "text": "Calcium [Mass/volume] in Serum or Plasma"
        },
        "valueQuantity": {
          "system": "http://unitsofmeasure.org",
          "value": 9.8,
          "unit": "mg/dL",
          "code": "mg/dL"
        },
        "referenceRange": [
          {
            "low": {
              "value": 8.6,
              "code": "mg/dL",
              "system": "http://unitsofmeasure.org"
            }
          },
          {
            "high": {
              "value": 10.4,
              "code": "mg/dL",
              "system": "http://unitsofmeasure.org"
            }
          }
        ],
        "text": {
          "status": "generated",
          "div": "<div xmlns=\"http://www.w3.org/1999/xhtml\"><table class=\"hl7__eu__lab__report\"><tr><th>Test</th><th>21-Mar-2021</th><th>Reference&#xA0;Range</th><th>Unit</th></tr><tr><td>Calcium [Mass/volume] in Serum or Plasma</td><td>9.8</td><td>8.6 - 10.4</td><td></td><td>mg/dL</td></tr></table></div>"
        },
        "status": "final",
        "subject": {
          "reference": "urn:uuid:41b4a943-33c5-4295-a53e-7e40d4bc05c1",
          "display": "Iva Kratochvílová"
        },
        "effectiveDateTime": "2021-03-21T16:10:29Z",
        "specimen": {
          "reference": "urn:uuid:fce6d5af-702f-4aea-abbf-0f232f6733d6"
        }
      }
    },
    {
      "fullUrl": "urn:uuid:5bbdae61-a121-4176-99cc-5339fa878284",
      "resource": {
        "resourceType": "Observation",
        "id": "5bbdae61-a121-4176-99cc-5339fa878284",
        "meta": {
          "profile": [
            "http://hl7.eu/fhir/laboratory/StructureDefinition/Observation-resultslab-eu-lab"
          ]
        },
        "performer": [
          {
            "display": "The Central European Lab"
          }
        ],
        "category": [
          {
            "coding": [
              {
                "system": "http://terminology.hl7.org/CodeSystem/observation-category",
                "code": "laboratory"
              }
            ]
          }
        ],
        "code": {
          "coding": [
            {
              "code": "2951-2",
              "system": "http://loinc.org",
              "display": "Sodium [Moles/volume] in Serum or Plasma"
            }
          ],
          "text": "Sodium [Moles/volume] in Serum or Plasma"
        },
        "valueQuantity": {
          "system": "http://unitsofmeasure.org",
          "value": 137.4,
          "unit": "mmol/L",
          "code": "mmol/L"
        },
        "referenceRange": [
          {
            "low": {
              "value": 135,
              "code": "mmol/L",
              "system": "http://unitsofmeasure.org"
            }
          },
          {
            "high": {
              "value": 145,
              "code": "mmol/L",
              "system": "http://unitsofmeasure.org"
            }
          }
        ],
        "text": {
          "status": "generated",
          "div": "<div xmlns=\"http://www.w3.org/1999/xhtml\"><table class=\"hl7__eu__lab__report\"><tr><th>Test</th><th>21-Mar-2021</th><th>Reference&#xA0;Range</th><th>Unit</th></tr><tr><td>Sodium [Moles/volume] in Serum or Plasma</td><td>137.4</td><td>135 - 145</td><td></td><td>mmol/L</td></tr></table></div>"
        },
        "status": "final",
        "subject": {
          "reference": "urn:uuid:41b4a943-33c5-4295-a53e-7e40d4bc05c1",
          "display": "Iva Kratochvílová"
        },
        "effectiveDateTime": "2021-03-21T16:10:29Z",
        "specimen": {
          "reference": "urn:uuid:fce6d5af-702f-4aea-abbf-0f232f6733d6"
        }
      }
    },
    {
      "fullUrl": "urn:uuid:87f09f3f-68d9-4ecc-b1c5-7a2d217b3755",
      "resource": {
        "resourceType": "Observation",
        "id": "87f09f3f-68d9-4ecc-b1c5-7a2d217b3755",
        "meta": {
          "profile": [
            "http://hl7.eu/fhir/laboratory/StructureDefinition/Observation-resultslab-eu-lab"
          ]
        },
        "performer": [
          {
            "display": "The Central European Lab"
          }
        ],
        "category": [
          {
            "coding": [
              {
                "system": "http://terminology.hl7.org/CodeSystem/observation-category",
                "code": "laboratory"
              }
            ]
          }
        ],
        "code": {
          "coding": [
            {
              "code": "2823-3",
              "system": "http://loinc.org",
              "display": "Potassium [Moles/volume] in Serum or Plasma"
            }
          ],
          "text": "Potassium [Moles/volume] in Serum or Plasma"
        },
        "valueQuantity": {
          "system": "http://unitsofmeasure.org",
          "value": 3.7,
          "unit": "mmol/L",
          "code": "mmol/L"
        },
        "referenceRange": [
          {
            "low": {
              "value": 3.5,
              "code": "mmol/L",
              "system": "http://unitsofmeasure.org"
            }
          },
          {
            "high": {
              "value": 5,
              "code": "mmol/L",
              "system": "http://unitsofmeasure.org"
            }
          }
        ],
        "text": {
          "status": "generated",
          "div": "<div xmlns=\"http://www.w3.org/1999/xhtml\"><table class=\"hl7__eu__lab__report\"><tr><th>Test</th><th>21-Mar-2021</th><th>Reference&#xA0;Range</th><th>Unit</th></tr><tr><td>Potassium [Moles/volume] in Serum or Plasma</td><td>3.7</td><td>3.5 - 5</td><td></td><td>mmol/L</td></tr></table></div>"
        },
        "status": "final",
        "subject": {
          "reference": "urn:uuid:41b4a943-33c5-4295-a53e-7e40d4bc05c1",
          "display": "Iva Kratochvílová"
        },
        "effectiveDateTime": "2021-03-21T16:10:29Z",
        "specimen": {
          "reference": "urn:uuid:fce6d5af-702f-4aea-abbf-0f232f6733d6"
        }
      }
    },
    {
      "fullUrl": "urn:uuid:55015d7c-05f8-4285-bfcd-41bc7f4ecab9",
      "resource": {
        "resourceType": "Observation",
        "id": "55015d7c-05f8-4285-bfcd-41bc7f4ecab9",
        "meta": {
          "profile": [
            "http://hl7.eu/fhir/laboratory/StructureDefinition/Observation-resultslab-eu-lab"
          ]
        },
        "performer": [
          {
            "display": "The Central European Lab"
          }
        ],
        "category": [
          {
            "coding": [
              {
                "system": "http://terminology.hl7.org/CodeSystem/observation-category",
                "code": "laboratory"
              }
            ]
          }
        ],
        "code": {
          "coding": [
            {
              "code": "2075-0",
              "system": "http://loinc.org",
              "display": "Chloride [Moles/volume] in Serum or Plasma"
            }
          ],
          "text": "Chloride [Moles/volume] in Serum or Plasma"
        },
        "valueQuantity": {
          "system": "http://unitsofmeasure.org",
          "value": 102.1,
          "unit": "mmol/L",
          "code": "mmol/L"
        },
        "referenceRange": [
          {
            "low": {
              "value": 98,
              "code": "mmol/L",
              "system": "http://unitsofmeasure.org"
            }
          },
          {
            "high": {
              "value": 106,
              "code": "mmol/L",
              "system": "http://unitsofmeasure.org"
            }
          }
        ],
        "text": {
          "status": "generated",
          "div": "<div xmlns=\"http://www.w3.org/1999/xhtml\"><table class=\"hl7__eu__lab__report\"><tr><th>Test</th><th>21-Mar-2021</th><th>Reference&#xA0;Range</th><th>Unit</th></tr><tr><td>Chloride [Moles/volume] in Serum or Plasma</td><td>102.1</td><td>98 - 106</td><td></td><td>mmol/L</td></tr></table></div>"
        },
        "status": "final",
        "subject": {
          "reference": "urn:uuid:41b4a943-33c5-4295-a53e-7e40d4bc05c1",
          "display": "Iva Kratochvílová"
        },
        "effectiveDateTime": "2021-03-21T16:10:29Z",
        "specimen": {
          "reference": "urn:uuid:fce6d5af-702f-4aea-abbf-0f232f6733d6"
        }
      }
    },
    {
      "fullUrl": "urn:uuid:7537e893-ad99-49ed-98e9-81f855ba5cb8",
      "resource": {
        "resourceType": "Observation",
        "id": "7537e893-ad99-49ed-98e9-81f855ba5cb8",
        "meta": {
          "profile": [
            "http://hl7.eu/fhir/laboratory/StructureDefinition/Observation-resultslab-eu-lab"
          ]
        },
        "performer": [
          {
            "display": "The Central European Lab"
          }
        ],
        "category": [
          {
            "coding": [
              {
                "system": "http://terminology.hl7.org/CodeSystem/observation-category",
                "code": "laboratory"
              }
            ]
          }
        ],
        "code": {
          "coding": [
            {
              "code": "2028-9",
              "system": "http://loinc.org",
              "display": "Carbon dioxide, total [Moles/volume] in Serum or Plasma"
            }
          ],
          "text": "Carbon dioxide, total [Moles/volume] in Serum or Plasma"
        },
        "valueQuantity": {
          "system": "http://unitsofmeasure.org",
          "value": 26.7,
          "unit": "mmol/L",
          "code": "mmol/L"
        },
        "referenceRange": [
          {
            "low": {
              "value": 22,
              "code": "mmol/L",
              "system": "http://unitsofmeasure.org"
            }
          },
          {
            "high": {
              "value": 29,
              "code": "mmol/L",
              "system": "http://unitsofmeasure.org"
            }
          }
        ],
        "text": {
          "status": "generated",
          "div": "<div xmlns=\"http://www.w3.org/1999/xhtml\"><table class=\"hl7__eu__lab__report\"><tr><th>Test</th><th>21-Mar-2021</th><th>Reference&#xA0;Range</th><th>Unit</th></tr><tr><td>Carbon dioxide, total [Moles/volume] in Serum or Plasma</td><td>26.7</td><td>22 - 29</td><td></td><td>mmol/L</td></tr></table></div>"
        },
        "status": "final",
        "subject": {
          "reference": "urn:uuid:41b4a943-33c5-4295-a53e-7e40d4bc05c1",
          "display": "Iva Kratochvílová"
        },
        "effectiveDateTime": "2021-03-21T16:10:29Z",
        "specimen": {
          "reference": "urn:uuid:fce6d5af-702f-4aea-abbf-0f232f6733d6"
        }
      }
    },
    {
      "fullUrl": "urn:uuid:da6d48c1-8c87-44dd-81a5-006f91be3e22",
      "resource": {
        "resourceType": "Observation",
        "id": "da6d48c1-8c87-44dd-81a5-006f91be3e22",
        "meta": {
          "profile": [
            "http://hl7.eu/fhir/laboratory/StructureDefinition/Observation-resultslab-eu-lab"
          ]
        },
        "performer": [
          {
            "display": "The Central European Lab"
          }
        ],
        "category": [
          {
            "coding": [
              {
                "system": "http://terminology.hl7.org/CodeSystem/observation-category",
                "code": "laboratory"
              }
            ]
          }
        ],
        "code": {
          "coding": [
            {
              "code": "5767-9",
              "system": "http://loinc.org",
              "display": "Appearance of Urine"
            }
          ],
          "text": "Appearance of Urine"
        },
        "text": {
          "status": "generated",
          "div": "<div xmlns=\"http://www.w3.org/1999/xhtml\"><table class=\"hl7__eu__lab__report\"><tr><th>Test</th><th>21-Mar-2021</th><th>Reference&#xA0;Range</th><th>Unit</th></tr><tr><td>Appearance of Urine</td></tr></table></div>"
        },
        "status": "final",
        "subject": {
          "reference": "urn:uuid:41b4a943-33c5-4295-a53e-7e40d4bc05c1",
          "display": "Iva Kratochvílová"
        },
        "effectiveDateTime": "2021-03-21T16:10:29Z",
        "specimen": {
          "reference": "urn:uuid:00746fb5-264e-4fc3-b1c7-5d84c14f3325"
        }
      }
    },
    {
      "fullUrl": "urn:uuid:bd0b5851-1fdf-4f5c-96fa-5ab6dcd4bf6c",
      "resource": {
        "resourceType": "Observation",
        "id": "bd0b5851-1fdf-4f5c-96fa-5ab6dcd4bf6c",
        "meta": {
          "profile": [
            "http://hl7.eu/fhir/laboratory/StructureDefinition/Observation-resultslab-eu-lab"
          ]
        },
        "performer": [
          {
            "display": "The Central European Lab"
          }
        ],
        "category": [
          {
            "coding": [
              {
                "system": "http://terminology.hl7.org/CodeSystem/observation-category",
                "code": "laboratory"
              }
            ]
          }
        ],
        "code": {
          "coding": [
            {
              "code": "34533-0",
              "system": "http://loinc.org",
              "display": "Odor of Urine"
            }
          ],
          "text": "Odor of Urine"
        },
        "text": {
          "status": "generated",
          "div": "<div xmlns=\"http://www.w3.org/1999/xhtml\"><table class=\"hl7__eu__lab__report\"><tr><th>Test</th><th>21-Mar-2021</th><th>Reference&#xA0;Range</th><th>Unit</th></tr><tr><td>Odor of Urine</td></tr></table></div>"
        },
        "status": "final",
        "subject": {
          "reference": "urn:uuid:41b4a943-33c5-4295-a53e-7e40d4bc05c1",
          "display": "Iva Kratochvílová"
        },
        "effectiveDateTime": "2021-03-21T16:10:29Z",
        "specimen": {
          "reference": "urn:uuid:00746fb5-264e-4fc3-b1c7-5d84c14f3325"
        }
      }
    },
    {
      "fullUrl": "urn:uuid:da0e6552-88b1-48ba-bd86-0a7ad7066492",
      "resource": {
        "resourceType": "Observation",
        "id": "da0e6552-88b1-48ba-bd86-0a7ad7066492",
        "meta": {
          "profile": [
            "http://hl7.eu/fhir/laboratory/StructureDefinition/Observation-resultslab-eu-lab"
          ]
        },
        "performer": [
          {
            "display": "The Central European Lab"
          }
        ],
        "category": [
          {
            "coding": [
              {
                "system": "http://terminology.hl7.org/CodeSystem/observation-category",
                "code": "laboratory"
              }
            ]
          }
        ],
        "code": {
          "coding": [
            {
              "code": "32167-9",
              "system": "http://loinc.org",
              "display": "Clarity of Urine"
            }
          ],
          "text": "Clarity of Urine"
        },
        "text": {
          "status": "generated",
          "div": "<div xmlns=\"http://www.w3.org/1999/xhtml\"><table class=\"hl7__eu__lab__report\"><tr><th>Test</th><th>21-Mar-2021</th><th>Reference&#xA0;Range</th><th>Unit</th></tr><tr><td>Clarity of Urine</td></tr></table></div>"
        },
        "status": "final",
        "subject": {
          "reference": "urn:uuid:41b4a943-33c5-4295-a53e-7e40d4bc05c1",
          "display": "Iva Kratochvílová"
        },
        "effectiveDateTime": "2021-03-21T16:10:29Z",
        "specimen": {
          "reference": "urn:uuid:00746fb5-264e-4fc3-b1c7-5d84c14f3325"
        }
      }
    },
    {
      "fullUrl": "urn:uuid:45e29a4c-9ffd-4fb3-9539-07e42b687004",
      "resource": {
        "resourceType": "Observation",
        "id": "45e29a4c-9ffd-4fb3-9539-07e42b687004",
        "meta": {
          "profile": [
            "http://hl7.eu/fhir/laboratory/StructureDefinition/Observation-resultslab-eu-lab"
          ]
        },
        "performer": [
          {
            "display": "The Central European Lab"
          }
        ],
        "category": [
          {
            "coding": [
              {
                "system": "http://terminology.hl7.org/CodeSystem/observation-category",
                "code": "laboratory"
              }
            ]
          }
        ],
        "code": {
          "coding": [
            {
              "code": "5778-6",
              "system": "http://loinc.org",
              "display": "Color of Urine"
            }
          ],
          "text": "Color of Urine"
        },
        "text": {
          "status": "generated",
          "div": "<div xmlns=\"http://www.w3.org/1999/xhtml\"><table class=\"hl7__eu__lab__report\"><tr><th>Test</th><th>21-Mar-2021</th><th>Reference&#xA0;Range</th><th>Unit</th></tr><tr><td>Color of Urine</td></tr></table></div>"
        },
        "status": "final",
        "subject": {
          "reference": "urn:uuid:41b4a943-33c5-4295-a53e-7e40d4bc05c1",
          "display": "Iva Kratochvílová"
        },
        "effectiveDateTime": "2021-03-21T16:10:29Z",
        "specimen": {
          "reference": "urn:uuid:00746fb5-264e-4fc3-b1c7-5d84c14f3325"
        }
      }
    },
    {
      "fullUrl": "urn:uuid:ff52c82b-0fe3-4261-bcb8-ed8f93077029",
      "resource": {
        "resourceType": "Observation",
        "id": "ff52c82b-0fe3-4261-bcb8-ed8f93077029",
        "meta": {
          "profile": [
            "http://hl7.eu/fhir/laboratory/StructureDefinition/Observation-resultslab-eu-lab"
          ]
        },
        "performer": [
          {
            "display": "The Central European Lab"
          }
        ],
        "category": [
          {
            "coding": [
              {
                "system": "http://terminology.hl7.org/CodeSystem/observation-category",
                "code": "laboratory"
              }
            ]
          }
        ],
        "code": {
          "coding": [
            {
              "code": "5792-7",
              "system": "http://loinc.org",
              "display": "Glucose [Mass/volume] in Urine by Test strip"
            }
          ],
          "text": "Glucose [Mass/volume] in Urine by Test strip"
        },
        "valueQuantity": {
          "system": "http://unitsofmeasure.org",
          "value": 2.4,
          "unit": "mg/dL",
          "code": "mg/dL"
        },
        "referenceRange": [
          {
            "low": {
              "value": 0,
              "code": "mg/dL",
              "system": "http://unitsofmeasure.org"
            }
          },
          {
            "high": {
              "value": 0.8,
              "code": "mg/dL",
              "system": "http://unitsofmeasure.org"
            }
          }
        ],
        "interpretation": [
          {
            "coding": [
              {
                "code": "H",
                "system": "http://terminology.hl7.org/CodeSystem/v3-ObservationInterpretation",
                "display": "High"
              }
            ]
          }
        ],
        "text": {
          "status": "generated",
          "div": "<div xmlns=\"http://www.w3.org/1999/xhtml\"><table class=\"hl7__eu__lab__report\"><tr><th>Test</th><th>21-Mar-2021</th><th>Reference&#xA0;Range</th><th>Unit</th></tr><tr><td>Glucose [Mass/volume] in Urine by Test strip</td><td>2.4</td><td>0 - 0.8</td><td>H</td><td>mg/dL</td></tr></table></div>"
        },
        "status": "final",
        "subject": {
          "reference": "urn:uuid:41b4a943-33c5-4295-a53e-7e40d4bc05c1",
          "display": "Iva Kratochvílová"
        },
        "effectiveDateTime": "2021-03-21T16:10:29Z",
        "specimen": {
          "reference": "urn:uuid:00746fb5-264e-4fc3-b1c7-5d84c14f3325"
        }
      }
    },
    {
      "fullUrl": "urn:uuid:c3dd96c2-2ace-44d4-8c7c-39768e6cae8e",
      "resource": {
        "resourceType": "Observation",
        "id": "c3dd96c2-2ace-44d4-8c7c-39768e6cae8e",
        "meta": {
          "profile": [
            "http://hl7.eu/fhir/laboratory/StructureDefinition/Observation-resultslab-eu-lab"
          ]
        },
        "performer": [
          {
            "display": "The Central European Lab"
          }
        ],
        "category": [
          {
            "coding": [
              {
                "system": "http://terminology.hl7.org/CodeSystem/observation-category",
                "code": "laboratory"
              }
            ]
          }
        ],
        "code": {
          "coding": [
            {
              "code": "25428-4",
              "system": "http://loinc.org",
              "display": "Glucose [Presence] in Urine by Test strip"
            }
          ],
          "text": "Glucose [Presence] in Urine by Test strip"
        },
        "text": {
          "status": "generated",
          "div": "<div xmlns=\"http://www.w3.org/1999/xhtml\"><table class=\"hl7__eu__lab__report\"><tr><th>Test</th><th>21-Mar-2021</th><th>Reference&#xA0;Range</th><th>Unit</th></tr><tr><td>Glucose [Presence] in Urine by Test strip</td></tr></table></div>"
        },
        "status": "final",
        "subject": {
          "reference": "urn:uuid:41b4a943-33c5-4295-a53e-7e40d4bc05c1",
          "display": "Iva Kratochvílová"
        },
        "effectiveDateTime": "2021-03-21T16:10:29Z",
        "specimen": {
          "reference": "urn:uuid:00746fb5-264e-4fc3-b1c7-5d84c14f3325"
        }
      }
    },
    {
      "fullUrl": "urn:uuid:c9fa76b8-b9fc-4615-aafb-54e5510b12e9",
      "resource": {
        "resourceType": "Observation",
        "id": "c9fa76b8-b9fc-4615-aafb-54e5510b12e9",
        "meta": {
          "profile": [
            "http://hl7.eu/fhir/laboratory/StructureDefinition/Observation-resultslab-eu-lab"
          ]
        },
        "performer": [
          {
            "display": "The Central European Lab"
          }
        ],
        "category": [
          {
            "coding": [
              {
                "system": "http://terminology.hl7.org/CodeSystem/observation-category",
                "code": "laboratory"
              }
            ]
          }
        ],
        "code": {
          "coding": [
            {
              "code": "20505-4",
              "system": "http://loinc.org",
              "display": "Bilirubin.total [Mass/volume] in Urine by Test strip"
            }
          ],
          "text": "Bilirubin.total [Mass/volume] in Urine by Test strip"
        },
        "valueQuantity": {
          "system": "http://unitsofmeasure.org",
          "value": 0.5,
          "unit": "mg/dL",
          "code": "mg/dL"
        },
        "referenceRange": [
          {
            "low": {
              "value": 0,
              "code": "mg/dL",
              "system": "http://unitsofmeasure.org"
            }
          },
          {
            "high": {
              "value": 1,
              "code": "mg/dL",
              "system": "http://unitsofmeasure.org"
            }
          }
        ],
        "text": {
          "status": "generated",
          "div": "<div xmlns=\"http://www.w3.org/1999/xhtml\"><table class=\"hl7__eu__lab__report\"><tr><th>Test</th><th>21-Mar-2021</th><th>Reference&#xA0;Range</th><th>Unit</th></tr><tr><td>Bilirubin.total [Mass/volume] in Urine by Test strip</td><td>0.5</td><td>0 - 1</td><td></td><td>mg/dL</td></tr></table></div>"
        },
        "status": "final",
        "subject": {
          "reference": "urn:uuid:41b4a943-33c5-4295-a53e-7e40d4bc05c1",
          "display": "Iva Kratochvílová"
        },
        "effectiveDateTime": "2021-03-21T16:10:29Z",
        "specimen": {
          "reference": "urn:uuid:00746fb5-264e-4fc3-b1c7-5d84c14f3325"
        }
      }
    },
    {
      "fullUrl": "urn:uuid:9e0c549b-7110-4f4a-9ab5-23f96f2c3c55",
      "resource": {
        "resourceType": "Observation",
        "id": "9e0c549b-7110-4f4a-9ab5-23f96f2c3c55",
        "meta": {
          "profile": [
            "http://hl7.eu/fhir/laboratory/StructureDefinition/Observation-resultslab-eu-lab"
          ]
        },
        "performer": [
          {
            "display": "The Central European Lab"
          }
        ],
        "category": [
          {
            "coding": [
              {
                "system": "http://terminology.hl7.org/CodeSystem/observation-category",
                "code": "laboratory"
              }
            ]
          }
        ],
        "code": {
          "coding": [
            {
              "code": "5770-3",
              "system": "http://loinc.org",
              "display": "Bilirubin.total [Presence] in Urine by Test strip"
            }
          ],
          "text": "Bilirubin.total [Presence] in Urine by Test strip"
        },
        "text": {
          "status": "generated",
          "div": "<div xmlns=\"http://www.w3.org/1999/xhtml\"><table class=\"hl7__eu__lab__report\"><tr><th>Test</th><th>21-Mar-2021</th><th>Reference&#xA0;Range</th><th>Unit</th></tr><tr><td>Bilirubin.total [Presence] in Urine by Test strip</td></tr></table></div>"
        },
        "status": "final",
        "subject": {
          "reference": "urn:uuid:41b4a943-33c5-4295-a53e-7e40d4bc05c1",
          "display": "Iva Kratochvílová"
        },
        "effectiveDateTime": "2021-03-21T16:10:29Z",
        "specimen": {
          "reference": "urn:uuid:00746fb5-264e-4fc3-b1c7-5d84c14f3325"
        }
      }
    },
    {
      "fullUrl": "urn:uuid:8e74b8bc-1865-409d-92ee-faad10c5742f",
      "resource": {
        "resourceType": "Observation",
        "id": "8e74b8bc-1865-409d-92ee-faad10c5742f",
        "meta": {
          "profile": [
            "http://hl7.eu/fhir/laboratory/StructureDefinition/Observation-resultslab-eu-lab"
          ]
        },
        "performer": [
          {
            "display": "The Central European Lab"
          }
        ],
        "category": [
          {
            "coding": [
              {
                "system": "http://terminology.hl7.org/CodeSystem/observation-category",
                "code": "laboratory"
              }
            ]
          }
        ],
        "code": {
          "coding": [
            {
              "code": "5797-6",
              "system": "http://loinc.org",
              "display": "Ketones [Mass/volume] in Urine by Test strip"
            }
          ],
          "text": "Ketones [Mass/volume] in Urine by Test strip"
        },
        "valueQuantity": {
          "system": "http://unitsofmeasure.org",
          "value": 18,
          "unit": "mg/dL",
          "code": "mg/dL"
        },
        "referenceRange": [
          {
            "low": {
              "value": 0,
              "code": "mg/dL",
              "system": "http://unitsofmeasure.org"
            }
          },
          {
            "high": {
              "value": 4,
              "code": "mg/dL",
              "system": "http://unitsofmeasure.org"
            }
          }
        ],
        "interpretation": [
          {
            "coding": [
              {
                "code": "H",
                "system": "http://terminology.hl7.org/CodeSystem/v3-ObservationInterpretation",
                "display": "High"
              }
            ]
          }
        ],
        "text": {
          "status": "generated",
          "div": "<div xmlns=\"http://www.w3.org/1999/xhtml\"><table class=\"hl7__eu__lab__report\"><tr><th>Test</th><th>21-Mar-2021</th><th>Reference&#xA0;Range</th><th>Unit</th></tr><tr><td>Ketones [Mass/volume] in Urine by Test strip</td><td>18.0</td><td>0 - 4</td><td>H</td><td>mg/dL</td></tr></table></div>"
        },
        "status": "final",
        "subject": {
          "reference": "urn:uuid:41b4a943-33c5-4295-a53e-7e40d4bc05c1",
          "display": "Iva Kratochvílová"
        },
        "effectiveDateTime": "2021-03-21T16:10:29Z",
        "specimen": {
          "reference": "urn:uuid:00746fb5-264e-4fc3-b1c7-5d84c14f3325"
        }
      }
    },
    {
      "fullUrl": "urn:uuid:36ba1cb7-e73e-44d8-af4e-7e6bfd54a97f",
      "resource": {
        "resourceType": "Observation",
        "id": "36ba1cb7-e73e-44d8-af4e-7e6bfd54a97f",
        "meta": {
          "profile": [
            "http://hl7.eu/fhir/laboratory/StructureDefinition/Observation-resultslab-eu-lab"
          ]
        },
        "performer": [
          {
            "display": "The Central European Lab"
          }
        ],
        "category": [
          {
            "coding": [
              {
                "system": "http://terminology.hl7.org/CodeSystem/observation-category",
                "code": "laboratory"
              }
            ]
          }
        ],
        "code": {
          "coding": [
            {
              "code": "2514-8",
              "system": "http://loinc.org",
              "display": "Ketones [Presence] in Urine by Test strip"
            }
          ],
          "text": "Ketones [Presence] in Urine by Test strip"
        },
        "text": {
          "status": "generated",
          "div": "<div xmlns=\"http://www.w3.org/1999/xhtml\"><table class=\"hl7__eu__lab__report\"><tr><th>Test</th><th>21-Mar-2021</th><th>Reference&#xA0;Range</th><th>Unit</th></tr><tr><td>Ketones [Presence] in Urine by Test strip</td></tr></table></div>"
        },
        "status": "final",
        "subject": {
          "reference": "urn:uuid:41b4a943-33c5-4295-a53e-7e40d4bc05c1",
          "display": "Iva Kratochvílová"
        },
        "effectiveDateTime": "2021-03-21T16:10:29Z",
        "specimen": {
          "reference": "urn:uuid:00746fb5-264e-4fc3-b1c7-5d84c14f3325"
        }
      }
    },
    {
      "fullUrl": "urn:uuid:ff28d669-3ae3-4cb1-9478-8fb530f733ac",
      "resource": {
        "resourceType": "Observation",
        "id": "ff28d669-3ae3-4cb1-9478-8fb530f733ac",
        "meta": {
          "profile": [
            "http://hl7.eu/fhir/laboratory/StructureDefinition/Observation-resultslab-eu-lab"
          ]
        },
        "performer": [
          {
            "display": "The Central European Lab"
          }
        ],
        "category": [
          {
            "coding": [
              {
                "system": "http://terminology.hl7.org/CodeSystem/observation-category",
                "code": "laboratory"
              }
            ]
          }
        ],
        "code": {
          "coding": [
            {
              "code": "5811-5",
              "system": "http://loinc.org",
              "display": "Specific gravity of Urine by Test strip"
            }
          ],
          "text": "Specific gravity of Urine by Test strip"
        },
        "valueQuantity": {
          "system": "http://unitsofmeasure.org",
          "value": 1,
          "unit": "{nominal}",
          "code": "{nominal}"
        },
        "referenceRange": [
          {
            "low": {
              "value": 1.005,
              "code": "g/mL",
              "system": "http://unitsofmeasure.org"
            }
          },
          {
            "high": {
              "value": 1.03,
              "code": "g/mL",
              "system": "http://unitsofmeasure.org"
            }
          }
        ],
        "interpretation": [
          {
            "coding": [
              {
                "code": "L",
                "system": "http://terminology.hl7.org/CodeSystem/v3-ObservationInterpretation",
                "display": "Low"
              }
            ]
          }
        ],
        "text": {
          "status": "generated",
          "div": "<div xmlns=\"http://www.w3.org/1999/xhtml\"><table class=\"hl7__eu__lab__report\"><tr><th>Test</th><th>21-Mar-2021</th><th>Reference&#xA0;Range</th><th>Unit</th></tr><tr><td>Specific gravity of Urine by Test strip</td><td>1.0</td><td>1.005 - 1.03</td><td>L</td><td>{nominal}</td></tr></table></div>"
        },
        "status": "final",
        "subject": {
          "reference": "urn:uuid:41b4a943-33c5-4295-a53e-7e40d4bc05c1",
          "display": "Iva Kratochvílová"
        },
        "effectiveDateTime": "2021-03-21T16:10:29Z",
        "specimen": {
          "reference": "urn:uuid:00746fb5-264e-4fc3-b1c7-5d84c14f3325"
        }
      }
    },
    {
      "fullUrl": "urn:uuid:8aa442d2-579b-47c9-ac2c-8663ab6c1706",
      "resource": {
        "resourceType": "Observation",
        "id": "8aa442d2-579b-47c9-ac2c-8663ab6c1706",
        "meta": {
          "profile": [
            "http://hl7.eu/fhir/laboratory/StructureDefinition/Observation-resultslab-eu-lab"
          ]
        },
        "performer": [
          {
            "display": "The Central European Lab"
          }
        ],
        "category": [
          {
            "coding": [
              {
                "system": "http://terminology.hl7.org/CodeSystem/observation-category",
                "code": "laboratory"
              }
            ]
          }
        ],
        "code": {
          "coding": [
            {
              "code": "5803-2",
              "system": "http://loinc.org",
              "display": "pH of Urine by Test strip"
            }
          ],
          "text": "pH of Urine by Test strip"
        },
        "valueQuantity": {
          "system": "http://unitsofmeasure.org",
          "value": 6.2,
          "unit": "pH",
          "code": "pH"
        },
        "referenceRange": [
          {
            "low": {
              "value": 4.5,
              "code": "pH",
              "system": "http://unitsofmeasure.org"
            }
          },
          {
            "high": {
              "value": 7,
              "code": "pH",
              "system": "http://unitsofmeasure.org"
            }
          }
        ],
        "text": {
          "status": "generated",
          "div": "<div xmlns=\"http://www.w3.org/1999/xhtml\"><table class=\"hl7__eu__lab__report\"><tr><th>Test</th><th>21-Mar-2021</th><th>Reference&#xA0;Range</th><th>Unit</th></tr><tr><td>pH of Urine by Test strip</td><td>6.2</td><td>4.5 - 7</td><td></td><td>pH</td></tr></table></div>"
        },
        "status": "final",
        "subject": {
          "reference": "urn:uuid:41b4a943-33c5-4295-a53e-7e40d4bc05c1",
          "display": "Iva Kratochvílová"
        },
        "effectiveDateTime": "2021-03-21T16:10:29Z",
        "specimen": {
          "reference": "urn:uuid:00746fb5-264e-4fc3-b1c7-5d84c14f3325"
        }
      }
    },
    {
      "fullUrl": "urn:uuid:f09288f6-31a0-4da6-8240-a786b4e4a98b",
      "resource": {
        "resourceType": "Observation",
        "id": "f09288f6-31a0-4da6-8240-a786b4e4a98b",
        "meta": {
          "profile": [
            "http://hl7.eu/fhir/laboratory/StructureDefinition/Observation-resultslab-eu-lab"
          ]
        },
        "performer": [
          {
            "display": "The Central European Lab"
          }
        ],
        "category": [
          {
            "coding": [
              {
                "system": "http://terminology.hl7.org/CodeSystem/observation-category",
                "code": "laboratory"
              }
            ]
          }
        ],
        "code": {
          "coding": [
            {
              "code": "5804-0",
              "system": "http://loinc.org",
              "display": "Protein [Mass/volume] in Urine by Test strip"
            }
          ],
          "text": "Protein [Mass/volume] in Urine by Test strip"
        },
        "valueQuantity": {
          "system": "http://unitsofmeasure.org",
          "value": 111,
          "unit": "mg/dL",
          "code": "mg/dL"
        },
        "referenceRange": [
          {
            "low": {
              "value": 0,
              "code": "mg/dL",
              "system": "http://unitsofmeasure.org"
            }
          },
          {
            "high": {
              "value": 145,
              "code": "mg/dL",
              "system": "http://unitsofmeasure.org"
            }
          }
        ],
        "text": {
          "status": "generated",
          "div": "<div xmlns=\"http://www.w3.org/1999/xhtml\"><table class=\"hl7__eu__lab__report\"><tr><th>Test</th><th>21-Mar-2021</th><th>Reference&#xA0;Range</th><th>Unit</th></tr><tr><td>Protein [Mass/volume] in Urine by Test strip</td><td>111.0</td><td>0 - 145</td><td></td><td>mg/dL</td></tr></table></div>"
        },
        "status": "final",
        "subject": {
          "reference": "urn:uuid:41b4a943-33c5-4295-a53e-7e40d4bc05c1",
          "display": "Iva Kratochvílová"
        },
        "effectiveDateTime": "2021-03-21T16:10:29Z",
        "specimen": {
          "reference": "urn:uuid:00746fb5-264e-4fc3-b1c7-5d84c14f3325"
        }
      }
    },
    {
      "fullUrl": "urn:uuid:76231487-de93-4273-96f1-353975af1d3c",
      "resource": {
        "resourceType": "Observation",
        "id": "76231487-de93-4273-96f1-353975af1d3c",
        "meta": {
          "profile": [
            "http://hl7.eu/fhir/laboratory/StructureDefinition/Observation-resultslab-eu-lab"
          ]
        },
        "performer": [
          {
            "display": "The Central European Lab"
          }
        ],
        "category": [
          {
            "coding": [
              {
                "system": "http://terminology.hl7.org/CodeSystem/observation-category",
                "code": "laboratory"
              }
            ]
          }
        ],
        "code": {
          "coding": [
            {
              "code": "20454-5",
              "system": "http://loinc.org",
              "display": "Protein [Presence] in Urine by Test strip"
            }
          ],
          "text": "Protein [Presence] in Urine by Test strip"
        },
        "text": {
          "status": "generated",
          "div": "<div xmlns=\"http://www.w3.org/1999/xhtml\"><table class=\"hl7__eu__lab__report\"><tr><th>Test</th><th>21-Mar-2021</th><th>Reference&#xA0;Range</th><th>Unit</th></tr><tr><td>Protein [Presence] in Urine by Test strip</td></tr></table></div>"
        },
        "status": "final",
        "subject": {
          "reference": "urn:uuid:41b4a943-33c5-4295-a53e-7e40d4bc05c1",
          "display": "Iva Kratochvílová"
        },
        "effectiveDateTime": "2021-03-21T16:10:29Z",
        "specimen": {
          "reference": "urn:uuid:00746fb5-264e-4fc3-b1c7-5d84c14f3325"
        }
      }
    },
    {
      "fullUrl": "urn:uuid:d7744189-0633-4b21-aa30-9b7702565e3a",
      "resource": {
        "resourceType": "Observation",
        "id": "d7744189-0633-4b21-aa30-9b7702565e3a",
        "meta": {
          "profile": [
            "http://hl7.eu/fhir/laboratory/StructureDefinition/Observation-resultslab-eu-lab"
          ]
        },
        "performer": [
          {
            "display": "The Central European Lab"
          }
        ],
        "category": [
          {
            "coding": [
              {
                "system": "http://terminology.hl7.org/CodeSystem/observation-category",
                "code": "laboratory"
              }
            ]
          }
        ],
        "code": {
          "coding": [
            {
              "code": "5802-4",
              "system": "http://loinc.org",
              "display": "Nitrite [Presence] in Urine by Test strip"
            }
          ],
          "text": "Nitrite [Presence] in Urine by Test strip"
        },
        "text": {
          "status": "generated",
          "div": "<div xmlns=\"http://www.w3.org/1999/xhtml\"><table class=\"hl7__eu__lab__report\"><tr><th>Test</th><th>21-Mar-2021</th><th>Reference&#xA0;Range</th><th>Unit</th></tr><tr><td>Nitrite [Presence] in Urine by Test strip</td></tr></table></div>"
        },
        "status": "final",
        "subject": {
          "reference": "urn:uuid:41b4a943-33c5-4295-a53e-7e40d4bc05c1",
          "display": "Iva Kratochvílová"
        },
        "effectiveDateTime": "2021-03-21T16:10:29Z",
        "specimen": {
          "reference": "urn:uuid:00746fb5-264e-4fc3-b1c7-5d84c14f3325"
        }
      }
    },
    {
      "fullUrl": "urn:uuid:40205442-561a-4d44-8141-4f23e9fac9c4",
      "resource": {
        "resourceType": "Observation",
        "id": "40205442-561a-4d44-8141-4f23e9fac9c4",
        "meta": {
          "profile": [
            "http://hl7.eu/fhir/laboratory/StructureDefinition/Observation-resultslab-eu-lab"
          ]
        },
        "performer": [
          {
            "display": "The Central European Lab"
          }
        ],
        "category": [
          {
            "coding": [
              {
                "system": "http://terminology.hl7.org/CodeSystem/observation-category",
                "code": "laboratory"
              }
            ]
          }
        ],
        "code": {
          "coding": [
            {
              "code": "5794-3",
              "system": "http://loinc.org",
              "display": "Hemoglobin [Presence] in Urine by Test strip"
            }
          ],
          "text": "Hemoglobin [Presence] in Urine by Test strip"
        },
        "text": {
          "status": "generated",
          "div": "<div xmlns=\"http://www.w3.org/1999/xhtml\"><table class=\"hl7__eu__lab__report\"><tr><th>Test</th><th>21-Mar-2021</th><th>Reference&#xA0;Range</th><th>Unit</th></tr><tr><td>Hemoglobin [Presence] in Urine by Test strip</td></tr></table></div>"
        },
        "status": "final",
        "subject": {
          "reference": "urn:uuid:41b4a943-33c5-4295-a53e-7e40d4bc05c1",
          "display": "Iva Kratochvílová"
        },
        "effectiveDateTime": "2021-03-21T16:10:29Z",
        "specimen": {
          "reference": "urn:uuid:00746fb5-264e-4fc3-b1c7-5d84c14f3325"
        }
      }
    },
    {
      "fullUrl": "urn:uuid:7ef10fa7-6d58-4975-94b1-06d02df75759",
      "resource": {
        "resourceType": "Observation",
        "id": "7ef10fa7-6d58-4975-94b1-06d02df75759",
        "meta": {
          "profile": [
            "http://hl7.eu/fhir/laboratory/StructureDefinition/Observation-resultslab-eu-lab"
          ]
        },
        "performer": [
          {
            "display": "The Central European Lab"
          }
        ],
        "category": [
          {
            "coding": [
              {
                "system": "http://terminology.hl7.org/CodeSystem/observation-category",
                "code": "laboratory"
              }
            ]
          }
        ],
        "code": {
          "coding": [
            {
              "code": "5799-2",
              "system": "http://loinc.org",
              "display": "Leukocyte esterase [Presence] in Urine by Test strip"
            }
          ],
          "text": "Leukocyte esterase [Presence] in Urine by Test strip"
        },
        "text": {
          "status": "generated",
          "div": "<div xmlns=\"http://www.w3.org/1999/xhtml\"><table class=\"hl7__eu__lab__report\"><tr><th>Test</th><th>21-Mar-2021</th><th>Reference&#xA0;Range</th><th>Unit</th></tr><tr><td>Leukocyte esterase [Presence] in Urine by Test strip</td></tr></table></div>"
        },
        "status": "final",
        "subject": {
          "reference": "urn:uuid:41b4a943-33c5-4295-a53e-7e40d4bc05c1",
          "display": "Iva Kratochvílová"
        },
        "effectiveDateTime": "2021-03-21T16:10:29Z",
        "specimen": {
          "reference": "urn:uuid:00746fb5-264e-4fc3-b1c7-5d84c14f3325"
        }
      }
    },
    {
      "fullUrl": "urn:uuid:9106b6a1-4f27-469f-8c8e-993103b0f69b",
      "resource": {
        "resourceType": "Observation",
        "id": "9106b6a1-4f27-469f-8c8e-993103b0f69b",
        "meta": {
          "profile": [
            "http://hl7.eu/fhir/laboratory/StructureDefinition/Observation-resultslab-eu-lab"
          ]
        },
        "performer": [
          {
            "display": "The Central European Lab"
          }
        ],
        "category": [
          {
            "coding": [
              {
                "system": "http://terminology.hl7.org/CodeSystem/observation-category",
                "code": "laboratory"
              }
            ]
          }
        ],
        "code": {
          "coding": [
            {
              "code": "4548-4",
              "system": "http://loinc.org",
              "display": "Hemoglobin A1c/Hemoglobin.total in Blood"
            }
          ],
          "text": "Hemoglobin A1c/Hemoglobin.total in Blood"
        },
        "valueQuantity": {
          "system": "http://unitsofmeasure.org",
          "value": 3.3,
          "unit": "%",
          "code": "%"
        },
        "referenceRange": [
          {
            "low": {
              "value": 4,
              "code": "%",
              "system": "http://unitsofmeasure.org"
            }
          },
          {
            "high": {
              "value": 6,
              "code": "%",
              "system": "http://unitsofmeasure.org"
            }
          }
        ],
        "interpretation": [
          {
            "coding": [
              {
                "code": "L",
                "system": "http://terminology.hl7.org/CodeSystem/v3-ObservationInterpretation",
                "display": "Low"
              }
            ]
          }
        ],
        "text": {
          "status": "generated",
          "div": "<div xmlns=\"http://www.w3.org/1999/xhtml\"><table class=\"hl7__eu__lab__report\"><tr><th>Test</th><th>21-Mar-2021</th><th>Reference&#xA0;Range</th><th>Unit</th></tr><tr><td>Hemoglobin A1c/Hemoglobin.total in Blood</td><td>3.3</td><td>4 - 6</td><td>L</td><td>%</td></tr></table></div>"
        },
        "status": "final",
        "subject": {
          "reference": "urn:uuid:41b4a943-33c5-4295-a53e-7e40d4bc05c1",
          "display": "Iva Kratochvílová"
        },
        "effectiveDateTime": "2021-03-21T16:10:29Z",
        "specimen": {
          "reference": "urn:uuid:9f679284-4e88-420b-a832-567854fb2dc9"
        }
      }
    },
    {
      "fullUrl": "urn:uuid:bc1ea1a8-ce66-4b19-a3b5-3a6072bb531d",
      "resource": {
        "resourceType": "Device",
        "id": "bc1ea1a8-ce66-4b19-a3b5-3a6072bb531d",
        "deviceName": [
          {
            "name": "SYNDERAI Synthetic Generator",
            "type": "manufacturer-name"
          }
        ],
        "version": [
          {
            "value": "5.0"
          }
        ],
        "text": {
          "status": "generated",
          "div": "<div xmlns=\"http://www.w3.org/1999/xhtml\">SYNDERAI Synthetic Generator v5.0</div>"
        },
        "status": "active\"",
        "distinctIdentifier": "synderai-generator-50",
        "manufacturer": "SYNDERAI Project"
      }
    },
    {
      "fullUrl": "urn:uuid:0f39c1a9-b7ac-4fe6-b8e2-fec103ae0c6c",
      "resource": {
        "resourceType": "Provenance",
        "id": "0f39c1a9-b7ac-4fe6-b8e2-fec103ae0c6c",
        "target": [
          {
            "reference": "Patient/41b4a943-33c5-4295-a53e-7e40d4bc05c1"
          },
          {
            "reference": "Bundle/ccf18757-52fb-4595-8096-a6985cedabfe"
          },
          {
            "reference": "Composition/7a777a9d-d153-495c-b456-4c713d84ea33"
          },
          {
            "reference": "PractitionerRole/c5e5d9c3-20c6-483b-a107-63ffe96fe6a4"
          },
          {
            "reference": "Practitioner/67c8468d-ae2a-4579-935c-36915eba74f6"
          },
          {
            "reference": "PractitionerRole/4499e5f5-4950-4eb8-8c4a-aa780c4b78fc"
          },
          {
            "reference": "Organization/296992af-9fd9-44ab-b709-1734a61c61f5"
          }
        ],
        "activity": {
          "text": "Synthetic Example Data Generation"
        },
        "policy": [
          "https://synderai.net/synderai-synthetic-data-policy"
        ],
        "agent": [
          {
            "type": {
              "text": "author"
            },
            "who": {
              "reference": "Device/bc1ea1a8-ce66-4b19-a3b5-3a6072bb531d"
            }
          }
        ],
        "reason": [
          {
            "text": "Interoperability Testing and Training (non-clinical use)"
          }
        ],
        "text": {
          "status": "generated",
          "div": "<div xmlns=\"http://www.w3.org/1999/xhtml\">Provenance for SYNDERAI Synthetic Example Data Resource</div>"
        },
        "recorded": "2021-03-21T17:10:29Z"
      }
    },
    {
      "fullUrl": "urn:uuid:c5e5d9c3-20c6-483b-a107-63ffe96fe6a4",
      "resource": {
        "resourceType": "PractitionerRole",
        "id": "c5e5d9c3-20c6-483b-a107-63ffe96fe6a4",
        "meta": {
          "profile": [
            "http://hl7.eu/fhir/base/StructureDefinition/practitionerRole-eu"
          ]
        },
        "text": {
          "status": "generated",
          "div": "<div xmlns=\"http://www.w3.org/1999/xhtml\">Laboratory Role Id: c5e5d9c3-20c6-483b-a107-63ffe96fe6a4</div>"
        },
        "practitioner": {
          "reference": "urn:uuid:67c8468d-ae2a-4579-935c-36915eba74f6"
        }
      }
    },
    {
      "fullUrl": "urn:uuid:67c8468d-ae2a-4579-935c-36915eba74f6",
      "resource": {
        "resourceType": "Practitioner",
        "id": "67c8468d-ae2a-4579-935c-36915eba74f6",
        "meta": {
          "profile": [
            "http://hl7.eu/fhir/base/StructureDefinition/practitioner-eu"
          ]
        },
        "identifier": [
          {
            "assigner": {
              "display": "HL7 Europe"
            },
            "system": "urn:oid:2.16.840.1.113883.2.51.999",
            "value": "d6b32a5f-eb20-4c71-80c5-0533df94134a"
          }
        ],
        "name": [
          {
            "prefix": [
              "dr"
            ],
            "given": [
              "Ex"
            ],
            "family": "Ample"
          }
        ],
        "address": [
          {
            "line": [
              "Laboratoire Central Européenne",
              "Boulevard du Jardin Botanique 32"
            ],
            "postalCode": "1000",
            "city": "Brussels",
            "country": "Belgium"
          }
        ],
        "text": {
          "status": "generated",
          "div": "<div xmlns=\"http://www.w3.org/1999/xhtml\">Laboratory: Laboratoire Central Européenne, 1000 Brussels, Belgium</div>"
        }
      }
    }
  ],
  "type": "document",
  "timestamp": "2021-03-21T17:10:29Z"
}
