{
  "resourceType": "Bundle",
  "id": "95768c6d-c0f7-4f0f-a0b7-7d535d1f68d4",
  "meta": {
    "profile": [
      "http://hl7.eu/fhir/laboratory/StructureDefinition/Bundle-eu-lab"
    ]
  },
  "identifier": {
    "assigner": {
      "display": "HL7 Europe"
    },
    "system": "urn:oid:2.16.840.1.113883.2.51.999",
    "value": "c39fb7bd-d822-49c3-9a47-bd1aa2b8df53"
  },
  "entry": [
    {
      "fullUrl": "urn:uuid:8e81ad62-9aaa-465a-a41a-4b14e9c33a9c",
      "resource": {
        "resourceType": "Composition",
        "id": "8e81ad62-9aaa-465a-a41a-4b14e9c33a9c",
        "meta": {
          "profile": [
            "http://hl7.eu/fhir/laboratory/StructureDefinition/Composition-eu-lab"
          ]
        },
        "identifier": {
          "assigner": {
            "display": "HL7 Europe"
          },
          "system": "urn:oid:2.16.840.1.113883.2.51.999",
          "value": "d8a22487-ac40-49da-8a91-72db8bb29369"
        },
        "author": [
          {
            "reference": "urn:uuid:a4028c15-633f-484a-9c38-438100bfeff1"
          }
        ],
        "category": [
          {
            "coding": [
              {
                "code": "26436-6",
                "system": "http://loinc.org",
                "display": "Laboratory studies (set)"
              }
            ]
          }
        ],
        "type": {
          "coding": [
            {
              "code": "11502-2",
              "system": "http://loinc.org",
              "display": "Laboratory report"
            }
          ],
          "text": "Laboratory Report"
        },
        "section": [
          {
            "code": {
              "coding": [
                {
                  "code": "26436-6",
                  "system": "http://loinc.org",
                  "display": "Laboratory studies (set)"
                }
              ],
              "text": "Laboratory studies"
            },
            "section": [
              {
                "code": {
                  "coding": [
                    {
                      "code": "$18719-5",
                      "system": "http://loinc.org",
                      "display": "Chemistry studies (set)"
                    }
                  ],
                  "text": "Chemistry"
                },
                "entry": [
                  {
                    "reference": "urn:uuid:8994240b-c417-4ce6-96ea-8659e543d296"
                  },
                  {
                    "reference": "urn:uuid:09d5be37-1b3d-4a92-a293-41423dfa95e8"
                  },
                  {
                    "reference": "urn:uuid:9dc16b77-4f29-40c0-af5f-f8f1d92fef83"
                  },
                  {
                    "reference": "urn:uuid:4f50685e-14fe-43be-80ab-9df0601d31fd"
                  },
                  {
                    "reference": "urn:uuid:aa76a829-ba29-4254-b22c-06db920636db"
                  },
                  {
                    "reference": "urn:uuid:9cd56d6b-78ef-4960-8eaa-a54e59a437d4"
                  },
                  {
                    "reference": "urn:uuid:706a89fd-5edc-4362-aee5-1c01147a926c"
                  },
                  {
                    "reference": "urn:uuid:d510ed05-8530-4448-8a2c-ccb5a4452daf"
                  },
                  {
                    "reference": "urn:uuid:abcd3c8a-82a6-4a7d-bb9b-37a6e2cbef2c"
                  }
                ],
                "text": {
                  "status": "generated",
                  "div": "<div xmlns=\"http://www.w3.org/1999/xhtml\"><h3>Chemistry</h3><table class=\"hl7__eu__lab__report\"><thead><tr><th>Test</th><th>22-MAY-2019</th><th>Reference&#xA0;Range</th><th>Unit</th></tr></thead><tbody><tr><td>Hemoglobin A1c/Hemoglobin.total in Blood</td><td><strong>6.3 H</strong></td><td>3.8 - 5.7</td><td>%</td></tr><tr><td>Glucose [Mass/volume] in Blood</td><td>88.5</td><td>70 - 140</td><td>mg/dL</td></tr><tr><td>Urea nitrogen [Mass/volume] in Blood</td><td>10.5</td><td>7 - 20</td><td>mg/dL</td></tr><tr><td>Creatinine [Mass/volume] in Blood</td><td><strong>0.7 L</strong></td><td>0.9 - 1.3</td><td>mg/dL</td></tr><tr><td>Calcium [Mass/volume] in Blood</td><td>10.2</td><td>8.5 - 10.5</td><td>mg/dL</td></tr><tr><td>Sodium [Moles/volume] in Blood</td><td>136.2</td><td>135 - 145</td><td>mmol/L</td></tr><tr><td>Potassium [Moles/volume] in Blood</td><td>3.8</td><td>3.5 - 5.3</td><td>mmol/L</td></tr><tr><td>Chloride [Moles/volume] in Blood</td><td>103.2</td><td>98 - 109</td><td>mmol/L</td></tr><tr><td>Carbon dioxide, total [Moles/volume] in Blood</td><td>27.1</td><td>22 - 32</td><td>mmol/L</td></tr></tbody></table></div>"
                },
                "title": "Chemistry"
              }
            ],
            "title": "Laboratory Report"
          },
          {
            "text": {
              "status": "generated",
              "div": "<div xmlns=\"http://www.w3.org/1999/xhtml\"><h3>Annotation</h3><table class=\"hl7__eu__lab__report\"><tr><th>Conclusion and Recommendations based on this report and previous findings known to us</th></tr><tr><td>The patient shows mildly elevated HbA1c, indicating suboptimal long-term glycemic control and possible prediabetes or diabetes. All other parameters, including renal function, electrolytes, and glucose, are within normal limits except for slightly low creatinine, which is not clinically significant in this context. No acute laboratory abnormalities detected.</td></tr></table></div>"
            },
            "code": {
              "coding": [
                {
                  "system": "http://loinc.org",
                  "code": "48767-8",
                  "display": "Annotation comment"
                }
              ]
            },
            "title": "Annotation comment"
          }
        ],
        "status": "final",
        "subject": {
          "reference": "urn:uuid:2dd92562-b7d5-40a5-bcc9-e33a6ac4167b",
          "display": "Lazăr Florea"
        },
        "date": "2019-05-22T15:56:29Z",
        "title": "Laboratory Report",
        "confidentiality": "N"
      }
    },
    {
      "fullUrl": "urn:uuid:3dc26b37-eb99-4420-a88d-a532dbdc37f4",
      "resource": {
        "resourceType": "DiagnosticReport",
        "id": "3dc26b37-eb99-4420-a88d-a532dbdc37f4",
        "meta": {
          "profile": [
            "http://hl7.eu/fhir/laboratory/StructureDefinition/DiagnosticReport-eu-lab"
          ]
        },
        "identifier": [
          {
            "assigner": {
              "display": "HL7 Europe"
            },
            "system": "urn:oid:2.16.840.1.113883.2.51.999",
            "value": "5ae61ee3-bdc3-4f25-9878-22f2728f3d92"
          }
        ],
        "extension": [
          {
            "url": "http://hl7.org/fhir/5.0/StructureDefinition/extension-DiagnosticReport.composition",
            "valueReference": {
              "reference": "urn:uuid:d8a22487-ac40-49da-8a91-72db8bb29369"
            }
          }
        ],
        "category": [
          {
            "coding": [
              {
                "code": "26436-6",
                "system": "http://loinc.org",
                "display": "Laboratory studies (set)"
              }
            ]
          }
        ],
        "specimen": [
          {
            "reference": "urn:uuid:7d7e5f4c-628f-4d03-8c6f-9d4cd5d46457"
          }
        ],
        "result": [
          {
            "reference": "urn:uuid:8994240b-c417-4ce6-96ea-8659e543d296"
          },
          {
            "reference": "urn:uuid:09d5be37-1b3d-4a92-a293-41423dfa95e8"
          },
          {
            "reference": "urn:uuid:9dc16b77-4f29-40c0-af5f-f8f1d92fef83"
          },
          {
            "reference": "urn:uuid:4f50685e-14fe-43be-80ab-9df0601d31fd"
          },
          {
            "reference": "urn:uuid:aa76a829-ba29-4254-b22c-06db920636db"
          },
          {
            "reference": "urn:uuid:9cd56d6b-78ef-4960-8eaa-a54e59a437d4"
          },
          {
            "reference": "urn:uuid:706a89fd-5edc-4362-aee5-1c01147a926c"
          },
          {
            "reference": "urn:uuid:d510ed05-8530-4448-8a2c-ccb5a4452daf"
          },
          {
            "reference": "urn:uuid:abcd3c8a-82a6-4a7d-bb9b-37a6e2cbef2c"
          }
        ],
        "status": "registered",
        "code": {
          "coding": [
            {
              "code": "11502-2",
              "system": "http://loinc.org",
              "display": "Laboratory report"
            }
          ]
        },
        "subject": {
          "reference": "urn:uuid:2dd92562-b7d5-40a5-bcc9-e33a6ac4167b",
          "display": "Lazăr Florea"
        }
      }
    },
    {
      "fullUrl": "urn:uuid:2dd92562-b7d5-40a5-bcc9-e33a6ac4167b",
      "resource": {
        "resourceType": "Patient",
        "id": "2dd92562-b7d5-40a5-bcc9-e33a6ac4167b",
        "meta": {
          "security": [
            {
              "system": "http://terminology.hl7.org/CodeSystem/v3-ActReason",
              "code": "HTEST"
            },
            {
              "system": "http://terminology.hl7.org/CodeSystem/v3-ActReason",
              "code": "TRAIN"
            }
          ],
          "tag": [
            {
              "system": "https://synderai.net/fhir/CodeSystem/tags",
              "code": "synthetic",
              "display": "SYNDERAI Synthetic data"
            }
          ],
          "profile": [
            "http://hl7.eu/fhir/base/StructureDefinition/patient-eu-core"
          ]
        },
        "identifier": [
          {
            "type": {
              "coding": [
                {
                  "code": "PT",
                  "system": "http://terminology.hl7.org/CodeSystem/v2-0203"
                }
              ]
            },
            "system": "http://ec.europa.eu/identifier/eci",
            "value": "8693-862290-8"
          },
          {
            "type": {
              "coding": [
                {
                  "code": "MR",
                  "system": "http://terminology.hl7.org/CodeSystem/v2-0203"
                }
              ]
            },
            "system": "http://local.setting.eu/identifier",
            "value": "602fbbf5-967b-6d86-a533-5cec24b13e71"
          }
        ],
        "name": [
          {
            "family": "Florea"
          },
          {
            "given": [
              "Lazăr"
            ]
          },
          {
            "text": "Lazăr Florea"
          }
        ],
        "address": [
          {
            "line": [
              "Drumul Grațian Nistor"
            ],
            "use": "home",
            "type": "physical",
            "postalCode": "265300",
            "city": "Lupeni",
            "country": "Romania"
          }
        ],
        "telecom": [
          {
            "system": "phone",
            "value": "0753 950 380"
          }
        ],
        "extension": [
          {
            "url": "http://hl7.org/fhir/StructureDefinition/patient-nationality",
            "valueCodeableConcept": {
              "coding": [
                {
                  "code": "RO",
                  "system": "http://hl7.org/fhir/ValueSet/country"
                }
              ]
            }
          }
        ],
        "text": {
          "status": "generated",
          "div": "<div xmlns=\"http://www.w3.org/1999/xhtml\"><table class=\"hl7__ips\"><tr><td>Lazăr Florea</td><td>male</td><td>10-Feb-1946</td></tr></table></div>"
        },
        "gender": "male",
        "birthDate": "1946-02-10"
      }
    },
    {
      "fullUrl": "urn:uuid:dfd9f889-918a-4acd-8dde-137fe76a3d15",
      "resource": {
        "resourceType": "ServiceRequest",
        "id": "dfd9f889-918a-4acd-8dde-137fe76a3d15",
        "meta": {
          "profile": [
            "http://hl7.eu/fhir/laboratory/StructureDefinition/ServiceRequest-eu-lab"
          ]
        },
        "identifier": [
          {
            "system": "http://example.org",
            "value": "d8fd2dff-8032-4d73-a030-19a7593488a8"
          }
        ],
        "specimen": [
          {
            "reference": "urn:uuid:7d7e5f4c-628f-4d03-8c6f-9d4cd5d46457"
          }
        ],
        "reasonCode": [
          {
            "coding": [
              {
                "code": "197927001",
                "system": "http://snomed.info/sct",
                "display": "Recurrent urinary tract infection"
              }
            ]
          },
          {
            "coding": [
              {
                "code": "414545008",
                "system": "http://snomed.info/sct",
                "display": "Ischemic heart disease"
              }
            ]
          },
          {
            "coding": [
              {
                "code": "237602007",
                "system": "http://snomed.info/sct",
                "display": "Metabolic syndrome X"
              }
            ]
          },
          {
            "coding": [
              {
                "code": "271737000",
                "system": "http://snomed.info/sct",
                "display": "Anemia"
              }
            ]
          },
          {
            "coding": [
              {
                "code": "15777000",
                "system": "http://snomed.info/sct",
                "display": "Prediabetes"
              }
            ]
          },
          {
            "coding": [
              {
                "code": "59621000",
                "system": "http://snomed.info/sct",
                "display": "Essential hypertension"
              }
            ]
          },
          {
            "coding": [
              {
                "code": "40055000",
                "system": "http://snomed.info/sct",
                "display": "Chronic sinusitis"
              }
            ]
          }
        ],
        "status": "active",
        "intent": "order",
        "code": {
          "coding": [
            {
              "code": "108252007",
              "system": "http://snomed.info/sct",
              "display": "Laboratory procedure"
            }
          ]
        },
        "subject": {
          "reference": "urn:uuid:2dd92562-b7d5-40a5-bcc9-e33a6ac4167b",
          "display": "Lazăr Florea"
        },
        "requester": {
          "reference": "urn:uuid:7be89e51-5775-4add-a607-4b714d5311a9"
        }
      }
    },
    {
      "fullUrl": "urn:uuid:7be89e51-5775-4add-a607-4b714d5311a9",
      "resource": {
        "resourceType": "PractitionerRole",
        "id": "7be89e51-5775-4add-a607-4b714d5311a9",
        "meta": {
          "profile": [
            "http://hl7.eu/fhir/base/StructureDefinition/practitionerRole-eu"
          ]
        },
        "text": {
          "status": "generated",
          "div": "<div xmlns=\"http://www.w3.org/1999/xhtml\">Provider Role Id: 7be89e51-5775-4add-a607-4b714d5311a9</div>"
        },
        "organization": {
          "reference": "urn:uuid:89142e68-8f39-4f9f-bed9-16f4cace2f1e"
        }
      }
    },
    {
      "fullUrl": "urn:uuid:89142e68-8f39-4f9f-bed9-16f4cace2f1e",
      "resource": {
        "resourceType": "Organization",
        "id": "89142e68-8f39-4f9f-bed9-16f4cace2f1e",
        "meta": {
          "profile": [
            "http://hl7.eu/fhir/base/StructureDefinition/organization-eu"
          ]
        },
        "identifier": [
          {
            "assigner": {
              "display": "HL7 Europe"
            },
            "system": "urn:oid:2.16.840.1.113883.2.51.999",
            "value": "23160353-9745-459a-b37d-c7a5dccbe697"
          }
        ],
        "address": [
          {
            "line": [
              "Strada 1 Decembrie 1918 137 A"
            ],
            "city": "Petroșani",
            "postalCode": "332019",
            "country": "Romania"
          }
        ],
        "text": {
          "status": "generated",
          "div": "<div xmlns=\"http://www.w3.org/1999/xhtml\">Provider Organization: Spitalul de Urgență</div>"
        },
        "name": "Spitalul de Urgență"
      }
    },
    {
      "fullUrl": "urn:uuid:7d7e5f4c-628f-4d03-8c6f-9d4cd5d46457",
      "resource": {
        "resourceType": "Specimen",
        "id": "7d7e5f4c-628f-4d03-8c6f-9d4cd5d46457",
        "meta": {
          "profile": [
            "http://hl7.eu/fhir/laboratory/StructureDefinition/Specimen-eu-lab"
          ]
        },
        "collection": {
          "collectedDateTime": "2019-05-22"
        },
        "text": {
          "status": "generated",
          "div": "<div xmlns=\"http://www.w3.org/1999/xhtml\"><table class=\"hl7__eu__lab__report\"><tr><th>Specimen</th><th>Collection Date</th></tr><tr><td>Whole blood specimen (specimen)</td><td><span class=\"nb\">22-May-2019</span></td></tr></table></div>"
        },
        "type": {
          "coding": [
            {
              "code": "258580003",
              "system": "http://snomed.info/sct",
              "display": "Whole blood specimen (specimen)"
            }
          ]
        }
      }
    },
    {
      "fullUrl": "urn:uuid:8994240b-c417-4ce6-96ea-8659e543d296",
      "resource": {
        "resourceType": "Observation",
        "id": "8994240b-c417-4ce6-96ea-8659e543d296",
        "meta": {
          "profile": [
            "http://hl7.eu/fhir/laboratory/StructureDefinition/Observation-resultslab-eu-lab"
          ]
        },
        "performer": [
          {
            "display": "The Central European Lab"
          }
        ],
        "category": [
          {
            "coding": [
              {
                "system": "http://terminology.hl7.org/CodeSystem/observation-category",
                "code": "laboratory"
              }
            ]
          }
        ],
        "code": {
          "coding": [
            {
              "code": "4548-4",
              "system": "http://loinc.org",
              "display": "Hemoglobin A1c/Hemoglobin.total in Blood"
            }
          ],
          "text": "Hemoglobin A1c/Hemoglobin.total in Blood"
        },
        "valueQuantity": {
          "system": "http://unitsofmeasure.org",
          "value": 6.3,
          "unit": "%",
          "code": "%"
        },
        "referenceRange": [
          {
            "low": {
              "value": 3.8,
              "code": "%",
              "system": "http://unitsofmeasure.org"
            }
          },
          {
            "high": {
              "value": 5.7,
              "code": "%",
              "system": "http://unitsofmeasure.org"
            }
          }
        ],
        "interpretation": [
          {
            "coding": [
              {
                "code": "H",
                "system": "http://terminology.hl7.org/CodeSystem/v3-ObservationInterpretation",
                "display": "High"
              }
            ]
          }
        ],
        "text": {
          "status": "generated",
          "div": "<div xmlns=\"http://www.w3.org/1999/xhtml\"><table class=\"hl7__eu__lab__report\"><tr><th>Test</th><th>22-May-2019</th><th>Reference&#xA0;Range</th><th>Unit</th></tr><tr><td>Hemoglobin A1c/Hemoglobin.total in Blood</td><td>6.3</td><td>3.8 - 5.7</td><td>H</td><td>%</td></tr></table></div>"
        },
        "status": "final",
        "subject": {
          "reference": "urn:uuid:2dd92562-b7d5-40a5-bcc9-e33a6ac4167b",
          "display": "Lazăr Florea"
        },
        "effectiveDateTime": "2019-05-22T13:56:29Z",
        "specimen": {
          "reference": "urn:uuid:7d7e5f4c-628f-4d03-8c6f-9d4cd5d46457"
        }
      }
    },
    {
      "fullUrl": "urn:uuid:09d5be37-1b3d-4a92-a293-41423dfa95e8",
      "resource": {
        "resourceType": "Observation",
        "id": "09d5be37-1b3d-4a92-a293-41423dfa95e8",
        "meta": {
          "profile": [
            "http://hl7.eu/fhir/laboratory/StructureDefinition/Observation-resultslab-eu-lab"
          ]
        },
        "performer": [
          {
            "display": "The Central European Lab"
          }
        ],
        "category": [
          {
            "coding": [
              {
                "system": "http://terminology.hl7.org/CodeSystem/observation-category",
                "code": "laboratory"
              }
            ]
          }
        ],
        "code": {
          "coding": [
            {
              "code": "2339-0",
              "system": "http://loinc.org",
              "display": "Glucose [Mass/volume] in Blood"
            }
          ],
          "text": "Glucose [Mass/volume] in Blood"
        },
        "valueQuantity": {
          "system": "http://unitsofmeasure.org",
          "value": 88.5,
          "unit": "mg/dL",
          "code": "mg/dL"
        },
        "referenceRange": [
          {
            "low": {
              "value": 70,
              "code": "mg/dL",
              "system": "http://unitsofmeasure.org"
            }
          },
          {
            "high": {
              "value": 140,
              "code": "mg/dL",
              "system": "http://unitsofmeasure.org"
            }
          }
        ],
        "text": {
          "status": "generated",
          "div": "<div xmlns=\"http://www.w3.org/1999/xhtml\"><table class=\"hl7__eu__lab__report\"><tr><th>Test</th><th>22-May-2019</th><th>Reference&#xA0;Range</th><th>Unit</th></tr><tr><td>Glucose [Mass/volume] in Blood</td><td>88.5</td><td>70 - 140</td><td></td><td>mg/dL</td></tr></table></div>"
        },
        "status": "final",
        "subject": {
          "reference": "urn:uuid:2dd92562-b7d5-40a5-bcc9-e33a6ac4167b",
          "display": "Lazăr Florea"
        },
        "effectiveDateTime": "2019-05-22T13:56:29Z",
        "specimen": {
          "reference": "urn:uuid:7d7e5f4c-628f-4d03-8c6f-9d4cd5d46457"
        }
      }
    },
    {
      "fullUrl": "urn:uuid:9dc16b77-4f29-40c0-af5f-f8f1d92fef83",
      "resource": {
        "resourceType": "Observation",
        "id": "9dc16b77-4f29-40c0-af5f-f8f1d92fef83",
        "meta": {
          "profile": [
            "http://hl7.eu/fhir/laboratory/StructureDefinition/Observation-resultslab-eu-lab"
          ]
        },
        "performer": [
          {
            "display": "The Central European Lab"
          }
        ],
        "category": [
          {
            "coding": [
              {
                "system": "http://terminology.hl7.org/CodeSystem/observation-category",
                "code": "laboratory"
              }
            ]
          }
        ],
        "code": {
          "coding": [
            {
              "code": "6299-2",
              "system": "http://loinc.org",
              "display": "Urea nitrogen [Mass/volume] in Blood"
            }
          ],
          "text": "Urea nitrogen [Mass/volume] in Blood"
        },
        "valueQuantity": {
          "system": "http://unitsofmeasure.org",
          "value": 10.5,
          "unit": "mg/dL",
          "code": "mg/dL"
        },
        "referenceRange": [
          {
            "low": {
              "value": 7,
              "code": "mg/dL",
              "system": "http://unitsofmeasure.org"
            }
          },
          {
            "high": {
              "value": 20,
              "code": "mg/dL",
              "system": "http://unitsofmeasure.org"
            }
          }
        ],
        "text": {
          "status": "generated",
          "div": "<div xmlns=\"http://www.w3.org/1999/xhtml\"><table class=\"hl7__eu__lab__report\"><tr><th>Test</th><th>22-May-2019</th><th>Reference&#xA0;Range</th><th>Unit</th></tr><tr><td>Urea nitrogen [Mass/volume] in Blood</td><td>10.5</td><td>7 - 20</td><td></td><td>mg/dL</td></tr></table></div>"
        },
        "status": "final",
        "subject": {
          "reference": "urn:uuid:2dd92562-b7d5-40a5-bcc9-e33a6ac4167b",
          "display": "Lazăr Florea"
        },
        "effectiveDateTime": "2019-05-22T13:56:29Z",
        "specimen": {
          "reference": "urn:uuid:7d7e5f4c-628f-4d03-8c6f-9d4cd5d46457"
        }
      }
    },
    {
      "fullUrl": "urn:uuid:4f50685e-14fe-43be-80ab-9df0601d31fd",
      "resource": {
        "resourceType": "Observation",
        "id": "4f50685e-14fe-43be-80ab-9df0601d31fd",
        "meta": {
          "profile": [
            "http://hl7.eu/fhir/laboratory/StructureDefinition/Observation-resultslab-eu-lab"
          ]
        },
        "performer": [
          {
            "display": "The Central European Lab"
          }
        ],
        "category": [
          {
            "coding": [
              {
                "system": "http://terminology.hl7.org/CodeSystem/observation-category",
                "code": "laboratory"
              }
            ]
          }
        ],
        "code": {
          "coding": [
            {
              "code": "38483-4",
              "system": "http://loinc.org",
              "display": "Creatinine [Mass/volume] in Blood"
            }
          ],
          "text": "Creatinine [Mass/volume] in Blood"
        },
        "valueQuantity": {
          "system": "http://unitsofmeasure.org",
          "value": 0.7,
          "unit": "mg/dL",
          "code": "mg/dL"
        },
        "referenceRange": [
          {
            "low": {
              "value": 0.9,
              "code": "mg/dL",
              "system": "http://unitsofmeasure.org"
            }
          },
          {
            "high": {
              "value": 1.3,
              "code": "mg/dL",
              "system": "http://unitsofmeasure.org"
            }
          }
        ],
        "interpretation": [
          {
            "coding": [
              {
                "code": "L",
                "system": "http://terminology.hl7.org/CodeSystem/v3-ObservationInterpretation",
                "display": "Low"
              }
            ]
          }
        ],
        "text": {
          "status": "generated",
          "div": "<div xmlns=\"http://www.w3.org/1999/xhtml\"><table class=\"hl7__eu__lab__report\"><tr><th>Test</th><th>22-May-2019</th><th>Reference&#xA0;Range</th><th>Unit</th></tr><tr><td>Creatinine [Mass/volume] in Blood</td><td>0.7</td><td>0.9 - 1.3</td><td>L</td><td>mg/dL</td></tr></table></div>"
        },
        "status": "final",
        "subject": {
          "reference": "urn:uuid:2dd92562-b7d5-40a5-bcc9-e33a6ac4167b",
          "display": "Lazăr Florea"
        },
        "effectiveDateTime": "2019-05-22T13:56:29Z",
        "specimen": {
          "reference": "urn:uuid:7d7e5f4c-628f-4d03-8c6f-9d4cd5d46457"
        }
      }
    },
    {
      "fullUrl": "urn:uuid:aa76a829-ba29-4254-b22c-06db920636db",
      "resource": {
        "resourceType": "Observation",
        "id": "aa76a829-ba29-4254-b22c-06db920636db",
        "meta": {
          "profile": [
            "http://hl7.eu/fhir/laboratory/StructureDefinition/Observation-resultslab-eu-lab"
          ]
        },
        "performer": [
          {
            "display": "The Central European Lab"
          }
        ],
        "category": [
          {
            "coding": [
              {
                "system": "http://terminology.hl7.org/CodeSystem/observation-category",
                "code": "laboratory"
              }
            ]
          }
        ],
        "code": {
          "coding": [
            {
              "code": "49765-1",
              "system": "http://loinc.org",
              "display": "Calcium [Mass/volume] in Blood"
            }
          ],
          "text": "Calcium [Mass/volume] in Blood"
        },
        "valueQuantity": {
          "system": "http://unitsofmeasure.org",
          "value": 10.2,
          "unit": "mg/dL",
          "code": "mg/dL"
        },
        "referenceRange": [
          {
            "low": {
              "value": 8.5,
              "code": "mg/dL",
              "system": "http://unitsofmeasure.org"
            }
          },
          {
            "high": {
              "value": 10.5,
              "code": "mg/dL",
              "system": "http://unitsofmeasure.org"
            }
          }
        ],
        "text": {
          "status": "generated",
          "div": "<div xmlns=\"http://www.w3.org/1999/xhtml\"><table class=\"hl7__eu__lab__report\"><tr><th>Test</th><th>22-May-2019</th><th>Reference&#xA0;Range</th><th>Unit</th></tr><tr><td>Calcium [Mass/volume] in Blood</td><td>10.2</td><td>8.5 - 10.5</td><td></td><td>mg/dL</td></tr></table></div>"
        },
        "status": "final",
        "subject": {
          "reference": "urn:uuid:2dd92562-b7d5-40a5-bcc9-e33a6ac4167b",
          "display": "Lazăr Florea"
        },
        "effectiveDateTime": "2019-05-22T13:56:29Z",
        "specimen": {
          "reference": "urn:uuid:7d7e5f4c-628f-4d03-8c6f-9d4cd5d46457"
        }
      }
    },
    {
      "fullUrl": "urn:uuid:9cd56d6b-78ef-4960-8eaa-a54e59a437d4",
      "resource": {
        "resourceType": "Observation",
        "id": "9cd56d6b-78ef-4960-8eaa-a54e59a437d4",
        "meta": {
          "profile": [
            "http://hl7.eu/fhir/laboratory/StructureDefinition/Observation-resultslab-eu-lab"
          ]
        },
        "performer": [
          {
            "display": "The Central European Lab"
          }
        ],
        "category": [
          {
            "coding": [
              {
                "system": "http://terminology.hl7.org/CodeSystem/observation-category",
                "code": "laboratory"
              }
            ]
          }
        ],
        "code": {
          "coding": [
            {
              "code": "2947-0",
              "system": "http://loinc.org",
              "display": "Sodium [Moles/volume] in Blood"
            }
          ],
          "text": "Sodium [Moles/volume] in Blood"
        },
        "valueQuantity": {
          "system": "http://unitsofmeasure.org",
          "value": 136.2,
          "unit": "mmol/L",
          "code": "mmol/L"
        },
        "referenceRange": [
          {
            "low": {
              "value": 135,
              "code": "mmol/L",
              "system": "http://unitsofmeasure.org"
            }
          },
          {
            "high": {
              "value": 145,
              "code": "mmol/L",
              "system": "http://unitsofmeasure.org"
            }
          }
        ],
        "text": {
          "status": "generated",
          "div": "<div xmlns=\"http://www.w3.org/1999/xhtml\"><table class=\"hl7__eu__lab__report\"><tr><th>Test</th><th>22-May-2019</th><th>Reference&#xA0;Range</th><th>Unit</th></tr><tr><td>Sodium [Moles/volume] in Blood</td><td>136.2</td><td>135 - 145</td><td></td><td>mmol/L</td></tr></table></div>"
        },
        "status": "final",
        "subject": {
          "reference": "urn:uuid:2dd92562-b7d5-40a5-bcc9-e33a6ac4167b",
          "display": "Lazăr Florea"
        },
        "effectiveDateTime": "2019-05-22T13:56:29Z",
        "specimen": {
          "reference": "urn:uuid:7d7e5f4c-628f-4d03-8c6f-9d4cd5d46457"
        }
      }
    },
    {
      "fullUrl": "urn:uuid:706a89fd-5edc-4362-aee5-1c01147a926c",
      "resource": {
        "resourceType": "Observation",
        "id": "706a89fd-5edc-4362-aee5-1c01147a926c",
        "meta": {
          "profile": [
            "http://hl7.eu/fhir/laboratory/StructureDefinition/Observation-resultslab-eu-lab"
          ]
        },
        "performer": [
          {
            "display": "The Central European Lab"
          }
        ],
        "category": [
          {
            "coding": [
              {
                "system": "http://terminology.hl7.org/CodeSystem/observation-category",
                "code": "laboratory"
              }
            ]
          }
        ],
        "code": {
          "coding": [
            {
              "code": "6298-4",
              "system": "http://loinc.org",
              "display": "Potassium [Moles/volume] in Blood"
            }
          ],
          "text": "Potassium [Moles/volume] in Blood"
        },
        "valueQuantity": {
          "system": "http://unitsofmeasure.org",
          "value": 3.8,
          "unit": "mmol/L",
          "code": "mmol/L"
        },
        "referenceRange": [
          {
            "low": {
              "value": 3.5,
              "code": "mmol/L",
              "system": "http://unitsofmeasure.org"
            }
          },
          {
            "high": {
              "value": 5.3,
              "code": "mmol/L",
              "system": "http://unitsofmeasure.org"
            }
          }
        ],
        "text": {
          "status": "generated",
          "div": "<div xmlns=\"http://www.w3.org/1999/xhtml\"><table class=\"hl7__eu__lab__report\"><tr><th>Test</th><th>22-May-2019</th><th>Reference&#xA0;Range</th><th>Unit</th></tr><tr><td>Potassium [Moles/volume] in Blood</td><td>3.8</td><td>3.5 - 5.3</td><td></td><td>mmol/L</td></tr></table></div>"
        },
        "status": "final",
        "subject": {
          "reference": "urn:uuid:2dd92562-b7d5-40a5-bcc9-e33a6ac4167b",
          "display": "Lazăr Florea"
        },
        "effectiveDateTime": "2019-05-22T13:56:29Z",
        "specimen": {
          "reference": "urn:uuid:7d7e5f4c-628f-4d03-8c6f-9d4cd5d46457"
        }
      }
    },
    {
      "fullUrl": "urn:uuid:d510ed05-8530-4448-8a2c-ccb5a4452daf",
      "resource": {
        "resourceType": "Observation",
        "id": "d510ed05-8530-4448-8a2c-ccb5a4452daf",
        "meta": {
          "profile": [
            "http://hl7.eu/fhir/laboratory/StructureDefinition/Observation-resultslab-eu-lab"
          ]
        },
        "performer": [
          {
            "display": "The Central European Lab"
          }
        ],
        "category": [
          {
            "coding": [
              {
                "system": "http://terminology.hl7.org/CodeSystem/observation-category",
                "code": "laboratory"
              }
            ]
          }
        ],
        "code": {
          "coding": [
            {
              "code": "2069-3",
              "system": "http://loinc.org",
              "display": "Chloride [Moles/volume] in Blood"
            }
          ],
          "text": "Chloride [Moles/volume] in Blood"
        },
        "valueQuantity": {
          "system": "http://unitsofmeasure.org",
          "value": 103.2,
          "unit": "mmol/L",
          "code": "mmol/L"
        },
        "referenceRange": [
          {
            "low": {
              "value": 98,
              "code": "mmol/L",
              "system": "http://unitsofmeasure.org"
            }
          },
          {
            "high": {
              "value": 109,
              "code": "mmol/L",
              "system": "http://unitsofmeasure.org"
            }
          }
        ],
        "text": {
          "status": "generated",
          "div": "<div xmlns=\"http://www.w3.org/1999/xhtml\"><table class=\"hl7__eu__lab__report\"><tr><th>Test</th><th>22-May-2019</th><th>Reference&#xA0;Range</th><th>Unit</th></tr><tr><td>Chloride [Moles/volume] in Blood</td><td>103.2</td><td>98 - 109</td><td></td><td>mmol/L</td></tr></table></div>"
        },
        "status": "final",
        "subject": {
          "reference": "urn:uuid:2dd92562-b7d5-40a5-bcc9-e33a6ac4167b",
          "display": "Lazăr Florea"
        },
        "effectiveDateTime": "2019-05-22T13:56:29Z",
        "specimen": {
          "reference": "urn:uuid:7d7e5f4c-628f-4d03-8c6f-9d4cd5d46457"
        }
      }
    },
    {
      "fullUrl": "urn:uuid:abcd3c8a-82a6-4a7d-bb9b-37a6e2cbef2c",
      "resource": {
        "resourceType": "Observation",
        "id": "abcd3c8a-82a6-4a7d-bb9b-37a6e2cbef2c",
        "meta": {
          "profile": [
            "http://hl7.eu/fhir/laboratory/StructureDefinition/Observation-resultslab-eu-lab"
          ]
        },
        "performer": [
          {
            "display": "The Central European Lab"
          }
        ],
        "category": [
          {
            "coding": [
              {
                "system": "http://terminology.hl7.org/CodeSystem/observation-category",
                "code": "laboratory"
              }
            ]
          }
        ],
        "code": {
          "coding": [
            {
              "code": "20565-8",
              "system": "http://loinc.org",
              "display": "Carbon dioxide, total [Moles/volume] in Blood"
            }
          ],
          "text": "Carbon dioxide, total [Moles/volume] in Blood"
        },
        "valueQuantity": {
          "system": "http://unitsofmeasure.org",
          "value": 27.1,
          "unit": "mmol/L",
          "code": "mmol/L"
        },
        "referenceRange": [
          {
            "low": {
              "value": 22,
              "code": "mmol/L",
              "system": "http://unitsofmeasure.org"
            }
          },
          {
            "high": {
              "value": 32,
              "code": "mmol/L",
              "system": "http://unitsofmeasure.org"
            }
          }
        ],
        "text": {
          "status": "generated",
          "div": "<div xmlns=\"http://www.w3.org/1999/xhtml\"><table class=\"hl7__eu__lab__report\"><tr><th>Test</th><th>22-May-2019</th><th>Reference&#xA0;Range</th><th>Unit</th></tr><tr><td>Carbon dioxide, total [Moles/volume] in Blood</td><td>27.1</td><td>22 - 32</td><td></td><td>mmol/L</td></tr></table></div>"
        },
        "status": "final",
        "subject": {
          "reference": "urn:uuid:2dd92562-b7d5-40a5-bcc9-e33a6ac4167b",
          "display": "Lazăr Florea"
        },
        "effectiveDateTime": "2019-05-22T13:56:29Z",
        "specimen": {
          "reference": "urn:uuid:7d7e5f4c-628f-4d03-8c6f-9d4cd5d46457"
        }
      }
    },
    {
      "fullUrl": "urn:uuid:a704cb75-1c18-460a-92c3-4eac57d3002c",
      "resource": {
        "resourceType": "Device",
        "id": "a704cb75-1c18-460a-92c3-4eac57d3002c",
        "deviceName": [
          {
            "name": "SYNDERAI Synthetic Generator",
            "type": "manufacturer-name"
          }
        ],
        "version": [
          {
            "value": "5.0"
          }
        ],
        "text": {
          "status": "generated",
          "div": "<div xmlns=\"http://www.w3.org/1999/xhtml\">SYNDERAI Synthetic Generator v5.0</div>"
        },
        "status": "active\"",
        "distinctIdentifier": "synderai-generator-50",
        "manufacturer": "SYNDERAI Project"
      }
    },
    {
      "fullUrl": "urn:uuid:934cc07f-82cf-4a34-af1d-7778ad15f336",
      "resource": {
        "resourceType": "Provenance",
        "id": "934cc07f-82cf-4a34-af1d-7778ad15f336",
        "target": [
          {
            "reference": "Patient/2dd92562-b7d5-40a5-bcc9-e33a6ac4167b"
          },
          {
            "reference": "Bundle/95768c6d-c0f7-4f0f-a0b7-7d535d1f68d4"
          },
          {
            "reference": "Composition/8e81ad62-9aaa-465a-a41a-4b14e9c33a9c"
          },
          {
            "reference": "PractitionerRole/a4028c15-633f-484a-9c38-438100bfeff1"
          },
          {
            "reference": "Practitioner/67e3d274-dbf7-43e5-8aaa-5d677a026dc1"
          },
          {
            "reference": "PractitionerRole/7be89e51-5775-4add-a607-4b714d5311a9"
          },
          {
            "reference": "Organization/89142e68-8f39-4f9f-bed9-16f4cace2f1e"
          }
        ],
        "activity": {
          "text": "Synthetic Example Data Generation"
        },
        "policy": [
          "https://synderai.net/synderai-synthetic-data-policy"
        ],
        "agent": [
          {
            "type": {
              "text": "author"
            },
            "who": {
              "reference": "Device/a704cb75-1c18-460a-92c3-4eac57d3002c"
            }
          }
        ],
        "reason": [
          {
            "text": "Interoperability Testing and Training (non-clinical use)"
          }
        ],
        "text": {
          "status": "generated",
          "div": "<div xmlns=\"http://www.w3.org/1999/xhtml\">Provenance for SYNDERAI Synthetic Example Data Resource</div>"
        },
        "recorded": "2019-05-22T15:56:29Z"
      }
    },
    {
      "fullUrl": "urn:uuid:a4028c15-633f-484a-9c38-438100bfeff1",
      "resource": {
        "resourceType": "PractitionerRole",
        "id": "a4028c15-633f-484a-9c38-438100bfeff1",
        "meta": {
          "profile": [
            "http://hl7.eu/fhir/base/StructureDefinition/practitionerRole-eu"
          ]
        },
        "text": {
          "status": "generated",
          "div": "<div xmlns=\"http://www.w3.org/1999/xhtml\">Laboratory Role Id: a4028c15-633f-484a-9c38-438100bfeff1</div>"
        },
        "practitioner": {
          "reference": "urn:uuid:67e3d274-dbf7-43e5-8aaa-5d677a026dc1"
        }
      }
    },
    {
      "fullUrl": "urn:uuid:67e3d274-dbf7-43e5-8aaa-5d677a026dc1",
      "resource": {
        "resourceType": "Practitioner",
        "id": "67e3d274-dbf7-43e5-8aaa-5d677a026dc1",
        "meta": {
          "profile": [
            "http://hl7.eu/fhir/base/StructureDefinition/practitioner-eu"
          ]
        },
        "identifier": [
          {
            "assigner": {
              "display": "HL7 Europe"
            },
            "system": "urn:oid:2.16.840.1.113883.2.51.999",
            "value": "6d378664-ed88-4f11-8a31-7943664cc60e"
          }
        ],
        "name": [
          {
            "prefix": [
              "dr"
            ],
            "given": [
              "Ex"
            ],
            "family": "Ample"
          }
        ],
        "address": [
          {
            "line": [
              "Laboratoire Central Européenne",
              "Boulevard du Jardin Botanique 32"
            ],
            "postalCode": "1000",
            "city": "Brussels",
            "country": "Belgium"
          }
        ],
        "text": {
          "status": "generated",
          "div": "<div xmlns=\"http://www.w3.org/1999/xhtml\">Laboratory: Laboratoire Central Européenne, 1000 Brussels, Belgium</div>"
        }
      }
    }
  ],
  "type": "document",
  "timestamp": "2019-05-22T15:56:29Z"
}
