{
  "resourceType": "Bundle",
  "id": "6c6e4ec8-3702-4660-9838-6ad3b849833e",
  "meta": {
    "profile": [
      "http://hl7.eu/fhir/laboratory/StructureDefinition/Bundle-eu-lab"
    ]
  },
  "identifier": {
    "assigner": {
      "display": "HL7 Europe"
    },
    "system": "urn:oid:2.16.840.1.113883.2.51.999",
    "value": "8340a7c7-46c2-4f87-8bdc-341df04ca2ca"
  },
  "entry": [
    {
      "fullUrl": "urn:uuid:d09cca9e-22dd-4ef5-bcfe-f457acbef3f3",
      "resource": {
        "resourceType": "Composition",
        "id": "d09cca9e-22dd-4ef5-bcfe-f457acbef3f3",
        "meta": {
          "profile": [
            "http://hl7.eu/fhir/laboratory/StructureDefinition/Composition-eu-lab"
          ]
        },
        "identifier": {
          "assigner": {
            "display": "HL7 Europe"
          },
          "system": "urn:oid:2.16.840.1.113883.2.51.999",
          "value": "ce79f144-1534-472d-a5fd-57da8c6cf1a2"
        },
        "author": [
          {
            "reference": "urn:uuid:9698ed8e-d71c-47f7-a086-a0b6e1f81cfe"
          }
        ],
        "category": [
          {
            "coding": [
              {
                "code": "26436-6",
                "system": "http://loinc.org",
                "display": "Laboratory studies (set)"
              }
            ]
          }
        ],
        "type": {
          "coding": [
            {
              "code": "11502-2",
              "system": "http://loinc.org",
              "display": "Laboratory report"
            }
          ],
          "text": "Laboratory Report"
        },
        "section": [
          {
            "code": {
              "coding": [
                {
                  "code": "26436-6",
                  "system": "http://loinc.org",
                  "display": "Laboratory studies (set)"
                }
              ],
              "text": "Laboratory studies"
            },
            "section": [
              {
                "code": {
                  "coding": [
                    {
                      "code": "$18719-5",
                      "system": "http://loinc.org",
                      "display": "Chemistry studies (set)"
                    }
                  ],
                  "text": "Chemistry"
                },
                "entry": [
                  {
                    "reference": "urn:uuid:8037e57f-85c8-4710-91bd-15e7b5f073aa"
                  },
                  {
                    "reference": "urn:uuid:0a413603-d1e2-4d1a-934f-5e178a5a56e9"
                  },
                  {
                    "reference": "urn:uuid:b5c5b835-4ad9-410b-8869-d3b7e7050aae"
                  },
                  {
                    "reference": "urn:uuid:d45e79d0-3103-4726-97a6-2617a3a5351e"
                  },
                  {
                    "reference": "urn:uuid:0a752a0d-7207-4de3-8c35-c80b1c08008d"
                  },
                  {
                    "reference": "urn:uuid:e656b43b-73fd-49a2-bbc7-276b45d088b4"
                  },
                  {
                    "reference": "urn:uuid:4b06b6a8-86dd-46b3-87f8-3e57059ea2a2"
                  },
                  {
                    "reference": "urn:uuid:02ca9031-ccdb-431d-bbd8-5ed769c212b6"
                  },
                  {
                    "reference": "urn:uuid:6d6ca4f4-df4e-4139-8d18-9e1e042881d5"
                  },
                  {
                    "reference": "urn:uuid:0d082f48-5f33-4c7b-a906-1a70dd449584"
                  }
                ],
                "text": {
                  "status": "generated",
                  "div": "<div xmlns=\"http://www.w3.org/1999/xhtml\"><h3>Chemistry</h3><table class=\"hl7__eu__lab__report\"><thead><tr><th>Test</th><th>26-SEP-2017</th><th>Reference&#xA0;Range</th><th>Unit</th></tr></thead><tbody><tr><td>Glucose [Mass/volume] in Serum or Plasma</td><td><strong>66.7 L</strong></td><td>70 - 99</td><td>mg/dL</td></tr><tr><td>Urea nitrogen [Mass/volume] in Serum or Plasma</td><td>17.5</td><td>7 - 50</td><td>mg/dL</td></tr><tr><td>Creatinine [Mass/volume] in Serum or Plasma</td><td><strong>1.9 H</strong></td><td>0.6 - 1.1</td><td>mg/dL</td></tr><tr><td>Calcium [Mass/volume] in Serum or Plasma</td><td>9.0</td><td>8.6 - 10.4</td><td>mg/dL</td></tr><tr><td>Sodium [Moles/volume] in Serum or Plasma</td><td>137.1</td><td>135 - 145</td><td>mmol/L</td></tr><tr><td>Potassium [Moles/volume] in Serum or Plasma</td><td>4.6</td><td>3.5 - 5.1</td><td>mmol/L</td></tr><tr><td>Chloride [Moles/volume] in Serum or Plasma</td><td>105.2</td><td>98 - 108</td><td>mmol/L</td></tr><tr><td>Carbon dioxide, total [Moles/volume] in Serum or Plasma</td><td><strong>21.8 L</strong></td><td>22 - 32</td><td>mmol/L</td></tr><tr><td>Ketones [Presence] in Urine by Test strip</td><td>Urine ketone test = +</td><td></td><td></td></tr><tr><td>Hemoglobin A1c/Hemoglobin.total in Blood</td><td><strong>3.2 L</strong></td><td>4 - 6.4</td><td>%</td></tr></tbody></table></div>"
                },
                "title": "Chemistry"
              },
              {
                "code": {
                  "coding": [
                    {
                      "code": "$18729-4",
                      "system": "http://loinc.org",
                      "display": "Urinalysis studies (set)"
                    }
                  ],
                  "text": "Urinalysis"
                },
                "entry": [
                  {
                    "reference": "urn:uuid:1b651952-5a5d-4cd4-8ed1-80705bae30b7"
                  },
                  {
                    "reference": "urn:uuid:02caf1cb-1e80-4e43-b2f6-843a279f98cc"
                  },
                  {
                    "reference": "urn:uuid:a3b001ef-4f2e-42bd-9b92-704120111de6"
                  },
                  {
                    "reference": "urn:uuid:fc0fa247-1d64-47a7-a0f0-e399e99ad97e"
                  },
                  {
                    "reference": "urn:uuid:3f35dfb5-a687-4f4b-80bb-302e76a7be15"
                  },
                  {
                    "reference": "urn:uuid:fae37089-9db9-42ec-affa-c12c3da505bc"
                  },
                  {
                    "reference": "urn:uuid:b229f1b2-821f-4224-9270-c83368e5cc9c"
                  },
                  {
                    "reference": "urn:uuid:647925a8-8077-4504-9995-f227d9c67b3a"
                  },
                  {
                    "reference": "urn:uuid:3d2b6c09-a757-4f5c-8595-2be5db578581"
                  },
                  {
                    "reference": "urn:uuid:f1a0d70a-b0c6-4167-a087-d81c5e6ce065"
                  },
                  {
                    "reference": "urn:uuid:abf9d56b-bc8d-429c-8ef3-9a9cb2987a78"
                  },
                  {
                    "reference": "urn:uuid:d0d81a35-fafa-441a-8c89-862a9d75c572"
                  }
                ],
                "text": {
                  "status": "generated",
                  "div": "<div xmlns=\"http://www.w3.org/1999/xhtml\"><h3>Urinalysis</h3><table class=\"hl7__eu__lab__report\"><thead><tr><th>Test</th><th>26-SEP-2017</th><th>Reference&#xA0;Range</th><th>Unit</th></tr></thead><tbody><tr><td>Glucose [Mass/volume] in Urine by Test strip</td><td><strong>2.5 H</strong></td><td>0.8 - 0</td><td>mg/dL</td></tr><tr><td>Glucose [Presence] in Urine by Test strip</td><td>++</td><td></td><td></td></tr><tr><td>Bilirubin.total [Mass/volume] in Urine by Test strip</td><td><strong>1.3 H</strong></td><td>0 - 1</td><td>mg/dL</td></tr><tr><td>Bilirubin.total [Presence] in Urine by Test strip</td><td>Finding of bilirubin in urine</td><td></td><td></td></tr><tr><td>Ketones [Mass/volume] in Urine by Test strip</td><td><strong>17.2 H</strong></td><td>0 - 4</td><td>mg/dL</td></tr><tr><td>Specific gravity of Urine by Test strip</td><td><strong>1.0 L</strong></td><td>1.005 - 1.03</td><td>{nominal}</td></tr><tr><td>pH of Urine by Test strip</td><td>6.1</td><td>4.6 - 7</td><td>pH</td></tr><tr><td>Protein [Mass/volume] in Urine by Test strip</td><td><strong>214.4 H</strong></td><td>0 - 14</td><td>mg/dL</td></tr><tr><td>Protein [Presence] in Urine by Test strip</td><td>Urine protein test = ++</td><td></td><td></td></tr><tr><td>Nitrite [Presence] in Urine by Test strip</td><td>Urine nitrite negative</td><td></td><td></td></tr><tr><td>Hemoglobin [Presence] in Urine by Test strip</td><td>Urine blood test = negative</td><td></td><td></td></tr><tr><td>Leukocyte esterase [Presence] in Urine by Test strip</td><td>Urine leukocyte test negative</td><td></td><td></td></tr></tbody></table></div>"
                },
                "title": "Urinalysis"
              },
              {
                "code": {
                  "coding": [
                    {
                      "code": "$LP7846-1",
                      "system": "http://loinc.org",
                      "display": "Specimen information"
                    }
                  ],
                  "text": "Specimen information"
                },
                "entry": [
                  {
                    "reference": "urn:uuid:64646630-38bd-46a2-908c-04699b4c4f5c"
                  },
                  {
                    "reference": "urn:uuid:83b0c7f5-fc99-424e-9872-1acaf5866021"
                  },
                  {
                    "reference": "urn:uuid:baf5190f-2409-4eb0-a457-dbd80bd57bcc"
                  },
                  {
                    "reference": "urn:uuid:0d3e1cec-cbea-4cd4-a145-39101ffa8060"
                  }
                ],
                "text": {
                  "status": "generated",
                  "div": "<div xmlns=\"http://www.w3.org/1999/xhtml\"><h3>Specimen information</h3><table class=\"hl7__eu__lab__report\"><thead><tr><th>Test</th><th>26-SEP-2017</th><th>Specimen</th><th></th></tr></thead><tbody><tr><td>Appearance of Urine</td><td>Cloudy urine</td><td>Urine</td><td></td></tr><tr><td>Odor of Urine</td><td>Urine smell ammoniacal</td><td>Urine</td><td></td></tr><tr><td>Clarity of Urine</td><td>Translucent</td><td>Urine</td><td></td></tr><tr><td>Color of Urine</td><td>Brown color</td><td>Urine</td><td></td></tr></tbody></table></div>"
                },
                "title": "Specimen information"
              }
            ],
            "title": "Laboratory Report"
          },
          {
            "text": {
              "status": "generated",
              "div": "<div xmlns=\"http://www.w3.org/1999/xhtml\"><h3>Annotation</h3><table class=\"hl7__eu__lab__report\"><tr><th>Conclusion and Recommendations based on this report and previous findings known to us</th></tr><tr><td>The patient shows hypoglycemia and low HbA1c, with elevated serum creatinine suggesting possible renal impairment. Urinalysis reveals proteinuria, glucosuria, ketonuria, bilirubinuria, low specific gravity, and abnormal urine appearance, indicating possible renal dysfunction and metabolic derangement. No evidence of urinary infection. Recommend further evaluation for renal disease, metabolic causes of hypoglycemia, and possible hepatic involvement.</td></tr></table></div>"
            },
            "code": {
              "coding": [
                {
                  "system": "http://loinc.org",
                  "code": "48767-8",
                  "display": "Annotation comment"
                }
              ]
            },
            "title": "Annotation comment"
          }
        ],
        "status": "final",
        "subject": {
          "reference": "urn:uuid:dcf744eb-23f9-4331-b8bb-13f54b02e44e",
          "display": "Meaghan Neary"
        },
        "date": "2017-09-26T00:11:04Z",
        "title": "Laboratory Report",
        "confidentiality": "N"
      }
    },
    {
      "fullUrl": "urn:uuid:bc6bd970-4f18-468a-bac0-5abd0434f5bc",
      "resource": {
        "resourceType": "DiagnosticReport",
        "id": "bc6bd970-4f18-468a-bac0-5abd0434f5bc",
        "meta": {
          "profile": [
            "http://hl7.eu/fhir/laboratory/StructureDefinition/DiagnosticReport-eu-lab"
          ]
        },
        "identifier": [
          {
            "assigner": {
              "display": "HL7 Europe"
            },
            "system": "urn:oid:2.16.840.1.113883.2.51.999",
            "value": "44ab779a-9c76-494a-b31d-61aac0f2ef0a"
          }
        ],
        "extension": [
          {
            "url": "http://hl7.org/fhir/5.0/StructureDefinition/extension-DiagnosticReport.composition",
            "valueReference": {
              "reference": "urn:uuid:ce79f144-1534-472d-a5fd-57da8c6cf1a2"
            }
          }
        ],
        "category": [
          {
            "coding": [
              {
                "code": "26436-6",
                "system": "http://loinc.org",
                "display": "Laboratory studies (set)"
              }
            ]
          }
        ],
        "specimen": [
          {
            "reference": "urn:uuid:b9957bc4-56c2-41d7-a475-747954806e1c"
          },
          {
            "reference": "urn:uuid:e9329fa9-d89c-4d04-be14-f56e1512ef6a"
          },
          {
            "reference": "urn:uuid:6d3c0bdf-bfa3-423b-9e29-743eb5c9f6b5"
          }
        ],
        "result": [
          {
            "reference": "urn:uuid:8037e57f-85c8-4710-91bd-15e7b5f073aa"
          },
          {
            "reference": "urn:uuid:0a413603-d1e2-4d1a-934f-5e178a5a56e9"
          },
          {
            "reference": "urn:uuid:b5c5b835-4ad9-410b-8869-d3b7e7050aae"
          },
          {
            "reference": "urn:uuid:d45e79d0-3103-4726-97a6-2617a3a5351e"
          },
          {
            "reference": "urn:uuid:0a752a0d-7207-4de3-8c35-c80b1c08008d"
          },
          {
            "reference": "urn:uuid:e656b43b-73fd-49a2-bbc7-276b45d088b4"
          },
          {
            "reference": "urn:uuid:4b06b6a8-86dd-46b3-87f8-3e57059ea2a2"
          },
          {
            "reference": "urn:uuid:02ca9031-ccdb-431d-bbd8-5ed769c212b6"
          },
          {
            "reference": "urn:uuid:64646630-38bd-46a2-908c-04699b4c4f5c"
          },
          {
            "reference": "urn:uuid:83b0c7f5-fc99-424e-9872-1acaf5866021"
          },
          {
            "reference": "urn:uuid:baf5190f-2409-4eb0-a457-dbd80bd57bcc"
          },
          {
            "reference": "urn:uuid:0d3e1cec-cbea-4cd4-a145-39101ffa8060"
          },
          {
            "reference": "urn:uuid:1b651952-5a5d-4cd4-8ed1-80705bae30b7"
          },
          {
            "reference": "urn:uuid:02caf1cb-1e80-4e43-b2f6-843a279f98cc"
          },
          {
            "reference": "urn:uuid:a3b001ef-4f2e-42bd-9b92-704120111de6"
          },
          {
            "reference": "urn:uuid:fc0fa247-1d64-47a7-a0f0-e399e99ad97e"
          },
          {
            "reference": "urn:uuid:3f35dfb5-a687-4f4b-80bb-302e76a7be15"
          },
          {
            "reference": "urn:uuid:6d6ca4f4-df4e-4139-8d18-9e1e042881d5"
          },
          {
            "reference": "urn:uuid:fae37089-9db9-42ec-affa-c12c3da505bc"
          },
          {
            "reference": "urn:uuid:b229f1b2-821f-4224-9270-c83368e5cc9c"
          },
          {
            "reference": "urn:uuid:647925a8-8077-4504-9995-f227d9c67b3a"
          },
          {
            "reference": "urn:uuid:3d2b6c09-a757-4f5c-8595-2be5db578581"
          },
          {
            "reference": "urn:uuid:f1a0d70a-b0c6-4167-a087-d81c5e6ce065"
          },
          {
            "reference": "urn:uuid:abf9d56b-bc8d-429c-8ef3-9a9cb2987a78"
          },
          {
            "reference": "urn:uuid:d0d81a35-fafa-441a-8c89-862a9d75c572"
          },
          {
            "reference": "urn:uuid:0d082f48-5f33-4c7b-a906-1a70dd449584"
          }
        ],
        "status": "registered",
        "code": {
          "coding": [
            {
              "code": "11502-2",
              "system": "http://loinc.org",
              "display": "Laboratory report"
            }
          ]
        },
        "subject": {
          "reference": "urn:uuid:dcf744eb-23f9-4331-b8bb-13f54b02e44e",
          "display": "Meaghan Neary"
        }
      }
    },
    {
      "fullUrl": "urn:uuid:dcf744eb-23f9-4331-b8bb-13f54b02e44e",
      "resource": {
        "resourceType": "Patient",
        "id": "dcf744eb-23f9-4331-b8bb-13f54b02e44e",
        "meta": {
          "security": [
            {
              "system": "http://terminology.hl7.org/CodeSystem/v3-ActReason",
              "code": "HTEST"
            },
            {
              "system": "http://terminology.hl7.org/CodeSystem/v3-ActReason",
              "code": "TRAIN"
            }
          ],
          "tag": [
            {
              "system": "https://synderai.net/fhir/CodeSystem/tags",
              "code": "synthetic",
              "display": "SYNDERAI Synthetic data"
            }
          ],
          "profile": [
            "http://hl7.eu/fhir/base/StructureDefinition/patient-eu-core"
          ]
        },
        "identifier": [
          {
            "type": {
              "coding": [
                {
                  "code": "PT",
                  "system": "http://terminology.hl7.org/CodeSystem/v2-0203"
                }
              ]
            },
            "system": "http://ec.europa.eu/identifier/eci",
            "value": "1586-567257-8"
          },
          {
            "type": {
              "coding": [
                {
                  "code": "MR",
                  "system": "http://terminology.hl7.org/CodeSystem/v2-0203"
                }
              ]
            },
            "system": "http://local.setting.eu/identifier",
            "value": "443e6379-f231-b364-3ccb-644740a1aa2a"
          }
        ],
        "name": [
          {
            "family": "Neary"
          },
          {
            "given": [
              "Meaghan"
            ]
          },
          {
            "text": "Meaghan Neary"
          }
        ],
        "address": [
          {
            "line": [
              "64 Linskey Street"
            ],
            "use": "home",
            "type": "physical",
            "postalCode": "D02",
            "city": "Dublin",
            "country": "Ireland"
          }
        ],
        "telecom": [
          {
            "system": "phone",
            "value": "001-967-573-0911x465"
          }
        ],
        "extension": [
          {
            "url": "http://hl7.org/fhir/StructureDefinition/patient-nationality",
            "valueCodeableConcept": {
              "coding": [
                {
                  "code": "IE",
                  "system": "http://hl7.org/fhir/ValueSet/country"
                }
              ]
            }
          }
        ],
        "text": {
          "status": "generated",
          "div": "<div xmlns=\"http://www.w3.org/1999/xhtml\"><table class=\"hl7__ips\"><tr><td>Meaghan Neary</td><td>female</td><td>19-Dec-1960</td></tr></table></div>"
        },
        "gender": "female",
        "birthDate": "1960-12-19"
      }
    },
    {
      "fullUrl": "urn:uuid:eb7fdaae-00b3-43d7-ae44-08bbb2e6624a",
      "resource": {
        "resourceType": "ServiceRequest",
        "id": "eb7fdaae-00b3-43d7-ae44-08bbb2e6624a",
        "meta": {
          "profile": [
            "http://hl7.eu/fhir/laboratory/StructureDefinition/ServiceRequest-eu-lab"
          ]
        },
        "identifier": [
          {
            "system": "http://example.org",
            "value": "be199792-ec73-40f4-bec7-e87ebcc07b14"
          }
        ],
        "specimen": [
          {
            "reference": "urn:uuid:b9957bc4-56c2-41d7-a475-747954806e1c"
          },
          {
            "reference": "urn:uuid:e9329fa9-d89c-4d04-be14-f56e1512ef6a"
          },
          {
            "reference": "urn:uuid:6d3c0bdf-bfa3-423b-9e29-743eb5c9f6b5"
          }
        ],
        "reasonCode": [
          {
            "coding": [
              {
                "code": "55822004",
                "system": "http://snomed.info/sct",
                "display": "Hyperlipidemia"
              }
            ]
          },
          {
            "coding": [
              {
                "code": "433144002",
                "system": "http://snomed.info/sct",
                "display": "Chronic kidney disease stage 3"
              }
            ]
          },
          {
            "coding": [
              {
                "code": "157141000119108",
                "system": "http://snomed.info/sct",
                "display": "Proteinuria due to type 2 diabetes mellitus"
              }
            ]
          },
          {
            "coding": [
              {
                "code": "431856006",
                "system": "http://snomed.info/sct",
                "display": "Chronic kidney disease stage 2"
              }
            ]
          },
          {
            "coding": [
              {
                "code": "90781000119102",
                "system": "http://snomed.info/sct",
                "display": "Microalbuminuria due to type 2 diabetes mellitus"
              }
            ]
          },
          {
            "coding": [
              {
                "code": "127013003",
                "system": "http://snomed.info/sct",
                "display": "Disorder of kidney due to diabetes mellitus"
              }
            ]
          },
          {
            "coding": [
              {
                "code": "431855005",
                "system": "http://snomed.info/sct",
                "display": "Chronic kidney disease stage 1"
              }
            ]
          },
          {
            "coding": [
              {
                "code": "237602007",
                "system": "http://snomed.info/sct",
                "display": "Metabolic syndrome X"
              }
            ]
          },
          {
            "coding": [
              {
                "code": "271737000",
                "system": "http://snomed.info/sct",
                "display": "Anemia"
              }
            ]
          },
          {
            "coding": [
              {
                "code": "15777000",
                "system": "http://snomed.info/sct",
                "display": "Prediabetes"
              }
            ]
          },
          {
            "coding": [
              {
                "code": "59621000",
                "system": "http://snomed.info/sct",
                "display": "Essential hypertension"
              }
            ]
          }
        ],
        "status": "active",
        "intent": "order",
        "code": {
          "coding": [
            {
              "code": "108252007",
              "system": "http://snomed.info/sct",
              "display": "Laboratory procedure"
            }
          ]
        },
        "subject": {
          "reference": "urn:uuid:dcf744eb-23f9-4331-b8bb-13f54b02e44e",
          "display": "Meaghan Neary"
        },
        "requester": {
          "reference": "urn:uuid:c2a5aa38-8a53-48cc-b1da-40ee030d3b11"
        }
      }
    },
    {
      "fullUrl": "urn:uuid:c2a5aa38-8a53-48cc-b1da-40ee030d3b11",
      "resource": {
        "resourceType": "PractitionerRole",
        "id": "c2a5aa38-8a53-48cc-b1da-40ee030d3b11",
        "meta": {
          "profile": [
            "http://hl7.eu/fhir/base/StructureDefinition/practitionerRole-eu"
          ]
        },
        "text": {
          "status": "generated",
          "div": "<div xmlns=\"http://www.w3.org/1999/xhtml\">Provider Role Id: c2a5aa38-8a53-48cc-b1da-40ee030d3b11</div>"
        },
        "organization": {
          "reference": "urn:uuid:a5a95c48-0a09-4b38-aad3-2fb3ceb9b7bc"
        }
      }
    },
    {
      "fullUrl": "urn:uuid:a5a95c48-0a09-4b38-aad3-2fb3ceb9b7bc",
      "resource": {
        "resourceType": "Organization",
        "id": "a5a95c48-0a09-4b38-aad3-2fb3ceb9b7bc",
        "meta": {
          "profile": [
            "http://hl7.eu/fhir/base/StructureDefinition/organization-eu"
          ]
        },
        "identifier": [
          {
            "assigner": {
              "display": "HL7 Europe"
            },
            "system": "urn:oid:2.16.840.1.113883.2.51.999",
            "value": "ad50386e-56b6-4e39-99a4-d30aba7cd18e"
          }
        ],
        "address": [
          {
            "line": [
              "Parnell Square West nan"
            ],
            "city": "Dublin",
            "postalCode": "D01",
            "country": "Ireland"
          }
        ],
        "text": {
          "status": "generated",
          "div": "<div xmlns=\"http://www.w3.org/1999/xhtml\">Provider Organization: Rotunda Hospital</div>"
        },
        "name": "Rotunda Hospital"
      }
    },
    {
      "fullUrl": "urn:uuid:b9957bc4-56c2-41d7-a475-747954806e1c",
      "resource": {
        "resourceType": "Specimen",
        "id": "b9957bc4-56c2-41d7-a475-747954806e1c",
        "meta": {
          "profile": [
            "http://hl7.eu/fhir/laboratory/StructureDefinition/Specimen-eu-lab"
          ]
        },
        "collection": {
          "collectedDateTime": "2017-09-25"
        },
        "text": {
          "status": "generated",
          "div": "<div xmlns=\"http://www.w3.org/1999/xhtml\"><table class=\"hl7__eu__lab__report\"><tr><th>Specimen</th><th>Collection Date</th></tr><tr><td>Acellular blood (serum or plasma) specimen</td><td><span class=\"nb\">25-Sep-2017</span></td></tr></table></div>"
        },
        "type": {
          "coding": [
            {
              "code": "122592007",
              "system": "http://snomed.info/sct",
              "display": "Acellular blood (serum or plasma) specimen"
            }
          ]
        }
      }
    },
    {
      "fullUrl": "urn:uuid:e9329fa9-d89c-4d04-be14-f56e1512ef6a",
      "resource": {
        "resourceType": "Specimen",
        "id": "e9329fa9-d89c-4d04-be14-f56e1512ef6a",
        "meta": {
          "profile": [
            "http://hl7.eu/fhir/laboratory/StructureDefinition/Specimen-eu-lab"
          ]
        },
        "collection": {
          "collectedDateTime": "2017-09-25"
        },
        "text": {
          "status": "generated",
          "div": "<div xmlns=\"http://www.w3.org/1999/xhtml\"><table class=\"hl7__eu__lab__report\"><tr><th>Specimen</th><th>Collection Date</th></tr><tr><td>Urine specimen</td><td><span class=\"nb\">25-Sep-2017</span></td></tr></table></div>"
        },
        "type": {
          "coding": [
            {
              "code": "122575003",
              "system": "http://snomed.info/sct",
              "display": "Urine specimen"
            }
          ]
        }
      }
    },
    {
      "fullUrl": "urn:uuid:6d3c0bdf-bfa3-423b-9e29-743eb5c9f6b5",
      "resource": {
        "resourceType": "Specimen",
        "id": "6d3c0bdf-bfa3-423b-9e29-743eb5c9f6b5",
        "meta": {
          "profile": [
            "http://hl7.eu/fhir/laboratory/StructureDefinition/Specimen-eu-lab"
          ]
        },
        "collection": {
          "collectedDateTime": "2017-09-25"
        },
        "text": {
          "status": "generated",
          "div": "<div xmlns=\"http://www.w3.org/1999/xhtml\"><table class=\"hl7__eu__lab__report\"><tr><th>Specimen</th><th>Collection Date</th></tr><tr><td>Whole blood specimen (specimen)</td><td><span class=\"nb\">25-Sep-2017</span></td></tr></table></div>"
        },
        "type": {
          "coding": [
            {
              "code": "258580003",
              "system": "http://snomed.info/sct",
              "display": "Whole blood specimen (specimen)"
            }
          ]
        }
      }
    },
    {
      "fullUrl": "urn:uuid:8037e57f-85c8-4710-91bd-15e7b5f073aa",
      "resource": {
        "resourceType": "Observation",
        "id": "8037e57f-85c8-4710-91bd-15e7b5f073aa",
        "meta": {
          "profile": [
            "http://hl7.eu/fhir/laboratory/StructureDefinition/Observation-resultslab-eu-lab"
          ]
        },
        "performer": [
          {
            "display": "The Central European Lab"
          }
        ],
        "category": [
          {
            "coding": [
              {
                "system": "http://terminology.hl7.org/CodeSystem/observation-category",
                "code": "laboratory"
              }
            ]
          }
        ],
        "code": {
          "coding": [
            {
              "code": "2345-7",
              "system": "http://loinc.org",
              "display": "Glucose [Mass/volume] in Serum or Plasma"
            }
          ],
          "text": "Glucose [Mass/volume] in Serum or Plasma"
        },
        "valueQuantity": {
          "system": "http://unitsofmeasure.org",
          "value": 66.7,
          "unit": "mg/dL",
          "code": "mg/dL"
        },
        "referenceRange": [
          {
            "low": {
              "value": 70,
              "code": "mg/dL",
              "system": "http://unitsofmeasure.org"
            }
          },
          {
            "high": {
              "value": 99,
              "code": "mg/dL",
              "system": "http://unitsofmeasure.org"
            }
          }
        ],
        "interpretation": [
          {
            "coding": [
              {
                "code": "L",
                "system": "http://terminology.hl7.org/CodeSystem/v3-ObservationInterpretation",
                "display": "Low"
              }
            ]
          }
        ],
        "text": {
          "status": "generated",
          "div": "<div xmlns=\"http://www.w3.org/1999/xhtml\"><table class=\"hl7__eu__lab__report\"><tr><th>Test</th><th>26-Sep-2017</th><th>Reference&#xA0;Range</th><th>Unit</th></tr><tr><td>Glucose [Mass/volume] in Serum or Plasma</td><td>66.7</td><td>70 - 99</td><td>L</td><td>mg/dL</td></tr></table></div>"
        },
        "status": "final",
        "subject": {
          "reference": "urn:uuid:dcf744eb-23f9-4331-b8bb-13f54b02e44e",
          "display": "Meaghan Neary"
        },
        "effectiveDateTime": "2017-09-25T22:11:04Z",
        "specimen": {
          "reference": "urn:uuid:b9957bc4-56c2-41d7-a475-747954806e1c"
        }
      }
    },
    {
      "fullUrl": "urn:uuid:0a413603-d1e2-4d1a-934f-5e178a5a56e9",
      "resource": {
        "resourceType": "Observation",
        "id": "0a413603-d1e2-4d1a-934f-5e178a5a56e9",
        "meta": {
          "profile": [
            "http://hl7.eu/fhir/laboratory/StructureDefinition/Observation-resultslab-eu-lab"
          ]
        },
        "performer": [
          {
            "display": "The Central European Lab"
          }
        ],
        "category": [
          {
            "coding": [
              {
                "system": "http://terminology.hl7.org/CodeSystem/observation-category",
                "code": "laboratory"
              }
            ]
          }
        ],
        "code": {
          "coding": [
            {
              "code": "3094-0",
              "system": "http://loinc.org",
              "display": "Urea nitrogen [Mass/volume] in Serum or Plasma"
            }
          ],
          "text": "Urea nitrogen [Mass/volume] in Serum or Plasma"
        },
        "valueQuantity": {
          "system": "http://unitsofmeasure.org",
          "value": 17.5,
          "unit": "mg/dL",
          "code": "mg/dL"
        },
        "referenceRange": [
          {
            "low": {
              "value": 7,
              "code": "mg/dL",
              "system": "http://unitsofmeasure.org"
            }
          },
          {
            "high": {
              "value": 50,
              "code": "mg/dL",
              "system": "http://unitsofmeasure.org"
            }
          }
        ],
        "text": {
          "status": "generated",
          "div": "<div xmlns=\"http://www.w3.org/1999/xhtml\"><table class=\"hl7__eu__lab__report\"><tr><th>Test</th><th>26-Sep-2017</th><th>Reference&#xA0;Range</th><th>Unit</th></tr><tr><td>Urea nitrogen [Mass/volume] in Serum or Plasma</td><td>17.5</td><td>7 - 50</td><td></td><td>mg/dL</td></tr></table></div>"
        },
        "status": "final",
        "subject": {
          "reference": "urn:uuid:dcf744eb-23f9-4331-b8bb-13f54b02e44e",
          "display": "Meaghan Neary"
        },
        "effectiveDateTime": "2017-09-25T22:11:04Z",
        "specimen": {
          "reference": "urn:uuid:b9957bc4-56c2-41d7-a475-747954806e1c"
        }
      }
    },
    {
      "fullUrl": "urn:uuid:b5c5b835-4ad9-410b-8869-d3b7e7050aae",
      "resource": {
        "resourceType": "Observation",
        "id": "b5c5b835-4ad9-410b-8869-d3b7e7050aae",
        "meta": {
          "profile": [
            "http://hl7.eu/fhir/laboratory/StructureDefinition/Observation-resultslab-eu-lab"
          ]
        },
        "performer": [
          {
            "display": "The Central European Lab"
          }
        ],
        "category": [
          {
            "coding": [
              {
                "system": "http://terminology.hl7.org/CodeSystem/observation-category",
                "code": "laboratory"
              }
            ]
          }
        ],
        "code": {
          "coding": [
            {
              "code": "2160-0",
              "system": "http://loinc.org",
              "display": "Creatinine [Mass/volume] in Serum or Plasma"
            }
          ],
          "text": "Creatinine [Mass/volume] in Serum or Plasma"
        },
        "valueQuantity": {
          "system": "http://unitsofmeasure.org",
          "value": 1.9,
          "unit": "mg/dL",
          "code": "mg/dL"
        },
        "referenceRange": [
          {
            "low": {
              "value": 0.6,
              "code": "mg/dL",
              "system": "http://unitsofmeasure.org"
            }
          },
          {
            "high": {
              "value": 1.1,
              "code": "mg/dL",
              "system": "http://unitsofmeasure.org"
            }
          }
        ],
        "interpretation": [
          {
            "coding": [
              {
                "code": "H",
                "system": "http://terminology.hl7.org/CodeSystem/v3-ObservationInterpretation",
                "display": "High"
              }
            ]
          }
        ],
        "text": {
          "status": "generated",
          "div": "<div xmlns=\"http://www.w3.org/1999/xhtml\"><table class=\"hl7__eu__lab__report\"><tr><th>Test</th><th>26-Sep-2017</th><th>Reference&#xA0;Range</th><th>Unit</th></tr><tr><td>Creatinine [Mass/volume] in Serum or Plasma</td><td>1.9</td><td>0.6 - 1.1</td><td>H</td><td>mg/dL</td></tr></table></div>"
        },
        "status": "final",
        "subject": {
          "reference": "urn:uuid:dcf744eb-23f9-4331-b8bb-13f54b02e44e",
          "display": "Meaghan Neary"
        },
        "effectiveDateTime": "2017-09-25T22:11:04Z",
        "specimen": {
          "reference": "urn:uuid:b9957bc4-56c2-41d7-a475-747954806e1c"
        }
      }
    },
    {
      "fullUrl": "urn:uuid:d45e79d0-3103-4726-97a6-2617a3a5351e",
      "resource": {
        "resourceType": "Observation",
        "id": "d45e79d0-3103-4726-97a6-2617a3a5351e",
        "meta": {
          "profile": [
            "http://hl7.eu/fhir/laboratory/StructureDefinition/Observation-resultslab-eu-lab"
          ]
        },
        "performer": [
          {
            "display": "The Central European Lab"
          }
        ],
        "category": [
          {
            "coding": [
              {
                "system": "http://terminology.hl7.org/CodeSystem/observation-category",
                "code": "laboratory"
              }
            ]
          }
        ],
        "code": {
          "coding": [
            {
              "code": "17861-6",
              "system": "http://loinc.org",
              "display": "Calcium [Mass/volume] in Serum or Plasma"
            }
          ],
          "text": "Calcium [Mass/volume] in Serum or Plasma"
        },
        "valueQuantity": {
          "system": "http://unitsofmeasure.org",
          "value": 9,
          "unit": "mg/dL",
          "code": "mg/dL"
        },
        "referenceRange": [
          {
            "low": {
              "value": 8.6,
              "code": "mg/dL",
              "system": "http://unitsofmeasure.org"
            }
          },
          {
            "high": {
              "value": 10.4,
              "code": "mg/dL",
              "system": "http://unitsofmeasure.org"
            }
          }
        ],
        "text": {
          "status": "generated",
          "div": "<div xmlns=\"http://www.w3.org/1999/xhtml\"><table class=\"hl7__eu__lab__report\"><tr><th>Test</th><th>26-Sep-2017</th><th>Reference&#xA0;Range</th><th>Unit</th></tr><tr><td>Calcium [Mass/volume] in Serum or Plasma</td><td>9.0</td><td>8.6 - 10.4</td><td></td><td>mg/dL</td></tr></table></div>"
        },
        "status": "final",
        "subject": {
          "reference": "urn:uuid:dcf744eb-23f9-4331-b8bb-13f54b02e44e",
          "display": "Meaghan Neary"
        },
        "effectiveDateTime": "2017-09-25T22:11:04Z",
        "specimen": {
          "reference": "urn:uuid:b9957bc4-56c2-41d7-a475-747954806e1c"
        }
      }
    },
    {
      "fullUrl": "urn:uuid:0a752a0d-7207-4de3-8c35-c80b1c08008d",
      "resource": {
        "resourceType": "Observation",
        "id": "0a752a0d-7207-4de3-8c35-c80b1c08008d",
        "meta": {
          "profile": [
            "http://hl7.eu/fhir/laboratory/StructureDefinition/Observation-resultslab-eu-lab"
          ]
        },
        "performer": [
          {
            "display": "The Central European Lab"
          }
        ],
        "category": [
          {
            "coding": [
              {
                "system": "http://terminology.hl7.org/CodeSystem/observation-category",
                "code": "laboratory"
              }
            ]
          }
        ],
        "code": {
          "coding": [
            {
              "code": "2951-2",
              "system": "http://loinc.org",
              "display": "Sodium [Moles/volume] in Serum or Plasma"
            }
          ],
          "text": "Sodium [Moles/volume] in Serum or Plasma"
        },
        "valueQuantity": {
          "system": "http://unitsofmeasure.org",
          "value": 137.1,
          "unit": "mmol/L",
          "code": "mmol/L"
        },
        "referenceRange": [
          {
            "low": {
              "value": 135,
              "code": "mmol/L",
              "system": "http://unitsofmeasure.org"
            }
          },
          {
            "high": {
              "value": 145,
              "code": "mmol/L",
              "system": "http://unitsofmeasure.org"
            }
          }
        ],
        "text": {
          "status": "generated",
          "div": "<div xmlns=\"http://www.w3.org/1999/xhtml\"><table class=\"hl7__eu__lab__report\"><tr><th>Test</th><th>26-Sep-2017</th><th>Reference&#xA0;Range</th><th>Unit</th></tr><tr><td>Sodium [Moles/volume] in Serum or Plasma</td><td>137.1</td><td>135 - 145</td><td></td><td>mmol/L</td></tr></table></div>"
        },
        "status": "final",
        "subject": {
          "reference": "urn:uuid:dcf744eb-23f9-4331-b8bb-13f54b02e44e",
          "display": "Meaghan Neary"
        },
        "effectiveDateTime": "2017-09-25T22:11:04Z",
        "specimen": {
          "reference": "urn:uuid:b9957bc4-56c2-41d7-a475-747954806e1c"
        }
      }
    },
    {
      "fullUrl": "urn:uuid:e656b43b-73fd-49a2-bbc7-276b45d088b4",
      "resource": {
        "resourceType": "Observation",
        "id": "e656b43b-73fd-49a2-bbc7-276b45d088b4",
        "meta": {
          "profile": [
            "http://hl7.eu/fhir/laboratory/StructureDefinition/Observation-resultslab-eu-lab"
          ]
        },
        "performer": [
          {
            "display": "The Central European Lab"
          }
        ],
        "category": [
          {
            "coding": [
              {
                "system": "http://terminology.hl7.org/CodeSystem/observation-category",
                "code": "laboratory"
              }
            ]
          }
        ],
        "code": {
          "coding": [
            {
              "code": "2823-3",
              "system": "http://loinc.org",
              "display": "Potassium [Moles/volume] in Serum or Plasma"
            }
          ],
          "text": "Potassium [Moles/volume] in Serum or Plasma"
        },
        "valueQuantity": {
          "system": "http://unitsofmeasure.org",
          "value": 4.6,
          "unit": "mmol/L",
          "code": "mmol/L"
        },
        "referenceRange": [
          {
            "low": {
              "value": 3.5,
              "code": "mmol/L",
              "system": "http://unitsofmeasure.org"
            }
          },
          {
            "high": {
              "value": 5.1,
              "code": "mmol/L",
              "system": "http://unitsofmeasure.org"
            }
          }
        ],
        "text": {
          "status": "generated",
          "div": "<div xmlns=\"http://www.w3.org/1999/xhtml\"><table class=\"hl7__eu__lab__report\"><tr><th>Test</th><th>26-Sep-2017</th><th>Reference&#xA0;Range</th><th>Unit</th></tr><tr><td>Potassium [Moles/volume] in Serum or Plasma</td><td>4.6</td><td>3.5 - 5.1</td><td></td><td>mmol/L</td></tr></table></div>"
        },
        "status": "final",
        "subject": {
          "reference": "urn:uuid:dcf744eb-23f9-4331-b8bb-13f54b02e44e",
          "display": "Meaghan Neary"
        },
        "effectiveDateTime": "2017-09-25T22:11:04Z",
        "specimen": {
          "reference": "urn:uuid:b9957bc4-56c2-41d7-a475-747954806e1c"
        }
      }
    },
    {
      "fullUrl": "urn:uuid:4b06b6a8-86dd-46b3-87f8-3e57059ea2a2",
      "resource": {
        "resourceType": "Observation",
        "id": "4b06b6a8-86dd-46b3-87f8-3e57059ea2a2",
        "meta": {
          "profile": [
            "http://hl7.eu/fhir/laboratory/StructureDefinition/Observation-resultslab-eu-lab"
          ]
        },
        "performer": [
          {
            "display": "The Central European Lab"
          }
        ],
        "category": [
          {
            "coding": [
              {
                "system": "http://terminology.hl7.org/CodeSystem/observation-category",
                "code": "laboratory"
              }
            ]
          }
        ],
        "code": {
          "coding": [
            {
              "code": "2075-0",
              "system": "http://loinc.org",
              "display": "Chloride [Moles/volume] in Serum or Plasma"
            }
          ],
          "text": "Chloride [Moles/volume] in Serum or Plasma"
        },
        "valueQuantity": {
          "system": "http://unitsofmeasure.org",
          "value": 105.2,
          "unit": "mmol/L",
          "code": "mmol/L"
        },
        "referenceRange": [
          {
            "low": {
              "value": 98,
              "code": "mmol/L",
              "system": "http://unitsofmeasure.org"
            }
          },
          {
            "high": {
              "value": 108,
              "code": "mmol/L",
              "system": "http://unitsofmeasure.org"
            }
          }
        ],
        "text": {
          "status": "generated",
          "div": "<div xmlns=\"http://www.w3.org/1999/xhtml\"><table class=\"hl7__eu__lab__report\"><tr><th>Test</th><th>26-Sep-2017</th><th>Reference&#xA0;Range</th><th>Unit</th></tr><tr><td>Chloride [Moles/volume] in Serum or Plasma</td><td>105.2</td><td>98 - 108</td><td></td><td>mmol/L</td></tr></table></div>"
        },
        "status": "final",
        "subject": {
          "reference": "urn:uuid:dcf744eb-23f9-4331-b8bb-13f54b02e44e",
          "display": "Meaghan Neary"
        },
        "effectiveDateTime": "2017-09-25T22:11:04Z",
        "specimen": {
          "reference": "urn:uuid:b9957bc4-56c2-41d7-a475-747954806e1c"
        }
      }
    },
    {
      "fullUrl": "urn:uuid:02ca9031-ccdb-431d-bbd8-5ed769c212b6",
      "resource": {
        "resourceType": "Observation",
        "id": "02ca9031-ccdb-431d-bbd8-5ed769c212b6",
        "meta": {
          "profile": [
            "http://hl7.eu/fhir/laboratory/StructureDefinition/Observation-resultslab-eu-lab"
          ]
        },
        "performer": [
          {
            "display": "The Central European Lab"
          }
        ],
        "category": [
          {
            "coding": [
              {
                "system": "http://terminology.hl7.org/CodeSystem/observation-category",
                "code": "laboratory"
              }
            ]
          }
        ],
        "code": {
          "coding": [
            {
              "code": "2028-9",
              "system": "http://loinc.org",
              "display": "Carbon dioxide, total [Moles/volume] in Serum or Plasma"
            }
          ],
          "text": "Carbon dioxide, total [Moles/volume] in Serum or Plasma"
        },
        "valueQuantity": {
          "system": "http://unitsofmeasure.org",
          "value": 21.8,
          "unit": "mmol/L",
          "code": "mmol/L"
        },
        "referenceRange": [
          {
            "low": {
              "value": 22,
              "code": "mmol/L",
              "system": "http://unitsofmeasure.org"
            }
          },
          {
            "high": {
              "value": 32,
              "code": "mmol/L",
              "system": "http://unitsofmeasure.org"
            }
          }
        ],
        "interpretation": [
          {
            "coding": [
              {
                "code": "L",
                "system": "http://terminology.hl7.org/CodeSystem/v3-ObservationInterpretation",
                "display": "Low"
              }
            ]
          }
        ],
        "text": {
          "status": "generated",
          "div": "<div xmlns=\"http://www.w3.org/1999/xhtml\"><table class=\"hl7__eu__lab__report\"><tr><th>Test</th><th>26-Sep-2017</th><th>Reference&#xA0;Range</th><th>Unit</th></tr><tr><td>Carbon dioxide, total [Moles/volume] in Serum or Plasma</td><td>21.8</td><td>22 - 32</td><td>L</td><td>mmol/L</td></tr></table></div>"
        },
        "status": "final",
        "subject": {
          "reference": "urn:uuid:dcf744eb-23f9-4331-b8bb-13f54b02e44e",
          "display": "Meaghan Neary"
        },
        "effectiveDateTime": "2017-09-25T22:11:04Z",
        "specimen": {
          "reference": "urn:uuid:b9957bc4-56c2-41d7-a475-747954806e1c"
        }
      }
    },
    {
      "fullUrl": "urn:uuid:64646630-38bd-46a2-908c-04699b4c4f5c",
      "resource": {
        "resourceType": "Observation",
        "id": "64646630-38bd-46a2-908c-04699b4c4f5c",
        "meta": {
          "profile": [
            "http://hl7.eu/fhir/laboratory/StructureDefinition/Observation-resultslab-eu-lab"
          ]
        },
        "performer": [
          {
            "display": "The Central European Lab"
          }
        ],
        "category": [
          {
            "coding": [
              {
                "system": "http://terminology.hl7.org/CodeSystem/observation-category",
                "code": "laboratory"
              }
            ]
          }
        ],
        "code": {
          "coding": [
            {
              "code": "5767-9",
              "system": "http://loinc.org",
              "display": "Appearance of Urine"
            }
          ],
          "text": "Appearance of Urine"
        },
        "text": {
          "status": "generated",
          "div": "<div xmlns=\"http://www.w3.org/1999/xhtml\"><table class=\"hl7__eu__lab__report\"><tr><th>Test</th><th>26-Sep-2017</th><th>Reference&#xA0;Range</th><th>Unit</th></tr><tr><td>Appearance of Urine</td></tr></table></div>"
        },
        "status": "final",
        "subject": {
          "reference": "urn:uuid:dcf744eb-23f9-4331-b8bb-13f54b02e44e",
          "display": "Meaghan Neary"
        },
        "effectiveDateTime": "2017-09-25T22:11:04Z",
        "specimen": {
          "reference": "urn:uuid:e9329fa9-d89c-4d04-be14-f56e1512ef6a"
        }
      }
    },
    {
      "fullUrl": "urn:uuid:83b0c7f5-fc99-424e-9872-1acaf5866021",
      "resource": {
        "resourceType": "Observation",
        "id": "83b0c7f5-fc99-424e-9872-1acaf5866021",
        "meta": {
          "profile": [
            "http://hl7.eu/fhir/laboratory/StructureDefinition/Observation-resultslab-eu-lab"
          ]
        },
        "performer": [
          {
            "display": "The Central European Lab"
          }
        ],
        "category": [
          {
            "coding": [
              {
                "system": "http://terminology.hl7.org/CodeSystem/observation-category",
                "code": "laboratory"
              }
            ]
          }
        ],
        "code": {
          "coding": [
            {
              "code": "34533-0",
              "system": "http://loinc.org",
              "display": "Odor of Urine"
            }
          ],
          "text": "Odor of Urine"
        },
        "text": {
          "status": "generated",
          "div": "<div xmlns=\"http://www.w3.org/1999/xhtml\"><table class=\"hl7__eu__lab__report\"><tr><th>Test</th><th>26-Sep-2017</th><th>Reference&#xA0;Range</th><th>Unit</th></tr><tr><td>Odor of Urine</td></tr></table></div>"
        },
        "status": "final",
        "subject": {
          "reference": "urn:uuid:dcf744eb-23f9-4331-b8bb-13f54b02e44e",
          "display": "Meaghan Neary"
        },
        "effectiveDateTime": "2017-09-25T22:11:04Z",
        "specimen": {
          "reference": "urn:uuid:e9329fa9-d89c-4d04-be14-f56e1512ef6a"
        }
      }
    },
    {
      "fullUrl": "urn:uuid:baf5190f-2409-4eb0-a457-dbd80bd57bcc",
      "resource": {
        "resourceType": "Observation",
        "id": "baf5190f-2409-4eb0-a457-dbd80bd57bcc",
        "meta": {
          "profile": [
            "http://hl7.eu/fhir/laboratory/StructureDefinition/Observation-resultslab-eu-lab"
          ]
        },
        "performer": [
          {
            "display": "The Central European Lab"
          }
        ],
        "category": [
          {
            "coding": [
              {
                "system": "http://terminology.hl7.org/CodeSystem/observation-category",
                "code": "laboratory"
              }
            ]
          }
        ],
        "code": {
          "coding": [
            {
              "code": "32167-9",
              "system": "http://loinc.org",
              "display": "Clarity of Urine"
            }
          ],
          "text": "Clarity of Urine"
        },
        "text": {
          "status": "generated",
          "div": "<div xmlns=\"http://www.w3.org/1999/xhtml\"><table class=\"hl7__eu__lab__report\"><tr><th>Test</th><th>26-Sep-2017</th><th>Reference&#xA0;Range</th><th>Unit</th></tr><tr><td>Clarity of Urine</td></tr></table></div>"
        },
        "status": "final",
        "subject": {
          "reference": "urn:uuid:dcf744eb-23f9-4331-b8bb-13f54b02e44e",
          "display": "Meaghan Neary"
        },
        "effectiveDateTime": "2017-09-25T22:11:04Z",
        "specimen": {
          "reference": "urn:uuid:e9329fa9-d89c-4d04-be14-f56e1512ef6a"
        }
      }
    },
    {
      "fullUrl": "urn:uuid:0d3e1cec-cbea-4cd4-a145-39101ffa8060",
      "resource": {
        "resourceType": "Observation",
        "id": "0d3e1cec-cbea-4cd4-a145-39101ffa8060",
        "meta": {
          "profile": [
            "http://hl7.eu/fhir/laboratory/StructureDefinition/Observation-resultslab-eu-lab"
          ]
        },
        "performer": [
          {
            "display": "The Central European Lab"
          }
        ],
        "category": [
          {
            "coding": [
              {
                "system": "http://terminology.hl7.org/CodeSystem/observation-category",
                "code": "laboratory"
              }
            ]
          }
        ],
        "code": {
          "coding": [
            {
              "code": "5778-6",
              "system": "http://loinc.org",
              "display": "Color of Urine"
            }
          ],
          "text": "Color of Urine"
        },
        "text": {
          "status": "generated",
          "div": "<div xmlns=\"http://www.w3.org/1999/xhtml\"><table class=\"hl7__eu__lab__report\"><tr><th>Test</th><th>26-Sep-2017</th><th>Reference&#xA0;Range</th><th>Unit</th></tr><tr><td>Color of Urine</td></tr></table></div>"
        },
        "status": "final",
        "subject": {
          "reference": "urn:uuid:dcf744eb-23f9-4331-b8bb-13f54b02e44e",
          "display": "Meaghan Neary"
        },
        "effectiveDateTime": "2017-09-25T22:11:04Z",
        "specimen": {
          "reference": "urn:uuid:e9329fa9-d89c-4d04-be14-f56e1512ef6a"
        }
      }
    },
    {
      "fullUrl": "urn:uuid:1b651952-5a5d-4cd4-8ed1-80705bae30b7",
      "resource": {
        "resourceType": "Observation",
        "id": "1b651952-5a5d-4cd4-8ed1-80705bae30b7",
        "meta": {
          "profile": [
            "http://hl7.eu/fhir/laboratory/StructureDefinition/Observation-resultslab-eu-lab"
          ]
        },
        "performer": [
          {
            "display": "The Central European Lab"
          }
        ],
        "category": [
          {
            "coding": [
              {
                "system": "http://terminology.hl7.org/CodeSystem/observation-category",
                "code": "laboratory"
              }
            ]
          }
        ],
        "code": {
          "coding": [
            {
              "code": "5792-7",
              "system": "http://loinc.org",
              "display": "Glucose [Mass/volume] in Urine by Test strip"
            }
          ],
          "text": "Glucose [Mass/volume] in Urine by Test strip"
        },
        "valueQuantity": {
          "system": "http://unitsofmeasure.org",
          "value": 2.5,
          "unit": "mg/dL",
          "code": "mg/dL"
        },
        "referenceRange": [
          {
            "low": {
              "value": 0.8,
              "code": "mg/dL",
              "system": "http://unitsofmeasure.org"
            }
          },
          {
            "high": {
              "value": 0,
              "code": "mg/dL",
              "system": "http://unitsofmeasure.org"
            }
          }
        ],
        "interpretation": [
          {
            "coding": [
              {
                "code": "H",
                "system": "http://terminology.hl7.org/CodeSystem/v3-ObservationInterpretation",
                "display": "High"
              }
            ]
          }
        ],
        "text": {
          "status": "generated",
          "div": "<div xmlns=\"http://www.w3.org/1999/xhtml\"><table class=\"hl7__eu__lab__report\"><tr><th>Test</th><th>26-Sep-2017</th><th>Reference&#xA0;Range</th><th>Unit</th></tr><tr><td>Glucose [Mass/volume] in Urine by Test strip</td><td>2.5</td><td>0.8 - 0</td><td>H</td><td>mg/dL</td></tr></table></div>"
        },
        "status": "final",
        "subject": {
          "reference": "urn:uuid:dcf744eb-23f9-4331-b8bb-13f54b02e44e",
          "display": "Meaghan Neary"
        },
        "effectiveDateTime": "2017-09-25T22:11:04Z",
        "specimen": {
          "reference": "urn:uuid:e9329fa9-d89c-4d04-be14-f56e1512ef6a"
        }
      }
    },
    {
      "fullUrl": "urn:uuid:02caf1cb-1e80-4e43-b2f6-843a279f98cc",
      "resource": {
        "resourceType": "Observation",
        "id": "02caf1cb-1e80-4e43-b2f6-843a279f98cc",
        "meta": {
          "profile": [
            "http://hl7.eu/fhir/laboratory/StructureDefinition/Observation-resultslab-eu-lab"
          ]
        },
        "performer": [
          {
            "display": "The Central European Lab"
          }
        ],
        "category": [
          {
            "coding": [
              {
                "system": "http://terminology.hl7.org/CodeSystem/observation-category",
                "code": "laboratory"
              }
            ]
          }
        ],
        "code": {
          "coding": [
            {
              "code": "25428-4",
              "system": "http://loinc.org",
              "display": "Glucose [Presence] in Urine by Test strip"
            }
          ],
          "text": "Glucose [Presence] in Urine by Test strip"
        },
        "text": {
          "status": "generated",
          "div": "<div xmlns=\"http://www.w3.org/1999/xhtml\"><table class=\"hl7__eu__lab__report\"><tr><th>Test</th><th>26-Sep-2017</th><th>Reference&#xA0;Range</th><th>Unit</th></tr><tr><td>Glucose [Presence] in Urine by Test strip</td></tr></table></div>"
        },
        "status": "final",
        "subject": {
          "reference": "urn:uuid:dcf744eb-23f9-4331-b8bb-13f54b02e44e",
          "display": "Meaghan Neary"
        },
        "effectiveDateTime": "2017-09-25T22:11:04Z",
        "specimen": {
          "reference": "urn:uuid:e9329fa9-d89c-4d04-be14-f56e1512ef6a"
        }
      }
    },
    {
      "fullUrl": "urn:uuid:a3b001ef-4f2e-42bd-9b92-704120111de6",
      "resource": {
        "resourceType": "Observation",
        "id": "a3b001ef-4f2e-42bd-9b92-704120111de6",
        "meta": {
          "profile": [
            "http://hl7.eu/fhir/laboratory/StructureDefinition/Observation-resultslab-eu-lab"
          ]
        },
        "performer": [
          {
            "display": "The Central European Lab"
          }
        ],
        "category": [
          {
            "coding": [
              {
                "system": "http://terminology.hl7.org/CodeSystem/observation-category",
                "code": "laboratory"
              }
            ]
          }
        ],
        "code": {
          "coding": [
            {
              "code": "20505-4",
              "system": "http://loinc.org",
              "display": "Bilirubin.total [Mass/volume] in Urine by Test strip"
            }
          ],
          "text": "Bilirubin.total [Mass/volume] in Urine by Test strip"
        },
        "valueQuantity": {
          "system": "http://unitsofmeasure.org",
          "value": 1.3,
          "unit": "mg/dL",
          "code": "mg/dL"
        },
        "referenceRange": [
          {
            "low": {
              "value": 0,
              "code": "mg/dL",
              "system": "http://unitsofmeasure.org"
            }
          },
          {
            "high": {
              "value": 1,
              "code": "mg/dL",
              "system": "http://unitsofmeasure.org"
            }
          }
        ],
        "interpretation": [
          {
            "coding": [
              {
                "code": "H",
                "system": "http://terminology.hl7.org/CodeSystem/v3-ObservationInterpretation",
                "display": "High"
              }
            ]
          }
        ],
        "text": {
          "status": "generated",
          "div": "<div xmlns=\"http://www.w3.org/1999/xhtml\"><table class=\"hl7__eu__lab__report\"><tr><th>Test</th><th>26-Sep-2017</th><th>Reference&#xA0;Range</th><th>Unit</th></tr><tr><td>Bilirubin.total [Mass/volume] in Urine by Test strip</td><td>1.3</td><td>0 - 1</td><td>H</td><td>mg/dL</td></tr></table></div>"
        },
        "status": "final",
        "subject": {
          "reference": "urn:uuid:dcf744eb-23f9-4331-b8bb-13f54b02e44e",
          "display": "Meaghan Neary"
        },
        "effectiveDateTime": "2017-09-25T22:11:04Z",
        "specimen": {
          "reference": "urn:uuid:e9329fa9-d89c-4d04-be14-f56e1512ef6a"
        }
      }
    },
    {
      "fullUrl": "urn:uuid:fc0fa247-1d64-47a7-a0f0-e399e99ad97e",
      "resource": {
        "resourceType": "Observation",
        "id": "fc0fa247-1d64-47a7-a0f0-e399e99ad97e",
        "meta": {
          "profile": [
            "http://hl7.eu/fhir/laboratory/StructureDefinition/Observation-resultslab-eu-lab"
          ]
        },
        "performer": [
          {
            "display": "The Central European Lab"
          }
        ],
        "category": [
          {
            "coding": [
              {
                "system": "http://terminology.hl7.org/CodeSystem/observation-category",
                "code": "laboratory"
              }
            ]
          }
        ],
        "code": {
          "coding": [
            {
              "code": "5770-3",
              "system": "http://loinc.org",
              "display": "Bilirubin.total [Presence] in Urine by Test strip"
            }
          ],
          "text": "Bilirubin.total [Presence] in Urine by Test strip"
        },
        "text": {
          "status": "generated",
          "div": "<div xmlns=\"http://www.w3.org/1999/xhtml\"><table class=\"hl7__eu__lab__report\"><tr><th>Test</th><th>26-Sep-2017</th><th>Reference&#xA0;Range</th><th>Unit</th></tr><tr><td>Bilirubin.total [Presence] in Urine by Test strip</td></tr></table></div>"
        },
        "status": "final",
        "subject": {
          "reference": "urn:uuid:dcf744eb-23f9-4331-b8bb-13f54b02e44e",
          "display": "Meaghan Neary"
        },
        "effectiveDateTime": "2017-09-25T22:11:04Z",
        "specimen": {
          "reference": "urn:uuid:e9329fa9-d89c-4d04-be14-f56e1512ef6a"
        }
      }
    },
    {
      "fullUrl": "urn:uuid:3f35dfb5-a687-4f4b-80bb-302e76a7be15",
      "resource": {
        "resourceType": "Observation",
        "id": "3f35dfb5-a687-4f4b-80bb-302e76a7be15",
        "meta": {
          "profile": [
            "http://hl7.eu/fhir/laboratory/StructureDefinition/Observation-resultslab-eu-lab"
          ]
        },
        "performer": [
          {
            "display": "The Central European Lab"
          }
        ],
        "category": [
          {
            "coding": [
              {
                "system": "http://terminology.hl7.org/CodeSystem/observation-category",
                "code": "laboratory"
              }
            ]
          }
        ],
        "code": {
          "coding": [
            {
              "code": "5797-6",
              "system": "http://loinc.org",
              "display": "Ketones [Mass/volume] in Urine by Test strip"
            }
          ],
          "text": "Ketones [Mass/volume] in Urine by Test strip"
        },
        "valueQuantity": {
          "system": "http://unitsofmeasure.org",
          "value": 17.2,
          "unit": "mg/dL",
          "code": "mg/dL"
        },
        "referenceRange": [
          {
            "low": {
              "value": 0,
              "code": "mg/dL",
              "system": "http://unitsofmeasure.org"
            }
          },
          {
            "high": {
              "value": 4,
              "code": "mg/dL",
              "system": "http://unitsofmeasure.org"
            }
          }
        ],
        "interpretation": [
          {
            "coding": [
              {
                "code": "H",
                "system": "http://terminology.hl7.org/CodeSystem/v3-ObservationInterpretation",
                "display": "High"
              }
            ]
          }
        ],
        "text": {
          "status": "generated",
          "div": "<div xmlns=\"http://www.w3.org/1999/xhtml\"><table class=\"hl7__eu__lab__report\"><tr><th>Test</th><th>26-Sep-2017</th><th>Reference&#xA0;Range</th><th>Unit</th></tr><tr><td>Ketones [Mass/volume] in Urine by Test strip</td><td>17.2</td><td>0 - 4</td><td>H</td><td>mg/dL</td></tr></table></div>"
        },
        "status": "final",
        "subject": {
          "reference": "urn:uuid:dcf744eb-23f9-4331-b8bb-13f54b02e44e",
          "display": "Meaghan Neary"
        },
        "effectiveDateTime": "2017-09-25T22:11:04Z",
        "specimen": {
          "reference": "urn:uuid:e9329fa9-d89c-4d04-be14-f56e1512ef6a"
        }
      }
    },
    {
      "fullUrl": "urn:uuid:6d6ca4f4-df4e-4139-8d18-9e1e042881d5",
      "resource": {
        "resourceType": "Observation",
        "id": "6d6ca4f4-df4e-4139-8d18-9e1e042881d5",
        "meta": {
          "profile": [
            "http://hl7.eu/fhir/laboratory/StructureDefinition/Observation-resultslab-eu-lab"
          ]
        },
        "performer": [
          {
            "display": "The Central European Lab"
          }
        ],
        "category": [
          {
            "coding": [
              {
                "system": "http://terminology.hl7.org/CodeSystem/observation-category",
                "code": "laboratory"
              }
            ]
          }
        ],
        "code": {
          "coding": [
            {
              "code": "2514-8",
              "system": "http://loinc.org",
              "display": "Ketones [Presence] in Urine by Test strip"
            }
          ],
          "text": "Ketones [Presence] in Urine by Test strip"
        },
        "text": {
          "status": "generated",
          "div": "<div xmlns=\"http://www.w3.org/1999/xhtml\"><table class=\"hl7__eu__lab__report\"><tr><th>Test</th><th>26-Sep-2017</th><th>Reference&#xA0;Range</th><th>Unit</th></tr><tr><td>Ketones [Presence] in Urine by Test strip</td></tr></table></div>"
        },
        "status": "final",
        "subject": {
          "reference": "urn:uuid:dcf744eb-23f9-4331-b8bb-13f54b02e44e",
          "display": "Meaghan Neary"
        },
        "effectiveDateTime": "2017-09-25T22:11:04Z",
        "specimen": {
          "reference": "urn:uuid:e9329fa9-d89c-4d04-be14-f56e1512ef6a"
        }
      }
    },
    {
      "fullUrl": "urn:uuid:fae37089-9db9-42ec-affa-c12c3da505bc",
      "resource": {
        "resourceType": "Observation",
        "id": "fae37089-9db9-42ec-affa-c12c3da505bc",
        "meta": {
          "profile": [
            "http://hl7.eu/fhir/laboratory/StructureDefinition/Observation-resultslab-eu-lab"
          ]
        },
        "performer": [
          {
            "display": "The Central European Lab"
          }
        ],
        "category": [
          {
            "coding": [
              {
                "system": "http://terminology.hl7.org/CodeSystem/observation-category",
                "code": "laboratory"
              }
            ]
          }
        ],
        "code": {
          "coding": [
            {
              "code": "5811-5",
              "system": "http://loinc.org",
              "display": "Specific gravity of Urine by Test strip"
            }
          ],
          "text": "Specific gravity of Urine by Test strip"
        },
        "valueQuantity": {
          "system": "http://unitsofmeasure.org",
          "value": 1,
          "unit": "{nominal}",
          "code": "{nominal}"
        },
        "referenceRange": [
          {
            "low": {
              "value": 1.005,
              "code": "g/mL",
              "system": "http://unitsofmeasure.org"
            }
          },
          {
            "high": {
              "value": 1.03,
              "code": "g/mL",
              "system": "http://unitsofmeasure.org"
            }
          }
        ],
        "interpretation": [
          {
            "coding": [
              {
                "code": "L",
                "system": "http://terminology.hl7.org/CodeSystem/v3-ObservationInterpretation",
                "display": "Low"
              }
            ]
          }
        ],
        "text": {
          "status": "generated",
          "div": "<div xmlns=\"http://www.w3.org/1999/xhtml\"><table class=\"hl7__eu__lab__report\"><tr><th>Test</th><th>26-Sep-2017</th><th>Reference&#xA0;Range</th><th>Unit</th></tr><tr><td>Specific gravity of Urine by Test strip</td><td>1.0</td><td>1.005 - 1.03</td><td>L</td><td>{nominal}</td></tr></table></div>"
        },
        "status": "final",
        "subject": {
          "reference": "urn:uuid:dcf744eb-23f9-4331-b8bb-13f54b02e44e",
          "display": "Meaghan Neary"
        },
        "effectiveDateTime": "2017-09-25T22:11:04Z",
        "specimen": {
          "reference": "urn:uuid:e9329fa9-d89c-4d04-be14-f56e1512ef6a"
        }
      }
    },
    {
      "fullUrl": "urn:uuid:b229f1b2-821f-4224-9270-c83368e5cc9c",
      "resource": {
        "resourceType": "Observation",
        "id": "b229f1b2-821f-4224-9270-c83368e5cc9c",
        "meta": {
          "profile": [
            "http://hl7.eu/fhir/laboratory/StructureDefinition/Observation-resultslab-eu-lab"
          ]
        },
        "performer": [
          {
            "display": "The Central European Lab"
          }
        ],
        "category": [
          {
            "coding": [
              {
                "system": "http://terminology.hl7.org/CodeSystem/observation-category",
                "code": "laboratory"
              }
            ]
          }
        ],
        "code": {
          "coding": [
            {
              "code": "5803-2",
              "system": "http://loinc.org",
              "display": "pH of Urine by Test strip"
            }
          ],
          "text": "pH of Urine by Test strip"
        },
        "valueQuantity": {
          "system": "http://unitsofmeasure.org",
          "value": 6.1,
          "unit": "pH",
          "code": "pH"
        },
        "referenceRange": [
          {
            "low": {
              "value": 4.6,
              "code": "pH",
              "system": "http://unitsofmeasure.org"
            }
          },
          {
            "high": {
              "value": 7,
              "code": "pH",
              "system": "http://unitsofmeasure.org"
            }
          }
        ],
        "text": {
          "status": "generated",
          "div": "<div xmlns=\"http://www.w3.org/1999/xhtml\"><table class=\"hl7__eu__lab__report\"><tr><th>Test</th><th>26-Sep-2017</th><th>Reference&#xA0;Range</th><th>Unit</th></tr><tr><td>pH of Urine by Test strip</td><td>6.1</td><td>4.6 - 7</td><td></td><td>pH</td></tr></table></div>"
        },
        "status": "final",
        "subject": {
          "reference": "urn:uuid:dcf744eb-23f9-4331-b8bb-13f54b02e44e",
          "display": "Meaghan Neary"
        },
        "effectiveDateTime": "2017-09-25T22:11:04Z",
        "specimen": {
          "reference": "urn:uuid:e9329fa9-d89c-4d04-be14-f56e1512ef6a"
        }
      }
    },
    {
      "fullUrl": "urn:uuid:647925a8-8077-4504-9995-f227d9c67b3a",
      "resource": {
        "resourceType": "Observation",
        "id": "647925a8-8077-4504-9995-f227d9c67b3a",
        "meta": {
          "profile": [
            "http://hl7.eu/fhir/laboratory/StructureDefinition/Observation-resultslab-eu-lab"
          ]
        },
        "performer": [
          {
            "display": "The Central European Lab"
          }
        ],
        "category": [
          {
            "coding": [
              {
                "system": "http://terminology.hl7.org/CodeSystem/observation-category",
                "code": "laboratory"
              }
            ]
          }
        ],
        "code": {
          "coding": [
            {
              "code": "5804-0",
              "system": "http://loinc.org",
              "display": "Protein [Mass/volume] in Urine by Test strip"
            }
          ],
          "text": "Protein [Mass/volume] in Urine by Test strip"
        },
        "valueQuantity": {
          "system": "http://unitsofmeasure.org",
          "value": 214.4,
          "unit": "mg/dL",
          "code": "mg/dL"
        },
        "referenceRange": [
          {
            "low": {
              "value": 0,
              "code": "mg/dL",
              "system": "http://unitsofmeasure.org"
            }
          },
          {
            "high": {
              "value": 14,
              "code": "mg/dL",
              "system": "http://unitsofmeasure.org"
            }
          }
        ],
        "interpretation": [
          {
            "coding": [
              {
                "code": "H",
                "system": "http://terminology.hl7.org/CodeSystem/v3-ObservationInterpretation",
                "display": "High"
              }
            ]
          }
        ],
        "text": {
          "status": "generated",
          "div": "<div xmlns=\"http://www.w3.org/1999/xhtml\"><table class=\"hl7__eu__lab__report\"><tr><th>Test</th><th>26-Sep-2017</th><th>Reference&#xA0;Range</th><th>Unit</th></tr><tr><td>Protein [Mass/volume] in Urine by Test strip</td><td>214.4</td><td>0 - 14</td><td>H</td><td>mg/dL</td></tr></table></div>"
        },
        "status": "final",
        "subject": {
          "reference": "urn:uuid:dcf744eb-23f9-4331-b8bb-13f54b02e44e",
          "display": "Meaghan Neary"
        },
        "effectiveDateTime": "2017-09-25T22:11:04Z",
        "specimen": {
          "reference": "urn:uuid:e9329fa9-d89c-4d04-be14-f56e1512ef6a"
        }
      }
    },
    {
      "fullUrl": "urn:uuid:3d2b6c09-a757-4f5c-8595-2be5db578581",
      "resource": {
        "resourceType": "Observation",
        "id": "3d2b6c09-a757-4f5c-8595-2be5db578581",
        "meta": {
          "profile": [
            "http://hl7.eu/fhir/laboratory/StructureDefinition/Observation-resultslab-eu-lab"
          ]
        },
        "performer": [
          {
            "display": "The Central European Lab"
          }
        ],
        "category": [
          {
            "coding": [
              {
                "system": "http://terminology.hl7.org/CodeSystem/observation-category",
                "code": "laboratory"
              }
            ]
          }
        ],
        "code": {
          "coding": [
            {
              "code": "20454-5",
              "system": "http://loinc.org",
              "display": "Protein [Presence] in Urine by Test strip"
            }
          ],
          "text": "Protein [Presence] in Urine by Test strip"
        },
        "text": {
          "status": "generated",
          "div": "<div xmlns=\"http://www.w3.org/1999/xhtml\"><table class=\"hl7__eu__lab__report\"><tr><th>Test</th><th>26-Sep-2017</th><th>Reference&#xA0;Range</th><th>Unit</th></tr><tr><td>Protein [Presence] in Urine by Test strip</td></tr></table></div>"
        },
        "status": "final",
        "subject": {
          "reference": "urn:uuid:dcf744eb-23f9-4331-b8bb-13f54b02e44e",
          "display": "Meaghan Neary"
        },
        "effectiveDateTime": "2017-09-25T22:11:04Z",
        "specimen": {
          "reference": "urn:uuid:e9329fa9-d89c-4d04-be14-f56e1512ef6a"
        }
      }
    },
    {
      "fullUrl": "urn:uuid:f1a0d70a-b0c6-4167-a087-d81c5e6ce065",
      "resource": {
        "resourceType": "Observation",
        "id": "f1a0d70a-b0c6-4167-a087-d81c5e6ce065",
        "meta": {
          "profile": [
            "http://hl7.eu/fhir/laboratory/StructureDefinition/Observation-resultslab-eu-lab"
          ]
        },
        "performer": [
          {
            "display": "The Central European Lab"
          }
        ],
        "category": [
          {
            "coding": [
              {
                "system": "http://terminology.hl7.org/CodeSystem/observation-category",
                "code": "laboratory"
              }
            ]
          }
        ],
        "code": {
          "coding": [
            {
              "code": "5802-4",
              "system": "http://loinc.org",
              "display": "Nitrite [Presence] in Urine by Test strip"
            }
          ],
          "text": "Nitrite [Presence] in Urine by Test strip"
        },
        "text": {
          "status": "generated",
          "div": "<div xmlns=\"http://www.w3.org/1999/xhtml\"><table class=\"hl7__eu__lab__report\"><tr><th>Test</th><th>26-Sep-2017</th><th>Reference&#xA0;Range</th><th>Unit</th></tr><tr><td>Nitrite [Presence] in Urine by Test strip</td></tr></table></div>"
        },
        "status": "final",
        "subject": {
          "reference": "urn:uuid:dcf744eb-23f9-4331-b8bb-13f54b02e44e",
          "display": "Meaghan Neary"
        },
        "effectiveDateTime": "2017-09-25T22:11:04Z",
        "specimen": {
          "reference": "urn:uuid:e9329fa9-d89c-4d04-be14-f56e1512ef6a"
        }
      }
    },
    {
      "fullUrl": "urn:uuid:abf9d56b-bc8d-429c-8ef3-9a9cb2987a78",
      "resource": {
        "resourceType": "Observation",
        "id": "abf9d56b-bc8d-429c-8ef3-9a9cb2987a78",
        "meta": {
          "profile": [
            "http://hl7.eu/fhir/laboratory/StructureDefinition/Observation-resultslab-eu-lab"
          ]
        },
        "performer": [
          {
            "display": "The Central European Lab"
          }
        ],
        "category": [
          {
            "coding": [
              {
                "system": "http://terminology.hl7.org/CodeSystem/observation-category",
                "code": "laboratory"
              }
            ]
          }
        ],
        "code": {
          "coding": [
            {
              "code": "5794-3",
              "system": "http://loinc.org",
              "display": "Hemoglobin [Presence] in Urine by Test strip"
            }
          ],
          "text": "Hemoglobin [Presence] in Urine by Test strip"
        },
        "text": {
          "status": "generated",
          "div": "<div xmlns=\"http://www.w3.org/1999/xhtml\"><table class=\"hl7__eu__lab__report\"><tr><th>Test</th><th>26-Sep-2017</th><th>Reference&#xA0;Range</th><th>Unit</th></tr><tr><td>Hemoglobin [Presence] in Urine by Test strip</td></tr></table></div>"
        },
        "status": "final",
        "subject": {
          "reference": "urn:uuid:dcf744eb-23f9-4331-b8bb-13f54b02e44e",
          "display": "Meaghan Neary"
        },
        "effectiveDateTime": "2017-09-25T22:11:04Z",
        "specimen": {
          "reference": "urn:uuid:e9329fa9-d89c-4d04-be14-f56e1512ef6a"
        }
      }
    },
    {
      "fullUrl": "urn:uuid:d0d81a35-fafa-441a-8c89-862a9d75c572",
      "resource": {
        "resourceType": "Observation",
        "id": "d0d81a35-fafa-441a-8c89-862a9d75c572",
        "meta": {
          "profile": [
            "http://hl7.eu/fhir/laboratory/StructureDefinition/Observation-resultslab-eu-lab"
          ]
        },
        "performer": [
          {
            "display": "The Central European Lab"
          }
        ],
        "category": [
          {
            "coding": [
              {
                "system": "http://terminology.hl7.org/CodeSystem/observation-category",
                "code": "laboratory"
              }
            ]
          }
        ],
        "code": {
          "coding": [
            {
              "code": "5799-2",
              "system": "http://loinc.org",
              "display": "Leukocyte esterase [Presence] in Urine by Test strip"
            }
          ],
          "text": "Leukocyte esterase [Presence] in Urine by Test strip"
        },
        "text": {
          "status": "generated",
          "div": "<div xmlns=\"http://www.w3.org/1999/xhtml\"><table class=\"hl7__eu__lab__report\"><tr><th>Test</th><th>26-Sep-2017</th><th>Reference&#xA0;Range</th><th>Unit</th></tr><tr><td>Leukocyte esterase [Presence] in Urine by Test strip</td></tr></table></div>"
        },
        "status": "final",
        "subject": {
          "reference": "urn:uuid:dcf744eb-23f9-4331-b8bb-13f54b02e44e",
          "display": "Meaghan Neary"
        },
        "effectiveDateTime": "2017-09-25T22:11:04Z",
        "specimen": {
          "reference": "urn:uuid:e9329fa9-d89c-4d04-be14-f56e1512ef6a"
        }
      }
    },
    {
      "fullUrl": "urn:uuid:0d082f48-5f33-4c7b-a906-1a70dd449584",
      "resource": {
        "resourceType": "Observation",
        "id": "0d082f48-5f33-4c7b-a906-1a70dd449584",
        "meta": {
          "profile": [
            "http://hl7.eu/fhir/laboratory/StructureDefinition/Observation-resultslab-eu-lab"
          ]
        },
        "performer": [
          {
            "display": "The Central European Lab"
          }
        ],
        "category": [
          {
            "coding": [
              {
                "system": "http://terminology.hl7.org/CodeSystem/observation-category",
                "code": "laboratory"
              }
            ]
          }
        ],
        "code": {
          "coding": [
            {
              "code": "4548-4",
              "system": "http://loinc.org",
              "display": "Hemoglobin A1c/Hemoglobin.total in Blood"
            }
          ],
          "text": "Hemoglobin A1c/Hemoglobin.total in Blood"
        },
        "valueQuantity": {
          "system": "http://unitsofmeasure.org",
          "value": 3.2,
          "unit": "%",
          "code": "%"
        },
        "referenceRange": [
          {
            "low": {
              "value": 4,
              "code": "%",
              "system": "http://unitsofmeasure.org"
            }
          },
          {
            "high": {
              "value": 6.4,
              "code": "%",
              "system": "http://unitsofmeasure.org"
            }
          }
        ],
        "interpretation": [
          {
            "coding": [
              {
                "code": "L",
                "system": "http://terminology.hl7.org/CodeSystem/v3-ObservationInterpretation",
                "display": "Low"
              }
            ]
          }
        ],
        "text": {
          "status": "generated",
          "div": "<div xmlns=\"http://www.w3.org/1999/xhtml\"><table class=\"hl7__eu__lab__report\"><tr><th>Test</th><th>26-Sep-2017</th><th>Reference&#xA0;Range</th><th>Unit</th></tr><tr><td>Hemoglobin A1c/Hemoglobin.total in Blood</td><td>3.2</td><td>4 - 6.4</td><td>L</td><td>%</td></tr></table></div>"
        },
        "status": "final",
        "subject": {
          "reference": "urn:uuid:dcf744eb-23f9-4331-b8bb-13f54b02e44e",
          "display": "Meaghan Neary"
        },
        "effectiveDateTime": "2017-09-25T22:11:04Z",
        "specimen": {
          "reference": "urn:uuid:6d3c0bdf-bfa3-423b-9e29-743eb5c9f6b5"
        }
      }
    },
    {
      "fullUrl": "urn:uuid:a97a688a-f9f6-453f-b1ca-cb6f84fc2a1a",
      "resource": {
        "resourceType": "Device",
        "id": "a97a688a-f9f6-453f-b1ca-cb6f84fc2a1a",
        "deviceName": [
          {
            "name": "SYNDERAI Synthetic Generator",
            "type": "manufacturer-name"
          }
        ],
        "version": [
          {
            "value": "5.0"
          }
        ],
        "text": {
          "status": "generated",
          "div": "<div xmlns=\"http://www.w3.org/1999/xhtml\">SYNDERAI Synthetic Generator v5.0</div>"
        },
        "status": "active\"",
        "distinctIdentifier": "synderai-generator-50",
        "manufacturer": "SYNDERAI Project"
      }
    },
    {
      "fullUrl": "urn:uuid:0e0f4fe6-bdf5-45a3-b4bd-3df606e60161",
      "resource": {
        "resourceType": "Provenance",
        "id": "0e0f4fe6-bdf5-45a3-b4bd-3df606e60161",
        "target": [
          {
            "reference": "Patient/dcf744eb-23f9-4331-b8bb-13f54b02e44e"
          },
          {
            "reference": "Bundle/6c6e4ec8-3702-4660-9838-6ad3b849833e"
          },
          {
            "reference": "Composition/d09cca9e-22dd-4ef5-bcfe-f457acbef3f3"
          },
          {
            "reference": "PractitionerRole/9698ed8e-d71c-47f7-a086-a0b6e1f81cfe"
          },
          {
            "reference": "Practitioner/9cdeae56-37f6-488c-865e-f83e0b576ac7"
          },
          {
            "reference": "PractitionerRole/c2a5aa38-8a53-48cc-b1da-40ee030d3b11"
          },
          {
            "reference": "Organization/a5a95c48-0a09-4b38-aad3-2fb3ceb9b7bc"
          }
        ],
        "activity": {
          "text": "Synthetic Example Data Generation"
        },
        "policy": [
          "https://synderai.net/synderai-synthetic-data-policy"
        ],
        "agent": [
          {
            "type": {
              "text": "author"
            },
            "who": {
              "reference": "Device/a97a688a-f9f6-453f-b1ca-cb6f84fc2a1a"
            }
          }
        ],
        "reason": [
          {
            "text": "Interoperability Testing and Training (non-clinical use)"
          }
        ],
        "text": {
          "status": "generated",
          "div": "<div xmlns=\"http://www.w3.org/1999/xhtml\">Provenance for SYNDERAI Synthetic Example Data Resource</div>"
        },
        "recorded": "2017-09-26T00:11:04Z"
      }
    },
    {
      "fullUrl": "urn:uuid:9698ed8e-d71c-47f7-a086-a0b6e1f81cfe",
      "resource": {
        "resourceType": "PractitionerRole",
        "id": "9698ed8e-d71c-47f7-a086-a0b6e1f81cfe",
        "meta": {
          "profile": [
            "http://hl7.eu/fhir/base/StructureDefinition/practitionerRole-eu"
          ]
        },
        "text": {
          "status": "generated",
          "div": "<div xmlns=\"http://www.w3.org/1999/xhtml\">Laboratory Role Id: 9698ed8e-d71c-47f7-a086-a0b6e1f81cfe</div>"
        },
        "practitioner": {
          "reference": "urn:uuid:9cdeae56-37f6-488c-865e-f83e0b576ac7"
        }
      }
    },
    {
      "fullUrl": "urn:uuid:9cdeae56-37f6-488c-865e-f83e0b576ac7",
      "resource": {
        "resourceType": "Practitioner",
        "id": "9cdeae56-37f6-488c-865e-f83e0b576ac7",
        "meta": {
          "profile": [
            "http://hl7.eu/fhir/base/StructureDefinition/practitioner-eu"
          ]
        },
        "identifier": [
          {
            "assigner": {
              "display": "HL7 Europe"
            },
            "system": "urn:oid:2.16.840.1.113883.2.51.999",
            "value": "978ba302-c225-4adf-a8d7-deb4118411fe"
          }
        ],
        "name": [
          {
            "prefix": [
              "dr"
            ],
            "given": [
              "Ex"
            ],
            "family": "Ample"
          }
        ],
        "address": [
          {
            "line": [
              "Laboratoire Central Europenne",
              "Boulevard du Jardin Botanique 32"
            ],
            "postalCode": "1000",
            "city": "Brussels",
            "country": "Belgium"
          }
        ],
        "text": {
          "status": "generated",
          "div": "<div xmlns=\"http://www.w3.org/1999/xhtml\">Laboratory: Laboratoire Central Europenne, 1000 Brussels, Belgium</div>"
        }
      }
    }
  ],
  "type": "document",
  "timestamp": "2017-09-26T00:11:04Z"
}
