<Bundle xmlns="http://hl7.org/fhir">
   <id value="8a7ea674-6933-4d7a-b5e2-2f3d0f187dc8"/>
   <meta>
      <profile value="http://hl7.eu/fhir/laboratory/StructureDefinition/Bundle-eu-lab"/>
   </meta>
   <identifier>
      <system value="urn:oid:2.16.840.1.113883.2.51.999"/>
      <value value="c9b21501-c177-49c1-9fa2-7319fd216309"/>
      <assigner>
         <display value="HL7 Europe"/>
      </assigner>
   </identifier>
   <type value="document"/>
   <timestamp value="2021-02-05T16:47:43Z"/>
   <entry>
      <fullUrl value="urn:uuid:d741c5d3-f770-4967-a95d-91ef98a613fa"/>
      <resource>
         <Composition>
            <id value="d741c5d3-f770-4967-a95d-91ef98a613fa"/>
            <meta>
               <profile value="http://hl7.eu/fhir/laboratory/StructureDefinition/Composition-eu-lab"/>
            </meta>
            <identifier>
               <system value="urn:oid:2.16.840.1.113883.2.51.999"/>
               <value value="18899a6b-51c8-4207-abf7-dea1c31939eb"/>
               <assigner>
                  <display value="HL7 Europe"/>
               </assigner>
            </identifier>
            <status value="final"/>
            <type>
               <coding>
                  <system value="http://loinc.org"/>
                  <code value="11502-2"/>
                  <display value="Laboratory report"/>
               </coding>
               <text value="Laboratory Report"/>
            </type>
            <category>
               <coding>
                  <system value="http://loinc.org"/>
                  <code value="26436-6"/>
                  <display value="Laboratory studies (set)"/>
               </coding>
            </category>
            <subject>
               <reference value="urn:uuid:d977b369-6b28-46b5-ae79-12a385ff17f1"/>
               <display value="Maria Nohlmans"/>
            </subject>
            <date value="2021-02-05T16:47:43Z"/>
            <author>
               <reference value="urn:uuid:2e89b106-076b-43ca-a17c-96d1dbf90750"/>
            </author>
            <title value="Laboratory Report"/>
            <confidentiality value="N"/>
            <section>
               <title value="Laboratory Report"/>
               <code>
                  <coding>
                     <system value="http://loinc.org"/>
                     <code value="26436-6"/>
                     <display value="Laboratory studies (set)"/>
                  </coding>
                  <text value="Laboratory studies"/>
               </code>
               <section>
                  <title value="Chemistry"/>
                  <code>
                     <coding>
                        <system value="http://loinc.org"/>
                        <code value="$18719-5"/>
                        <display value="Chemistry studies (set)"/>
                     </coding>
                     <text value="Chemistry"/>
                  </code>
                  <text>
                     <status value="generated"/>
                     <div xmlns="http://www.w3.org/1999/xhtml">
                        <h3>Chemistry</h3>
                        <table class="hl7__eu__lab__report">
                           <thead>
                              <tr>
                                 <th>Test</th>
                                 <th>05-FEB-2021</th>
                                 <th>Reference Range</th>
                                 <th>Unit</th>
                              </tr>
                           </thead>
                           <tbody>
                              <tr>
                                 <td>Hemoglobin.gastrointestinal.lower [Presence] in Stool by Immunoassay --1st specimen</td>
                                 <td>
                                    <strong>452.6 H</strong>
                                 </td>
                                 <td>0 - 0</td>
                                 <td>ng/mL</td>
                              </tr>
                           </tbody>
                        </table>
                     </div>
                  </text>
                  <entry>
                     <reference value="urn:uuid:f68765af-b341-4b9b-b27c-50b7de378b57"/>
                  </entry>
               </section>
               <section>
                  <title value="Cancer pathology panel"/>
                  <code>
                     <coding>
                        <system value="http://loinc.org"/>
                        <code value="$LP207911-1"/>
                        <display value="Cancer pathology panel"/>
                     </coding>
                     <text value="Cancer pathology panel"/>
                  </code>
                  <text>
                     <status value="generated"/>
                     <div xmlns="http://www.w3.org/1999/xhtml">
                        <h3>Cancer pathology panel</h3>
                        <table class="hl7__eu__lab__report">
                           <thead>
                              <tr>
                                 <th>Test</th>
                                 <th>05-FEB-2021</th>
                                 <th>Reference Range</th>
                                 <th>Unit</th>
                              </tr>
                           </thead>
                           <tbody>
                              <tr>
                                 <td>Polyp size greatest dimension</td>
                                 <td>
                                    <strong>11.1 H</strong>
                                 </td>
                                 <td>0 - 10</td>
                                 <td>mm</td>
                              </tr>
                           </tbody>
                        </table>
                     </div>
                  </text>
                  <entry>
                     <reference value="urn:uuid:4a972ce5-8a3c-4f1c-8dba-5d7d2cf0eb0b"/>
                  </entry>
               </section>
            </section>
            <section>
               <title value="Annotation comment"/>
               <code>
                  <coding>
                     <system value="http://loinc.org"/>
                     <code value="48767-8"/>
                     <display value="Annotation comment"/>
                  </coding>
               </code>
               <text>
                  <status value="generated"/>
                  <div xmlns="http://www.w3.org/1999/xhtml">
                     <h3>Annotation</h3>
                     <table class="hl7__eu__lab__report">
                        <tr>
                           <th>Conclusion and Recommendations based on this report and previous findings known to us</th>
                        </tr>
                        <tr>
                           <td>The patient shows a colonic polyp larger than the normal upper limit and a positive fecal immunochemical test (FIT) with significantly elevated hemoglobin in stool, indicating gastrointestinal bleeding. These findings are suggestive of a high risk for colorectal neoplasia and warrant prompt gastroenterological evaluation, including colonoscopy and possible biopsy.</td>
                        </tr>
                     </table>
                  </div>
               </text>
            </section>
         </Composition>
      </resource>
   </entry>
   <entry>
      <fullUrl value="urn:uuid:c47cfe12-9d93-433f-818f-8b2b3a00923b"/>
      <resource>
         <DiagnosticReport>
            <id value="c47cfe12-9d93-433f-818f-8b2b3a00923b"/>
            <meta>
               <profile value="http://hl7.eu/fhir/laboratory/StructureDefinition/DiagnosticReport-eu-lab"/>
            </meta>
            <extension url="http://hl7.org/fhir/5.0/StructureDefinition/extension-DiagnosticReport.composition">
               <valueReference>
                  <reference value="urn:uuid:18899a6b-51c8-4207-abf7-dea1c31939eb"/>
               </valueReference>
            </extension>
            <identifier>
               <system value="urn:oid:2.16.840.1.113883.2.51.999"/>
               <value value="81ef9661-bcfa-4932-9cc6-10d5a75149e9"/>
               <assigner>
                  <display value="HL7 Europe"/>
               </assigner>
            </identifier>
            <status value="registered"/>
            <category>
               <coding>
                  <system value="http://loinc.org"/>
                  <code value="26436-6"/>
                  <display value="Laboratory studies (set)"/>
               </coding>
            </category>
            <code>
               <coding>
                  <system value="http://loinc.org"/>
                  <code value="11502-2"/>
                  <display value="Laboratory report"/>
               </coding>
            </code>
            <subject>
               <reference value="urn:uuid:d977b369-6b28-46b5-ae79-12a385ff17f1"/>
               <display value="Maria Nohlmans"/>
            </subject>
            <specimen>
               <reference value="urn:uuid:0ca8dc03-8afe-42ff-8712-9ac3b28e1eeb"/>
            </specimen>
            <specimen>
               <reference value="urn:uuid:3894d96a-4792-4845-a1f1-b93b72692e05"/>
            </specimen>
            <result>
               <reference value="urn:uuid:4a972ce5-8a3c-4f1c-8dba-5d7d2cf0eb0b"/>
            </result>
            <result>
               <reference value="urn:uuid:f68765af-b341-4b9b-b27c-50b7de378b57"/>
            </result>
         </DiagnosticReport>
      </resource>
   </entry>
   <entry>
      <fullUrl value="urn:uuid:d977b369-6b28-46b5-ae79-12a385ff17f1"/>
      <resource>
         <Patient>
            <id value="d977b369-6b28-46b5-ae79-12a385ff17f1"/>
            <meta>
               <profile value="http://hl7.eu/fhir/base/StructureDefinition/patient-eu-core"/>
               <security>
                  <system value="http://terminology.hl7.org/CodeSystem/v3-ActReason"/>
                  <code value="HTEST"/>
               </security>
               <security>
                  <system value="http://terminology.hl7.org/CodeSystem/v3-ActReason"/>
                  <code value="TRAIN"/>
               </security>
               <tag>
                  <system value="https://synderai.net/fhir/CodeSystem/tags"/>
                  <code value="synthetic"/>
                  <display value="SYNDERAI Synthetic data"/>
               </tag>
            </meta>
            <text>
               <status value="generated"/>
               <div xmlns="http://www.w3.org/1999/xhtml">
                  <table class="hl7__ips">
                     <tr>
                        <td>Maria Nohlmans</td>
                        <td>female</td>
                        <td>11-Jun-1947</td>
                     </tr>
                  </table>
               </div>
            </text>
            <extension url="http://hl7.org/fhir/StructureDefinition/patient-nationality">
               <valueCodeableConcept>
                  <coding>
                     <system value="http://hl7.org/fhir/ValueSet/country"/>
                     <code value="DE"/>
                  </coding>
               </valueCodeableConcept>
            </extension>
            <identifier>
               <type>
                  <coding>
                     <system value="http://terminology.hl7.org/CodeSystem/v2-0203"/>
                     <code value="PT"/>
                  </coding>
               </type>
               <system value="http://ec.europa.eu/identifier/eci"/>
               <value value="6886-506417-1"/>
            </identifier>
            <identifier>
               <type>
                  <coding>
                     <system value="http://terminology.hl7.org/CodeSystem/v2-0203"/>
                     <code value="MR"/>
                  </coding>
               </type>
               <system value="http://local.setting.eu/identifier"/>
               <value value="2cb21ed6-b617-b1f3-2290-589a710de5ee"/>
            </identifier>
            <name>
               <family value="Nohlmans"/>
            </name>
            <name>
               <given value="Maria"/>
            </name>
            <name>
               <text value="Maria Nohlmans"/>
            </name>
            <telecom>
               <system value="phone"/>
               <value value="+49(0)1911 105501"/>
            </telecom>
            <gender value="female"/>
            <birthDate value="1947-06-11"/>
            <address>
               <use value="home"/>
               <type value="physical"/>
               <line value="Alfons-Wulff-Weg 1"/>
               <city value="Husum"/>
               <postalCode value="25813"/>
               <country value="Germany"/>
            </address>
         </Patient>
      </resource>
   </entry>
   <entry>
      <fullUrl value="urn:uuid:ff6976fa-965f-46a0-a63b-5728a7981035"/>
      <resource>
         <ServiceRequest>
            <id value="ff6976fa-965f-46a0-a63b-5728a7981035"/>
            <meta>
               <profile value="http://hl7.eu/fhir/laboratory/StructureDefinition/ServiceRequest-eu-lab"/>
            </meta>
            <identifier>
               <system value="http://example.org"/>
               <value value="c0f91150-22e4-425b-90cc-6d215ee5fa21"/>
            </identifier>
            <status value="active"/>
            <intent value="order"/>
            <code>
               <coding>
                  <system value="http://snomed.info/sct"/>
                  <code value="108252007"/>
                  <display value="Laboratory procedure"/>
               </coding>
            </code>
            <subject>
               <reference value="urn:uuid:d977b369-6b28-46b5-ae79-12a385ff17f1"/>
               <display value="Maria Nohlmans"/>
            </subject>
            <requester>
               <reference value="urn:uuid:5d901278-d766-4ad7-8273-a48a24bc5563"/>
            </requester>
            <reasonCode>
               <coding>
                  <system value="http://snomed.info/sct"/>
                  <code value="401314000"/>
                  <display value="Acute non-ST segment elevation myocardial infarction"/>
               </coding>
            </reasonCode>
            <reasonCode>
               <coding>
                  <system value="http://snomed.info/sct"/>
                  <code value="157141000119108"/>
                  <display value="Proteinuria due to type 2 diabetes mellitus"/>
               </coding>
            </reasonCode>
            <reasonCode>
               <coding>
                  <system value="http://snomed.info/sct"/>
                  <code value="237602007"/>
                  <display value="Metabolic syndrome X"/>
               </coding>
            </reasonCode>
            <reasonCode>
               <coding>
                  <system value="http://snomed.info/sct"/>
                  <code value="90781000119102"/>
                  <display value="Microalbuminuria due to type 2 diabetes mellitus"/>
               </coding>
            </reasonCode>
            <reasonCode>
               <coding>
                  <system value="http://snomed.info/sct"/>
                  <code value="127013003"/>
                  <display value="Disorder of kidney due to diabetes mellitus"/>
               </coding>
            </reasonCode>
            <reasonCode>
               <coding>
                  <system value="http://snomed.info/sct"/>
                  <code value="59621000"/>
                  <display value="Essential hypertension"/>
               </coding>
            </reasonCode>
            <reasonCode>
               <coding>
                  <system value="http://snomed.info/sct"/>
                  <code value="271737000"/>
                  <display value="Anemia"/>
               </coding>
            </reasonCode>
            <reasonCode>
               <coding>
                  <system value="http://snomed.info/sct"/>
                  <code value="15777000"/>
                  <display value="Prediabetes"/>
               </coding>
            </reasonCode>
            <specimen>
               <reference value="urn:uuid:0ca8dc03-8afe-42ff-8712-9ac3b28e1eeb"/>
            </specimen>
            <specimen>
               <reference value="urn:uuid:3894d96a-4792-4845-a1f1-b93b72692e05"/>
            </specimen>
         </ServiceRequest>
      </resource>
   </entry>
   <entry>
      <fullUrl value="urn:uuid:5d901278-d766-4ad7-8273-a48a24bc5563"/>
      <resource>
         <PractitionerRole>
            <id value="5d901278-d766-4ad7-8273-a48a24bc5563"/>
            <meta>
               <profile value="http://hl7.eu/fhir/base/StructureDefinition/practitionerRole-eu"/>
            </meta>
            <text>
               <status value="generated"/>
               <div xmlns="http://www.w3.org/1999/xhtml">Provider Role Id: 5d901278-d766-4ad7-8273-a48a24bc5563</div>
            </text>
            <organization>
               <reference value="urn:uuid:83f41482-d22c-47fc-afaf-b80a8740c72a"/>
            </organization>
         </PractitionerRole>
      </resource>
   </entry>
   <entry>
      <fullUrl value="urn:uuid:83f41482-d22c-47fc-afaf-b80a8740c72a"/>
      <resource>
         <Organization>
            <id value="83f41482-d22c-47fc-afaf-b80a8740c72a"/>
            <meta>
               <profile value="http://hl7.eu/fhir/base/StructureDefinition/organization-eu"/>
            </meta>
            <text>
               <status value="generated"/>
               <div xmlns="http://www.w3.org/1999/xhtml">Provider Organization: Dr. Wolfram Hussels Kieferorthopäde</div>
            </text>
            <identifier>
               <system value="urn:oid:2.16.840.1.113883.2.51.999"/>
               <value value="a3dcd73a-b7a1-4180-9641-c68e8b696dd3"/>
               <assigner>
                  <display value="HL7 Europe"/>
               </assigner>
            </identifier>
            <name value="Dr. Wolfram Hussels Kieferorthopäde"/>
            <address>
               <line value="Brinckmannstraße 35"/>
               <city value="Husum"/>
               <postalCode value="25813"/>
               <country value="Germany"/>
            </address>
         </Organization>
      </resource>
   </entry>
   <entry>
      <fullUrl value="urn:uuid:0ca8dc03-8afe-42ff-8712-9ac3b28e1eeb"/>
      <resource>
         <Specimen>
            <id value="0ca8dc03-8afe-42ff-8712-9ac3b28e1eeb"/>
            <meta>
               <profile value="http://hl7.eu/fhir/laboratory/StructureDefinition/Specimen-eu-lab"/>
            </meta>
            <text>
               <status value="generated"/>
               <div xmlns="http://www.w3.org/1999/xhtml">
                  <table class="hl7__eu__lab__report">
                     <tr>
                        <th>Specimen</th>
                        <th>Collection Date</th>
                     </tr>
                     <tr>
                        <td>Specimen (specimen)</td>
                        <td>
                           <span class="nb">05-Feb-2021</span>
                        </td>
                     </tr>
                  </table>
               </div>
            </text>
            <type>
               <coding>
                  <system value="http://snomed.info/sct"/>
                  <code value="123038009"/>
                  <display value="Specimen (specimen)"/>
               </coding>
            </type>
            <collection>
               <collectedDateTime value="2021-02-05"/>
            </collection>
         </Specimen>
      </resource>
   </entry>
   <entry>
      <fullUrl value="urn:uuid:3894d96a-4792-4845-a1f1-b93b72692e05"/>
      <resource>
         <Specimen>
            <id value="3894d96a-4792-4845-a1f1-b93b72692e05"/>
            <meta>
               <profile value="http://hl7.eu/fhir/laboratory/StructureDefinition/Specimen-eu-lab"/>
            </meta>
            <text>
               <status value="generated"/>
               <div xmlns="http://www.w3.org/1999/xhtml">
                  <table class="hl7__eu__lab__report">
                     <tr>
                        <th>Specimen</th>
                        <th>Collection Date</th>
                     </tr>
                     <tr>
                        <td>Feces specimen</td>
                        <td>
                           <span class="nb">05-Feb-2021</span>
                        </td>
                     </tr>
                  </table>
               </div>
            </text>
            <type>
               <coding>
                  <system value="http://snomed.info/sct"/>
                  <code value="119339001"/>
                  <display value="Feces specimen"/>
               </coding>
            </type>
            <collection>
               <collectedDateTime value="2021-02-05"/>
            </collection>
         </Specimen>
      </resource>
   </entry>
   <entry>
      <fullUrl value="urn:uuid:4a972ce5-8a3c-4f1c-8dba-5d7d2cf0eb0b"/>
      <resource>
         <Observation>
            <id value="4a972ce5-8a3c-4f1c-8dba-5d7d2cf0eb0b"/>
            <meta>
               <profile value="http://hl7.eu/fhir/laboratory/StructureDefinition/Observation-resultslab-eu-lab"/>
            </meta>
            <text>
               <status value="generated"/>
               <div xmlns="http://www.w3.org/1999/xhtml">
                  <table class="hl7__eu__lab__report">
                     <tr>
                        <th>Test</th>
                        <th>05-Feb-2021</th>
                        <th>Reference Range</th>
                        <th>Unit</th>
                     </tr>
                     <tr>
                        <td>Polyp size greatest dimension</td>
                        <td>11.1</td>
                        <td>0 - 10</td>
                        <td>H</td>
                        <td>mm</td>
                     </tr>
                  </table>
               </div>
            </text>
            <status value="final"/>
            <category>
               <coding>
                  <system value="http://terminology.hl7.org/CodeSystem/observation-category"/>
                  <code value="laboratory"/>
               </coding>
            </category>
            <code>
               <coding>
                  <system value="http://loinc.org"/>
                  <code value="33756-8"/>
                  <display value="Polyp size greatest dimension"/>
               </coding>
               <text value="Polyp size greatest dimension"/>
            </code>
            <subject>
               <reference value="urn:uuid:d977b369-6b28-46b5-ae79-12a385ff17f1"/>
               <display value="Maria Nohlmans"/>
            </subject>
            <effectiveDateTime value="2021-02-05T15:47:43Z"/>
            <performer>
               <display value="The Central European Lab"/>
            </performer>
            <valueQuantity>
               <value value="11.1"/>
               <unit value="mm"/>
               <system value="http://unitsofmeasure.org"/>
               <code value="mm"/>
            </valueQuantity>
            <interpretation>
               <coding>
                  <system value="http://terminology.hl7.org/CodeSystem/v3-ObservationInterpretation"/>
                  <code value="H"/>
                  <display value="High"/>
               </coding>
            </interpretation>
            <specimen>
               <reference value="urn:uuid:0ca8dc03-8afe-42ff-8712-9ac3b28e1eeb"/>
            </specimen>
            <referenceRange>
               <low>
                  <value value="0"/>
                  <system value="http://unitsofmeasure.org"/>
                  <code value="mm"/>
               </low>
            </referenceRange>
            <referenceRange>
               <high>
                  <value value="10"/>
                  <system value="http://unitsofmeasure.org"/>
                  <code value="mm"/>
               </high>
            </referenceRange>
         </Observation>
      </resource>
   </entry>
   <entry>
      <fullUrl value="urn:uuid:f68765af-b341-4b9b-b27c-50b7de378b57"/>
      <resource>
         <Observation>
            <id value="f68765af-b341-4b9b-b27c-50b7de378b57"/>
            <meta>
               <profile value="http://hl7.eu/fhir/laboratory/StructureDefinition/Observation-resultslab-eu-lab"/>
            </meta>
            <text>
               <status value="generated"/>
               <div xmlns="http://www.w3.org/1999/xhtml">
                  <table class="hl7__eu__lab__report">
                     <tr>
                        <th>Test</th>
                        <th>05-Feb-2021</th>
                        <th>Reference Range</th>
                        <th>Unit</th>
                     </tr>
                     <tr>
                        <td>Hemoglobin.gastrointestinal.lower [Presence] in Stool by Immunoassay --1st specimen</td>
                        <td>452.6</td>
                        <td>0 - 0</td>
                        <td>H</td>
                        <td>ng/mL</td>
                     </tr>
                  </table>
               </div>
            </text>
            <status value="final"/>
            <category>
               <coding>
                  <system value="http://terminology.hl7.org/CodeSystem/observation-category"/>
                  <code value="laboratory"/>
               </coding>
            </category>
            <code>
               <coding>
                  <system value="http://loinc.org"/>
                  <code value="57905-2"/>
                  <display value="Hemoglobin.gastrointestinal.lower [Presence] in Stool by Immunoassay --1st specimen"/>
               </coding>
               <text value="Hemoglobin.gastrointestinal.lower [Presence] in Stool by Immunoassay --1st specimen"/>
            </code>
            <subject>
               <reference value="urn:uuid:d977b369-6b28-46b5-ae79-12a385ff17f1"/>
               <display value="Maria Nohlmans"/>
            </subject>
            <effectiveDateTime value="2021-02-05T15:47:43Z"/>
            <performer>
               <display value="The Central European Lab"/>
            </performer>
            <valueQuantity>
               <value value="452.6"/>
               <unit value="ng/mL"/>
               <system value="http://unitsofmeasure.org"/>
               <code value="ng/mL"/>
            </valueQuantity>
            <interpretation>
               <coding>
                  <system value="http://terminology.hl7.org/CodeSystem/v3-ObservationInterpretation"/>
                  <code value="H"/>
                  <display value="High"/>
               </coding>
            </interpretation>
            <specimen>
               <reference value="urn:uuid:3894d96a-4792-4845-a1f1-b93b72692e05"/>
            </specimen>
            <referenceRange>
               <low>
                  <value value="0"/>
                  <system value="http://unitsofmeasure.org"/>
                  <code value="ng/mL"/>
               </low>
            </referenceRange>
            <referenceRange>
               <high>
                  <value value="0"/>
                  <system value="http://unitsofmeasure.org"/>
                  <code value="ng/mL"/>
               </high>
            </referenceRange>
         </Observation>
      </resource>
   </entry>
   <entry>
      <fullUrl value="urn:uuid:b75cbc2a-ae01-4a0b-a3d1-5ab2e8969d39"/>
      <resource>
         <Device>
            <id value="b75cbc2a-ae01-4a0b-a3d1-5ab2e8969d39"/>
            <text>
               <status value="generated"/>
               <div xmlns="http://www.w3.org/1999/xhtml">SYNDERAI Synthetic Generator v5.0</div>
            </text>
            <status value="active&#34;"/>
            <distinctIdentifier value="synderai-generator-50"/>
            <manufacturer value="SYNDERAI Project"/>
            <deviceName>
               <name value="SYNDERAI Synthetic Generator"/>
               <type value="manufacturer-name"/>
            </deviceName>
            <version>
               <value value="5.0"/>
            </version>
         </Device>
      </resource>
   </entry>
   <entry>
      <fullUrl value="urn:uuid:dcf47211-8580-439e-856a-6b6af03027e3"/>
      <resource>
         <Provenance>
            <id value="dcf47211-8580-439e-856a-6b6af03027e3"/>
            <text>
               <status value="generated"/>
               <div xmlns="http://www.w3.org/1999/xhtml">Provenance for SYNDERAI Synthetic Example Data Resource</div>
            </text>
            <target>
               <reference value="Patient/d977b369-6b28-46b5-ae79-12a385ff17f1"/>
            </target>
            <target>
               <reference value="Bundle/8a7ea674-6933-4d7a-b5e2-2f3d0f187dc8"/>
            </target>
            <target>
               <reference value="Composition/d741c5d3-f770-4967-a95d-91ef98a613fa"/>
            </target>
            <target>
               <reference value="PractitionerRole/2e89b106-076b-43ca-a17c-96d1dbf90750"/>
            </target>
            <target>
               <reference value="Practitioner/a3ba8902-f6e7-46bd-a70e-33943146843b"/>
            </target>
            <target>
               <reference value="PractitionerRole/5d901278-d766-4ad7-8273-a48a24bc5563"/>
            </target>
            <target>
               <reference value="Organization/83f41482-d22c-47fc-afaf-b80a8740c72a"/>
            </target>
            <recorded value="2021-02-05T16:47:43Z"/>
            <policy value="https://synderai.net/synderai-synthetic-data-policy"/>
            <reason>
               <text value="Interoperability Testing and Training (non-clinical use)"/>
            </reason>
            <activity>
               <text value="Synthetic Example Data Generation"/>
            </activity>
            <agent>
               <type>
                  <text value="author"/>
               </type>
               <who>
                  <reference value="Device/b75cbc2a-ae01-4a0b-a3d1-5ab2e8969d39"/>
               </who>
            </agent>
         </Provenance>
      </resource>
   </entry>
   <entry>
      <fullUrl value="urn:uuid:2e89b106-076b-43ca-a17c-96d1dbf90750"/>
      <resource>
         <PractitionerRole>
            <id value="2e89b106-076b-43ca-a17c-96d1dbf90750"/>
            <meta>
               <profile value="http://hl7.eu/fhir/base/StructureDefinition/practitionerRole-eu"/>
            </meta>
            <text>
               <status value="generated"/>
               <div xmlns="http://www.w3.org/1999/xhtml">Laboratory Role Id: 2e89b106-076b-43ca-a17c-96d1dbf90750</div>
            </text>
            <practitioner>
               <reference value="urn:uuid:a3ba8902-f6e7-46bd-a70e-33943146843b"/>
            </practitioner>
         </PractitionerRole>
      </resource>
   </entry>
   <entry>
      <fullUrl value="urn:uuid:a3ba8902-f6e7-46bd-a70e-33943146843b"/>
      <resource>
         <Practitioner>
            <id value="a3ba8902-f6e7-46bd-a70e-33943146843b"/>
            <meta>
               <profile value="http://hl7.eu/fhir/base/StructureDefinition/practitioner-eu"/>
            </meta>
            <text>
               <status value="generated"/>
               <div xmlns="http://www.w3.org/1999/xhtml">Laboratory: Laboratoire Central Européenne, 1000 Brussels, Belgium</div>
            </text>
            <identifier>
               <system value="urn:oid:2.16.840.1.113883.2.51.999"/>
               <value value="f32a6d4b-0c15-49e5-b316-2a9ed96a5266"/>
               <assigner>
                  <display value="HL7 Europe"/>
               </assigner>
            </identifier>
            <name>
               <family value="Ample"/>
               <given value="Ex"/>
               <prefix value="dr"/>
            </name>
            <address>
               <line value="Laboratoire Central Européenne"/>
               <line value="Boulevard du Jardin Botanique 32"/>
               <city value="Brussels"/>
               <postalCode value="1000"/>
               <country value="Belgium"/>
            </address>
         </Practitioner>
      </resource>
   </entry>
</Bundle>