{
  "resourceType": "Bundle",
  "id": "5851bbfe-f418-43c2-947a-88c2d3dcf959",
  "meta": {
    "profile": [
      "http://hl7.eu/fhir/laboratory/StructureDefinition/Bundle-eu-lab"
    ]
  },
  "identifier": {
    "assigner": {
      "display": "HL7 Europe"
    },
    "system": "urn:oid:2.16.840.1.113883.2.51.999",
    "value": "f2ce8765-bf54-4015-a40c-ecd3f0d1416e"
  },
  "entry": [
    {
      "fullUrl": "urn:uuid:abb4eca7-a0a4-448e-bea4-8cd5e8472848",
      "resource": {
        "resourceType": "Composition",
        "id": "abb4eca7-a0a4-448e-bea4-8cd5e8472848",
        "meta": {
          "profile": [
            "http://hl7.eu/fhir/laboratory/StructureDefinition/Composition-eu-lab"
          ]
        },
        "identifier": {
          "assigner": {
            "display": "HL7 Europe"
          },
          "system": "urn:oid:2.16.840.1.113883.2.51.999",
          "value": "80fadd22-042f-44ac-87d5-f0654cceaa57"
        },
        "author": [
          {
            "reference": "urn:uuid:fa45d92a-4a8b-4d6b-88ea-97f56e58fdf8"
          }
        ],
        "category": [
          {
            "coding": [
              {
                "code": "26436-6",
                "system": "http://loinc.org",
                "display": "Laboratory studies (set)"
              }
            ]
          }
        ],
        "type": {
          "coding": [
            {
              "code": "11502-2",
              "system": "http://loinc.org",
              "display": "Laboratory report"
            }
          ],
          "text": "Laboratory Report"
        },
        "section": [
          {
            "code": {
              "coding": [
                {
                  "code": "26436-6",
                  "system": "http://loinc.org",
                  "display": "Laboratory studies (set)"
                }
              ],
              "text": "Laboratory studies"
            },
            "section": [
              {
                "code": {
                  "coding": [
                    {
                      "code": "$18719-5",
                      "system": "http://loinc.org",
                      "display": "Chemistry studies (set)"
                    }
                  ],
                  "text": "Chemistry"
                },
                "entry": [
                  {
                    "reference": "urn:uuid:237cbb6a-d8fc-43a5-badf-a047ddc8e311"
                  },
                  {
                    "reference": "urn:uuid:db724a03-a175-4047-81da-d7a6f5c84681"
                  },
                  {
                    "reference": "urn:uuid:c664973f-3689-4f44-a34a-ce00182deeb4"
                  },
                  {
                    "reference": "urn:uuid:43c33dbe-a264-4e79-b348-8b8791e40695"
                  },
                  {
                    "reference": "urn:uuid:a1613a38-e869-47e8-b55c-20f34ec95bac"
                  },
                  {
                    "reference": "urn:uuid:5b4c51c2-1794-448f-bc4a-d887da0f2ef2"
                  },
                  {
                    "reference": "urn:uuid:e6ea81a4-2579-4862-a528-20b4d29abecf"
                  },
                  {
                    "reference": "urn:uuid:82cd1dff-4621-4cdf-91e4-9e1ceff4b191"
                  },
                  {
                    "reference": "urn:uuid:e702e6d3-03f8-4e55-a1ee-8d2d28775712"
                  }
                ],
                "text": {
                  "status": "generated",
                  "div": "<div xmlns=\"http://www.w3.org/1999/xhtml\"><h3>Chemistry</h3><table class=\"hl7__eu__lab__report\"><thead><tr><th>Test</th><th>08-JUN-2022</th><th>Reference&#xA0;Range</th><th>Unit</th></tr></thead><tbody><tr><td>Hemoglobin A1c/Hemoglobin.total in Blood</td><td>5.8</td><td>4.5 - 6.4</td><td>%</td></tr><tr><td>Glucose [Mass/volume] in Blood</td><td>83.7</td><td>70 - 140</td><td>mg/dL</td></tr><tr><td>Urea nitrogen [Mass/volume] in Blood</td><td>17.9</td><td>7 - 20</td><td>mg/dL</td></tr><tr><td>Creatinine [Mass/volume] in Blood</td><td><strong>0.5 L</strong></td><td>0.6 - 1.1</td><td>mg/dL</td></tr><tr><td>Calcium [Mass/volume] in Blood</td><td>9.2</td><td>8.5 - 10.4</td><td>mg/dL</td></tr><tr><td>Sodium [Moles/volume] in Blood</td><td>141.0</td><td>135 - 145</td><td>mmol/L</td></tr><tr><td>Potassium [Moles/volume] in Blood</td><td>4.1</td><td>3.5 - 5.1</td><td>mmol/L</td></tr><tr><td>Chloride [Moles/volume] in Blood</td><td>106.4</td><td>98 - 107</td><td>mmol/L</td></tr><tr><td>Carbon dioxide, total [Moles/volume] in Blood</td><td>24.5</td><td>22 - 29</td><td>mmol/L</td></tr></tbody></table></div>"
                },
                "title": "Chemistry"
              }
            ],
            "title": "Laboratory Report"
          },
          {
            "text": {
              "status": "generated",
              "div": "<div xmlns=\"http://www.w3.org/1999/xhtml\"><h3>Annotation</h3><table class=\"hl7__eu__lab__report\"><tr><th>Conclusion and Recommendations based on this report and previous findings known to us</th></tr><tr><td>All measured parameters are within normal limits except for a mildly decreased creatinine, which is not clinically significant and may reflect low muscle mass in an elderly female. No evidence of renal dysfunction, electrolyte imbalance, or abnormal glucose metabolism. Overall, laboratory findings are unremarkable.</td></tr></table></div>"
            },
            "code": {
              "coding": [
                {
                  "system": "http://loinc.org",
                  "code": "48767-8",
                  "display": "Annotation comment"
                }
              ]
            },
            "title": "Annotation comment"
          }
        ],
        "status": "final",
        "subject": {
          "reference": "urn:uuid:854c8b7b-de71-49d9-9143-435dad4e80de",
          "display": "Magdolna Balog"
        },
        "date": "2022-06-08T15:34:16Z",
        "title": "Laboratory Report",
        "confidentiality": "N"
      }
    },
    {
      "fullUrl": "urn:uuid:40c2bca4-bde1-439a-88cc-adeaa5f51aa5",
      "resource": {
        "resourceType": "DiagnosticReport",
        "id": "40c2bca4-bde1-439a-88cc-adeaa5f51aa5",
        "meta": {
          "profile": [
            "http://hl7.eu/fhir/laboratory/StructureDefinition/DiagnosticReport-eu-lab"
          ]
        },
        "identifier": [
          {
            "assigner": {
              "display": "HL7 Europe"
            },
            "system": "urn:oid:2.16.840.1.113883.2.51.999",
            "value": "5b13e3cb-5c4a-435c-983f-ebe0a25f64c6"
          }
        ],
        "extension": [
          {
            "url": "http://hl7.org/fhir/5.0/StructureDefinition/extension-DiagnosticReport.composition",
            "valueReference": {
              "reference": "urn:uuid:80fadd22-042f-44ac-87d5-f0654cceaa57"
            }
          }
        ],
        "category": [
          {
            "coding": [
              {
                "code": "26436-6",
                "system": "http://loinc.org",
                "display": "Laboratory studies (set)"
              }
            ]
          }
        ],
        "specimen": [
          {
            "reference": "urn:uuid:16f77a6d-ce14-4eb3-9d4c-2f66254f5ef3"
          }
        ],
        "result": [
          {
            "reference": "urn:uuid:237cbb6a-d8fc-43a5-badf-a047ddc8e311"
          },
          {
            "reference": "urn:uuid:db724a03-a175-4047-81da-d7a6f5c84681"
          },
          {
            "reference": "urn:uuid:c664973f-3689-4f44-a34a-ce00182deeb4"
          },
          {
            "reference": "urn:uuid:43c33dbe-a264-4e79-b348-8b8791e40695"
          },
          {
            "reference": "urn:uuid:a1613a38-e869-47e8-b55c-20f34ec95bac"
          },
          {
            "reference": "urn:uuid:5b4c51c2-1794-448f-bc4a-d887da0f2ef2"
          },
          {
            "reference": "urn:uuid:e6ea81a4-2579-4862-a528-20b4d29abecf"
          },
          {
            "reference": "urn:uuid:82cd1dff-4621-4cdf-91e4-9e1ceff4b191"
          },
          {
            "reference": "urn:uuid:e702e6d3-03f8-4e55-a1ee-8d2d28775712"
          }
        ],
        "status": "registered",
        "code": {
          "coding": [
            {
              "code": "11502-2",
              "system": "http://loinc.org",
              "display": "Laboratory report"
            }
          ]
        },
        "subject": {
          "reference": "urn:uuid:854c8b7b-de71-49d9-9143-435dad4e80de",
          "display": "Magdolna Balog"
        }
      }
    },
    {
      "fullUrl": "urn:uuid:854c8b7b-de71-49d9-9143-435dad4e80de",
      "resource": {
        "resourceType": "Patient",
        "id": "854c8b7b-de71-49d9-9143-435dad4e80de",
        "meta": {
          "security": [
            {
              "system": "http://terminology.hl7.org/CodeSystem/v3-ActReason",
              "code": "HTEST"
            },
            {
              "system": "http://terminology.hl7.org/CodeSystem/v3-ActReason",
              "code": "TRAIN"
            }
          ],
          "tag": [
            {
              "system": "https://synderai.net/fhir/CodeSystem/tags",
              "code": "synthetic",
              "display": "SYNDERAI Synthetic data"
            }
          ],
          "profile": [
            "http://hl7.eu/fhir/base/StructureDefinition/patient-eu-core"
          ]
        },
        "identifier": [
          {
            "type": {
              "coding": [
                {
                  "code": "PT",
                  "system": "http://terminology.hl7.org/CodeSystem/v2-0203"
                }
              ]
            },
            "system": "http://ec.europa.eu/identifier/eci",
            "value": "2437-386280-4"
          },
          {
            "type": {
              "coding": [
                {
                  "code": "MR",
                  "system": "http://terminology.hl7.org/CodeSystem/v2-0203"
                }
              ]
            },
            "system": "http://local.setting.eu/identifier",
            "value": "1d8dc8c5-3a85-b1b5-4101-cca776d0be28"
          }
        ],
        "name": [
          {
            "family": "Balog"
          },
          {
            "given": [
              "Magdolna"
            ]
          },
          {
            "text": "Magdolna Balog"
          }
        ],
        "address": [
          {
            "line": [
              "Ady endre utca 160."
            ],
            "use": "home",
            "type": "physical",
            "postalCode": "3989",
            "city": "Némethídfa",
            "country": "Hungary"
          }
        ],
        "telecom": [
          {
            "system": "phone",
            "value": "+36 46 091-2914"
          }
        ],
        "extension": [
          {
            "url": "http://hl7.org/fhir/StructureDefinition/patient-nationality",
            "valueCodeableConcept": {
              "coding": [
                {
                  "code": "HU",
                  "system": "http://hl7.org/fhir/ValueSet/country"
                }
              ]
            }
          }
        ],
        "text": {
          "status": "generated",
          "div": "<div xmlns=\"http://www.w3.org/1999/xhtml\"><table class=\"hl7__ips\"><tr><td>Magdolna Balog</td><td>female</td><td>21-May-1946</td></tr></table></div>"
        },
        "gender": "female",
        "birthDate": "1946-05-21"
      }
    },
    {
      "fullUrl": "urn:uuid:60bc2b32-bb33-4e03-935a-d21e88b83c2a",
      "resource": {
        "resourceType": "ServiceRequest",
        "id": "60bc2b32-bb33-4e03-935a-d21e88b83c2a",
        "meta": {
          "profile": [
            "http://hl7.eu/fhir/laboratory/StructureDefinition/ServiceRequest-eu-lab"
          ]
        },
        "identifier": [
          {
            "system": "http://example.org",
            "value": "47b8efd3-9653-4e9c-beb6-56c52c834095"
          }
        ],
        "specimen": [
          {
            "reference": "urn:uuid:16f77a6d-ce14-4eb3-9d4c-2f66254f5ef3"
          }
        ],
        "reasonCode": [
          {
            "coding": [
              {
                "code": "26929004",
                "system": "http://snomed.info/sct",
                "display": "Alzheimer&#039;s disease"
              }
            ]
          },
          {
            "coding": [
              {
                "code": "414545008",
                "system": "http://snomed.info/sct",
                "display": "Ischemic heart disease"
              }
            ]
          },
          {
            "coding": [
              {
                "code": "49436004",
                "system": "http://snomed.info/sct",
                "display": "Atrial fibrillation"
              }
            ]
          },
          {
            "coding": [
              {
                "code": "64859006",
                "system": "http://snomed.info/sct",
                "display": "Osteoporosis"
              }
            ]
          },
          {
            "coding": [
              {
                "code": "15777000",
                "system": "http://snomed.info/sct",
                "display": "Prediabetes"
              }
            ]
          },
          {
            "coding": [
              {
                "code": "271737000",
                "system": "http://snomed.info/sct",
                "display": "Anemia"
              }
            ]
          }
        ],
        "status": "active",
        "intent": "order",
        "code": {
          "coding": [
            {
              "code": "108252007",
              "system": "http://snomed.info/sct",
              "display": "Laboratory procedure"
            }
          ]
        },
        "subject": {
          "reference": "urn:uuid:854c8b7b-de71-49d9-9143-435dad4e80de",
          "display": "Magdolna Balog"
        },
        "requester": {
          "reference": "urn:uuid:940b1a55-2cb5-4934-8bdf-0aa97aba56f8"
        }
      }
    },
    {
      "fullUrl": "urn:uuid:940b1a55-2cb5-4934-8bdf-0aa97aba56f8",
      "resource": {
        "resourceType": "PractitionerRole",
        "id": "940b1a55-2cb5-4934-8bdf-0aa97aba56f8",
        "meta": {
          "profile": [
            "http://hl7.eu/fhir/base/StructureDefinition/practitionerRole-eu"
          ]
        },
        "text": {
          "status": "generated",
          "div": "<div xmlns=\"http://www.w3.org/1999/xhtml\">Provider Role Id: 940b1a55-2cb5-4934-8bdf-0aa97aba56f8</div>"
        },
        "organization": {
          "reference": "urn:uuid:924e27c3-309b-4adc-b093-0fec6b80180b"
        }
      }
    },
    {
      "fullUrl": "urn:uuid:924e27c3-309b-4adc-b093-0fec6b80180b",
      "resource": {
        "resourceType": "Organization",
        "id": "924e27c3-309b-4adc-b093-0fec6b80180b",
        "meta": {
          "profile": [
            "http://hl7.eu/fhir/base/StructureDefinition/organization-eu"
          ]
        },
        "identifier": [
          {
            "assigner": {
              "display": "HL7 Europe"
            },
            "system": "urn:oid:2.16.840.1.113883.2.51.999",
            "value": "f24ae705-db3e-47c3-881d-34fe37bb8f00"
          }
        ],
        "address": [
          {
            "line": [
              "Csabai kapu 9-11"
            ],
            "city": "Miskolc",
            "postalCode": "3529",
            "country": "Hungary"
          }
        ],
        "text": {
          "status": "generated",
          "div": "<div xmlns=\"http://www.w3.org/1999/xhtml\">Provider Organization: Semmelweis Ignác Egészségügyi Központ és Egyetemi Oktató Kórház</div>"
        },
        "name": "Semmelweis Ignác Egészségügyi Központ és Egyetemi Oktató Kórház"
      }
    },
    {
      "fullUrl": "urn:uuid:16f77a6d-ce14-4eb3-9d4c-2f66254f5ef3",
      "resource": {
        "resourceType": "Specimen",
        "id": "16f77a6d-ce14-4eb3-9d4c-2f66254f5ef3",
        "meta": {
          "profile": [
            "http://hl7.eu/fhir/laboratory/StructureDefinition/Specimen-eu-lab"
          ]
        },
        "collection": {
          "collectedDateTime": "2022-06-08"
        },
        "text": {
          "status": "generated",
          "div": "<div xmlns=\"http://www.w3.org/1999/xhtml\"><table class=\"hl7__eu__lab__report\"><tr><th>Specimen</th><th>Collection Date</th></tr><tr><td>Whole blood specimen (specimen)</td><td><span class=\"nb\">08-Jun-2022</span></td></tr></table></div>"
        },
        "type": {
          "coding": [
            {
              "code": "258580003",
              "system": "http://snomed.info/sct",
              "display": "Whole blood specimen (specimen)"
            }
          ]
        }
      }
    },
    {
      "fullUrl": "urn:uuid:237cbb6a-d8fc-43a5-badf-a047ddc8e311",
      "resource": {
        "resourceType": "Observation",
        "id": "237cbb6a-d8fc-43a5-badf-a047ddc8e311",
        "meta": {
          "profile": [
            "http://hl7.eu/fhir/laboratory/StructureDefinition/Observation-resultslab-eu-lab"
          ]
        },
        "performer": [
          {
            "display": "The Central European Lab"
          }
        ],
        "category": [
          {
            "coding": [
              {
                "system": "http://terminology.hl7.org/CodeSystem/observation-category",
                "code": "laboratory"
              }
            ]
          }
        ],
        "code": {
          "coding": [
            {
              "code": "4548-4",
              "system": "http://loinc.org",
              "display": "Hemoglobin A1c/Hemoglobin.total in Blood"
            }
          ],
          "text": "Hemoglobin A1c/Hemoglobin.total in Blood"
        },
        "valueQuantity": {
          "system": "http://unitsofmeasure.org",
          "value": 5.8,
          "unit": "%",
          "code": "%"
        },
        "referenceRange": [
          {
            "low": {
              "value": 4.5,
              "code": "%",
              "system": "http://unitsofmeasure.org"
            }
          },
          {
            "high": {
              "value": 6.4,
              "code": "%",
              "system": "http://unitsofmeasure.org"
            }
          }
        ],
        "text": {
          "status": "generated",
          "div": "<div xmlns=\"http://www.w3.org/1999/xhtml\"><table class=\"hl7__eu__lab__report\"><tr><th>Test</th><th>08-Jun-2022</th><th>Reference&#xA0;Range</th><th>Unit</th></tr><tr><td>Hemoglobin A1c/Hemoglobin.total in Blood</td><td>5.8</td><td>4.5 - 6.4</td><td></td><td>%</td></tr></table></div>"
        },
        "status": "final",
        "subject": {
          "reference": "urn:uuid:854c8b7b-de71-49d9-9143-435dad4e80de",
          "display": "Magdolna Balog"
        },
        "effectiveDateTime": "2022-06-08T13:34:16Z",
        "specimen": {
          "reference": "urn:uuid:16f77a6d-ce14-4eb3-9d4c-2f66254f5ef3"
        }
      }
    },
    {
      "fullUrl": "urn:uuid:db724a03-a175-4047-81da-d7a6f5c84681",
      "resource": {
        "resourceType": "Observation",
        "id": "db724a03-a175-4047-81da-d7a6f5c84681",
        "meta": {
          "profile": [
            "http://hl7.eu/fhir/laboratory/StructureDefinition/Observation-resultslab-eu-lab"
          ]
        },
        "performer": [
          {
            "display": "The Central European Lab"
          }
        ],
        "category": [
          {
            "coding": [
              {
                "system": "http://terminology.hl7.org/CodeSystem/observation-category",
                "code": "laboratory"
              }
            ]
          }
        ],
        "code": {
          "coding": [
            {
              "code": "2339-0",
              "system": "http://loinc.org",
              "display": "Glucose [Mass/volume] in Blood"
            }
          ],
          "text": "Glucose [Mass/volume] in Blood"
        },
        "valueQuantity": {
          "system": "http://unitsofmeasure.org",
          "value": 83.7,
          "unit": "mg/dL",
          "code": "mg/dL"
        },
        "referenceRange": [
          {
            "low": {
              "value": 70,
              "code": "mg/dL",
              "system": "http://unitsofmeasure.org"
            }
          },
          {
            "high": {
              "value": 140,
              "code": "mg/dL",
              "system": "http://unitsofmeasure.org"
            }
          }
        ],
        "text": {
          "status": "generated",
          "div": "<div xmlns=\"http://www.w3.org/1999/xhtml\"><table class=\"hl7__eu__lab__report\"><tr><th>Test</th><th>08-Jun-2022</th><th>Reference&#xA0;Range</th><th>Unit</th></tr><tr><td>Glucose [Mass/volume] in Blood</td><td>83.7</td><td>70 - 140</td><td></td><td>mg/dL</td></tr></table></div>"
        },
        "status": "final",
        "subject": {
          "reference": "urn:uuid:854c8b7b-de71-49d9-9143-435dad4e80de",
          "display": "Magdolna Balog"
        },
        "effectiveDateTime": "2022-06-08T13:34:16Z",
        "specimen": {
          "reference": "urn:uuid:16f77a6d-ce14-4eb3-9d4c-2f66254f5ef3"
        }
      }
    },
    {
      "fullUrl": "urn:uuid:c664973f-3689-4f44-a34a-ce00182deeb4",
      "resource": {
        "resourceType": "Observation",
        "id": "c664973f-3689-4f44-a34a-ce00182deeb4",
        "meta": {
          "profile": [
            "http://hl7.eu/fhir/laboratory/StructureDefinition/Observation-resultslab-eu-lab"
          ]
        },
        "performer": [
          {
            "display": "The Central European Lab"
          }
        ],
        "category": [
          {
            "coding": [
              {
                "system": "http://terminology.hl7.org/CodeSystem/observation-category",
                "code": "laboratory"
              }
            ]
          }
        ],
        "code": {
          "coding": [
            {
              "code": "6299-2",
              "system": "http://loinc.org",
              "display": "Urea nitrogen [Mass/volume] in Blood"
            }
          ],
          "text": "Urea nitrogen [Mass/volume] in Blood"
        },
        "valueQuantity": {
          "system": "http://unitsofmeasure.org",
          "value": 17.9,
          "unit": "mg/dL",
          "code": "mg/dL"
        },
        "referenceRange": [
          {
            "low": {
              "value": 7,
              "code": "mg/dL",
              "system": "http://unitsofmeasure.org"
            }
          },
          {
            "high": {
              "value": 20,
              "code": "mg/dL",
              "system": "http://unitsofmeasure.org"
            }
          }
        ],
        "text": {
          "status": "generated",
          "div": "<div xmlns=\"http://www.w3.org/1999/xhtml\"><table class=\"hl7__eu__lab__report\"><tr><th>Test</th><th>08-Jun-2022</th><th>Reference&#xA0;Range</th><th>Unit</th></tr><tr><td>Urea nitrogen [Mass/volume] in Blood</td><td>17.9</td><td>7 - 20</td><td></td><td>mg/dL</td></tr></table></div>"
        },
        "status": "final",
        "subject": {
          "reference": "urn:uuid:854c8b7b-de71-49d9-9143-435dad4e80de",
          "display": "Magdolna Balog"
        },
        "effectiveDateTime": "2022-06-08T13:34:16Z",
        "specimen": {
          "reference": "urn:uuid:16f77a6d-ce14-4eb3-9d4c-2f66254f5ef3"
        }
      }
    },
    {
      "fullUrl": "urn:uuid:43c33dbe-a264-4e79-b348-8b8791e40695",
      "resource": {
        "resourceType": "Observation",
        "id": "43c33dbe-a264-4e79-b348-8b8791e40695",
        "meta": {
          "profile": [
            "http://hl7.eu/fhir/laboratory/StructureDefinition/Observation-resultslab-eu-lab"
          ]
        },
        "performer": [
          {
            "display": "The Central European Lab"
          }
        ],
        "category": [
          {
            "coding": [
              {
                "system": "http://terminology.hl7.org/CodeSystem/observation-category",
                "code": "laboratory"
              }
            ]
          }
        ],
        "code": {
          "coding": [
            {
              "code": "38483-4",
              "system": "http://loinc.org",
              "display": "Creatinine [Mass/volume] in Blood"
            }
          ],
          "text": "Creatinine [Mass/volume] in Blood"
        },
        "valueQuantity": {
          "system": "http://unitsofmeasure.org",
          "value": 0.5,
          "unit": "mg/dL",
          "code": "mg/dL"
        },
        "referenceRange": [
          {
            "low": {
              "value": 0.6,
              "code": "mg/dL",
              "system": "http://unitsofmeasure.org"
            }
          },
          {
            "high": {
              "value": 1.1,
              "code": "mg/dL",
              "system": "http://unitsofmeasure.org"
            }
          }
        ],
        "interpretation": [
          {
            "coding": [
              {
                "code": "L",
                "system": "http://terminology.hl7.org/CodeSystem/v3-ObservationInterpretation",
                "display": "Low"
              }
            ]
          }
        ],
        "text": {
          "status": "generated",
          "div": "<div xmlns=\"http://www.w3.org/1999/xhtml\"><table class=\"hl7__eu__lab__report\"><tr><th>Test</th><th>08-Jun-2022</th><th>Reference&#xA0;Range</th><th>Unit</th></tr><tr><td>Creatinine [Mass/volume] in Blood</td><td>0.5</td><td>0.6 - 1.1</td><td>L</td><td>mg/dL</td></tr></table></div>"
        },
        "status": "final",
        "subject": {
          "reference": "urn:uuid:854c8b7b-de71-49d9-9143-435dad4e80de",
          "display": "Magdolna Balog"
        },
        "effectiveDateTime": "2022-06-08T13:34:16Z",
        "specimen": {
          "reference": "urn:uuid:16f77a6d-ce14-4eb3-9d4c-2f66254f5ef3"
        }
      }
    },
    {
      "fullUrl": "urn:uuid:a1613a38-e869-47e8-b55c-20f34ec95bac",
      "resource": {
        "resourceType": "Observation",
        "id": "a1613a38-e869-47e8-b55c-20f34ec95bac",
        "meta": {
          "profile": [
            "http://hl7.eu/fhir/laboratory/StructureDefinition/Observation-resultslab-eu-lab"
          ]
        },
        "performer": [
          {
            "display": "The Central European Lab"
          }
        ],
        "category": [
          {
            "coding": [
              {
                "system": "http://terminology.hl7.org/CodeSystem/observation-category",
                "code": "laboratory"
              }
            ]
          }
        ],
        "code": {
          "coding": [
            {
              "code": "49765-1",
              "system": "http://loinc.org",
              "display": "Calcium [Mass/volume] in Blood"
            }
          ],
          "text": "Calcium [Mass/volume] in Blood"
        },
        "valueQuantity": {
          "system": "http://unitsofmeasure.org",
          "value": 9.2,
          "unit": "mg/dL",
          "code": "mg/dL"
        },
        "referenceRange": [
          {
            "low": {
              "value": 8.5,
              "code": "mg/dL",
              "system": "http://unitsofmeasure.org"
            }
          },
          {
            "high": {
              "value": 10.4,
              "code": "mg/dL",
              "system": "http://unitsofmeasure.org"
            }
          }
        ],
        "text": {
          "status": "generated",
          "div": "<div xmlns=\"http://www.w3.org/1999/xhtml\"><table class=\"hl7__eu__lab__report\"><tr><th>Test</th><th>08-Jun-2022</th><th>Reference&#xA0;Range</th><th>Unit</th></tr><tr><td>Calcium [Mass/volume] in Blood</td><td>9.2</td><td>8.5 - 10.4</td><td></td><td>mg/dL</td></tr></table></div>"
        },
        "status": "final",
        "subject": {
          "reference": "urn:uuid:854c8b7b-de71-49d9-9143-435dad4e80de",
          "display": "Magdolna Balog"
        },
        "effectiveDateTime": "2022-06-08T13:34:16Z",
        "specimen": {
          "reference": "urn:uuid:16f77a6d-ce14-4eb3-9d4c-2f66254f5ef3"
        }
      }
    },
    {
      "fullUrl": "urn:uuid:5b4c51c2-1794-448f-bc4a-d887da0f2ef2",
      "resource": {
        "resourceType": "Observation",
        "id": "5b4c51c2-1794-448f-bc4a-d887da0f2ef2",
        "meta": {
          "profile": [
            "http://hl7.eu/fhir/laboratory/StructureDefinition/Observation-resultslab-eu-lab"
          ]
        },
        "performer": [
          {
            "display": "The Central European Lab"
          }
        ],
        "category": [
          {
            "coding": [
              {
                "system": "http://terminology.hl7.org/CodeSystem/observation-category",
                "code": "laboratory"
              }
            ]
          }
        ],
        "code": {
          "coding": [
            {
              "code": "2947-0",
              "system": "http://loinc.org",
              "display": "Sodium [Moles/volume] in Blood"
            }
          ],
          "text": "Sodium [Moles/volume] in Blood"
        },
        "valueQuantity": {
          "system": "http://unitsofmeasure.org",
          "value": 141,
          "unit": "mmol/L",
          "code": "mmol/L"
        },
        "referenceRange": [
          {
            "low": {
              "value": 135,
              "code": "mmol/L",
              "system": "http://unitsofmeasure.org"
            }
          },
          {
            "high": {
              "value": 145,
              "code": "mmol/L",
              "system": "http://unitsofmeasure.org"
            }
          }
        ],
        "text": {
          "status": "generated",
          "div": "<div xmlns=\"http://www.w3.org/1999/xhtml\"><table class=\"hl7__eu__lab__report\"><tr><th>Test</th><th>08-Jun-2022</th><th>Reference&#xA0;Range</th><th>Unit</th></tr><tr><td>Sodium [Moles/volume] in Blood</td><td>141.0</td><td>135 - 145</td><td></td><td>mmol/L</td></tr></table></div>"
        },
        "status": "final",
        "subject": {
          "reference": "urn:uuid:854c8b7b-de71-49d9-9143-435dad4e80de",
          "display": "Magdolna Balog"
        },
        "effectiveDateTime": "2022-06-08T13:34:16Z",
        "specimen": {
          "reference": "urn:uuid:16f77a6d-ce14-4eb3-9d4c-2f66254f5ef3"
        }
      }
    },
    {
      "fullUrl": "urn:uuid:e6ea81a4-2579-4862-a528-20b4d29abecf",
      "resource": {
        "resourceType": "Observation",
        "id": "e6ea81a4-2579-4862-a528-20b4d29abecf",
        "meta": {
          "profile": [
            "http://hl7.eu/fhir/laboratory/StructureDefinition/Observation-resultslab-eu-lab"
          ]
        },
        "performer": [
          {
            "display": "The Central European Lab"
          }
        ],
        "category": [
          {
            "coding": [
              {
                "system": "http://terminology.hl7.org/CodeSystem/observation-category",
                "code": "laboratory"
              }
            ]
          }
        ],
        "code": {
          "coding": [
            {
              "code": "6298-4",
              "system": "http://loinc.org",
              "display": "Potassium [Moles/volume] in Blood"
            }
          ],
          "text": "Potassium [Moles/volume] in Blood"
        },
        "valueQuantity": {
          "system": "http://unitsofmeasure.org",
          "value": 4.1,
          "unit": "mmol/L",
          "code": "mmol/L"
        },
        "referenceRange": [
          {
            "low": {
              "value": 3.5,
              "code": "mmol/L",
              "system": "http://unitsofmeasure.org"
            }
          },
          {
            "high": {
              "value": 5.1,
              "code": "mmol/L",
              "system": "http://unitsofmeasure.org"
            }
          }
        ],
        "text": {
          "status": "generated",
          "div": "<div xmlns=\"http://www.w3.org/1999/xhtml\"><table class=\"hl7__eu__lab__report\"><tr><th>Test</th><th>08-Jun-2022</th><th>Reference&#xA0;Range</th><th>Unit</th></tr><tr><td>Potassium [Moles/volume] in Blood</td><td>4.1</td><td>3.5 - 5.1</td><td></td><td>mmol/L</td></tr></table></div>"
        },
        "status": "final",
        "subject": {
          "reference": "urn:uuid:854c8b7b-de71-49d9-9143-435dad4e80de",
          "display": "Magdolna Balog"
        },
        "effectiveDateTime": "2022-06-08T13:34:16Z",
        "specimen": {
          "reference": "urn:uuid:16f77a6d-ce14-4eb3-9d4c-2f66254f5ef3"
        }
      }
    },
    {
      "fullUrl": "urn:uuid:82cd1dff-4621-4cdf-91e4-9e1ceff4b191",
      "resource": {
        "resourceType": "Observation",
        "id": "82cd1dff-4621-4cdf-91e4-9e1ceff4b191",
        "meta": {
          "profile": [
            "http://hl7.eu/fhir/laboratory/StructureDefinition/Observation-resultslab-eu-lab"
          ]
        },
        "performer": [
          {
            "display": "The Central European Lab"
          }
        ],
        "category": [
          {
            "coding": [
              {
                "system": "http://terminology.hl7.org/CodeSystem/observation-category",
                "code": "laboratory"
              }
            ]
          }
        ],
        "code": {
          "coding": [
            {
              "code": "2069-3",
              "system": "http://loinc.org",
              "display": "Chloride [Moles/volume] in Blood"
            }
          ],
          "text": "Chloride [Moles/volume] in Blood"
        },
        "valueQuantity": {
          "system": "http://unitsofmeasure.org",
          "value": 106.4,
          "unit": "mmol/L",
          "code": "mmol/L"
        },
        "referenceRange": [
          {
            "low": {
              "value": 98,
              "code": "mmol/L",
              "system": "http://unitsofmeasure.org"
            }
          },
          {
            "high": {
              "value": 107,
              "code": "mmol/L",
              "system": "http://unitsofmeasure.org"
            }
          }
        ],
        "text": {
          "status": "generated",
          "div": "<div xmlns=\"http://www.w3.org/1999/xhtml\"><table class=\"hl7__eu__lab__report\"><tr><th>Test</th><th>08-Jun-2022</th><th>Reference&#xA0;Range</th><th>Unit</th></tr><tr><td>Chloride [Moles/volume] in Blood</td><td>106.4</td><td>98 - 107</td><td></td><td>mmol/L</td></tr></table></div>"
        },
        "status": "final",
        "subject": {
          "reference": "urn:uuid:854c8b7b-de71-49d9-9143-435dad4e80de",
          "display": "Magdolna Balog"
        },
        "effectiveDateTime": "2022-06-08T13:34:16Z",
        "specimen": {
          "reference": "urn:uuid:16f77a6d-ce14-4eb3-9d4c-2f66254f5ef3"
        }
      }
    },
    {
      "fullUrl": "urn:uuid:e702e6d3-03f8-4e55-a1ee-8d2d28775712",
      "resource": {
        "resourceType": "Observation",
        "id": "e702e6d3-03f8-4e55-a1ee-8d2d28775712",
        "meta": {
          "profile": [
            "http://hl7.eu/fhir/laboratory/StructureDefinition/Observation-resultslab-eu-lab"
          ]
        },
        "performer": [
          {
            "display": "The Central European Lab"
          }
        ],
        "category": [
          {
            "coding": [
              {
                "system": "http://terminology.hl7.org/CodeSystem/observation-category",
                "code": "laboratory"
              }
            ]
          }
        ],
        "code": {
          "coding": [
            {
              "code": "20565-8",
              "system": "http://loinc.org",
              "display": "Carbon dioxide, total [Moles/volume] in Blood"
            }
          ],
          "text": "Carbon dioxide, total [Moles/volume] in Blood"
        },
        "valueQuantity": {
          "system": "http://unitsofmeasure.org",
          "value": 24.5,
          "unit": "mmol/L",
          "code": "mmol/L"
        },
        "referenceRange": [
          {
            "low": {
              "value": 22,
              "code": "mmol/L",
              "system": "http://unitsofmeasure.org"
            }
          },
          {
            "high": {
              "value": 29,
              "code": "mmol/L",
              "system": "http://unitsofmeasure.org"
            }
          }
        ],
        "text": {
          "status": "generated",
          "div": "<div xmlns=\"http://www.w3.org/1999/xhtml\"><table class=\"hl7__eu__lab__report\"><tr><th>Test</th><th>08-Jun-2022</th><th>Reference&#xA0;Range</th><th>Unit</th></tr><tr><td>Carbon dioxide, total [Moles/volume] in Blood</td><td>24.5</td><td>22 - 29</td><td></td><td>mmol/L</td></tr></table></div>"
        },
        "status": "final",
        "subject": {
          "reference": "urn:uuid:854c8b7b-de71-49d9-9143-435dad4e80de",
          "display": "Magdolna Balog"
        },
        "effectiveDateTime": "2022-06-08T13:34:16Z",
        "specimen": {
          "reference": "urn:uuid:16f77a6d-ce14-4eb3-9d4c-2f66254f5ef3"
        }
      }
    },
    {
      "fullUrl": "urn:uuid:ded3472a-49b4-4ce1-872b-5343baca1514",
      "resource": {
        "resourceType": "Device",
        "id": "ded3472a-49b4-4ce1-872b-5343baca1514",
        "deviceName": [
          {
            "name": "SYNDERAI Synthetic Generator",
            "type": "manufacturer-name"
          }
        ],
        "version": [
          {
            "value": "5.0"
          }
        ],
        "text": {
          "status": "generated",
          "div": "<div xmlns=\"http://www.w3.org/1999/xhtml\">SYNDERAI Synthetic Generator v5.0</div>"
        },
        "status": "active\"",
        "distinctIdentifier": "synderai-generator-50",
        "manufacturer": "SYNDERAI Project"
      }
    },
    {
      "fullUrl": "urn:uuid:f9a1241e-56b4-4965-a4aa-69835a4d74f1",
      "resource": {
        "resourceType": "Provenance",
        "id": "f9a1241e-56b4-4965-a4aa-69835a4d74f1",
        "target": [
          {
            "reference": "Patient/854c8b7b-de71-49d9-9143-435dad4e80de"
          },
          {
            "reference": "Bundle/5851bbfe-f418-43c2-947a-88c2d3dcf959"
          },
          {
            "reference": "Composition/abb4eca7-a0a4-448e-bea4-8cd5e8472848"
          },
          {
            "reference": "PractitionerRole/fa45d92a-4a8b-4d6b-88ea-97f56e58fdf8"
          },
          {
            "reference": "Practitioner/483a8c51-7a7f-45d2-bfc7-4c99b2f0da96"
          },
          {
            "reference": "PractitionerRole/940b1a55-2cb5-4934-8bdf-0aa97aba56f8"
          },
          {
            "reference": "Organization/924e27c3-309b-4adc-b093-0fec6b80180b"
          }
        ],
        "activity": {
          "text": "Synthetic Example Data Generation"
        },
        "policy": [
          "https://synderai.net/synderai-synthetic-data-policy"
        ],
        "agent": [
          {
            "type": {
              "text": "author"
            },
            "who": {
              "reference": "Device/ded3472a-49b4-4ce1-872b-5343baca1514"
            }
          }
        ],
        "reason": [
          {
            "text": "Interoperability Testing and Training (non-clinical use)"
          }
        ],
        "text": {
          "status": "generated",
          "div": "<div xmlns=\"http://www.w3.org/1999/xhtml\">Provenance for SYNDERAI Synthetic Example Data Resource</div>"
        },
        "recorded": "2022-06-08T15:34:16Z"
      }
    },
    {
      "fullUrl": "urn:uuid:fa45d92a-4a8b-4d6b-88ea-97f56e58fdf8",
      "resource": {
        "resourceType": "PractitionerRole",
        "id": "fa45d92a-4a8b-4d6b-88ea-97f56e58fdf8",
        "meta": {
          "profile": [
            "http://hl7.eu/fhir/base/StructureDefinition/practitionerRole-eu"
          ]
        },
        "text": {
          "status": "generated",
          "div": "<div xmlns=\"http://www.w3.org/1999/xhtml\">Laboratory Role Id: fa45d92a-4a8b-4d6b-88ea-97f56e58fdf8</div>"
        },
        "practitioner": {
          "reference": "urn:uuid:483a8c51-7a7f-45d2-bfc7-4c99b2f0da96"
        }
      }
    },
    {
      "fullUrl": "urn:uuid:483a8c51-7a7f-45d2-bfc7-4c99b2f0da96",
      "resource": {
        "resourceType": "Practitioner",
        "id": "483a8c51-7a7f-45d2-bfc7-4c99b2f0da96",
        "meta": {
          "profile": [
            "http://hl7.eu/fhir/base/StructureDefinition/practitioner-eu"
          ]
        },
        "identifier": [
          {
            "assigner": {
              "display": "HL7 Europe"
            },
            "system": "urn:oid:2.16.840.1.113883.2.51.999",
            "value": "7a039d70-0f75-445e-977c-a613afe1a4e2"
          }
        ],
        "name": [
          {
            "prefix": [
              "dr"
            ],
            "given": [
              "Ex"
            ],
            "family": "Ample"
          }
        ],
        "address": [
          {
            "line": [
              "Laboratoire Central Européenne",
              "Boulevard du Jardin Botanique 32"
            ],
            "postalCode": "1000",
            "city": "Brussels",
            "country": "Belgium"
          }
        ],
        "text": {
          "status": "generated",
          "div": "<div xmlns=\"http://www.w3.org/1999/xhtml\">Laboratory: Laboratoire Central Européenne, 1000 Brussels, Belgium</div>"
        }
      }
    }
  ],
  "type": "document",
  "timestamp": "2022-06-08T15:34:16Z"
}
