{
  "resourceType": "Bundle",
  "id": "046a58d8-c219-4e26-99d7-60743ae78e7b",
  "meta": {
    "profile": [
      "http://hl7.eu/fhir/laboratory/StructureDefinition/Bundle-eu-lab"
    ]
  },
  "identifier": {
    "assigner": {
      "display": "HL7 Europe"
    },
    "system": "urn:oid:2.16.840.1.113883.2.51.999",
    "value": "30090c47-0cb6-4ca7-b19e-da6066f661f7"
  },
  "entry": [
    {
      "fullUrl": "urn:uuid:99f6be97-a5d4-47e3-ab59-08e11a7f463d",
      "resource": {
        "resourceType": "Composition",
        "id": "99f6be97-a5d4-47e3-ab59-08e11a7f463d",
        "meta": {
          "profile": [
            "http://hl7.eu/fhir/laboratory/StructureDefinition/Composition-eu-lab"
          ]
        },
        "identifier": {
          "assigner": {
            "display": "HL7 Europe"
          },
          "system": "urn:oid:2.16.840.1.113883.2.51.999",
          "value": "f0065086-09cb-4876-a1f0-d1f5ed694b2c"
        },
        "author": [
          {
            "reference": "urn:uuid:d74002d5-3455-4001-895d-e1ed180c48b9"
          }
        ],
        "category": [
          {
            "coding": [
              {
                "code": "26436-6",
                "system": "http://loinc.org",
                "display": "Laboratory studies (set)"
              }
            ]
          }
        ],
        "type": {
          "coding": [
            {
              "code": "11502-2",
              "system": "http://loinc.org",
              "display": "Laboratory report"
            }
          ],
          "text": "Laboratory Report"
        },
        "section": [
          {
            "code": {
              "coding": [
                {
                  "code": "26436-6",
                  "system": "http://loinc.org",
                  "display": "Laboratory studies (set)"
                }
              ],
              "text": "Laboratory studies"
            },
            "section": [
              {
                "code": {
                  "coding": [
                    {
                      "code": "$18719-5",
                      "system": "http://loinc.org",
                      "display": "Chemistry studies (set)"
                    }
                  ],
                  "text": "Chemistry"
                },
                "entry": [
                  {
                    "reference": "urn:uuid:c76df114-b9da-42d3-8511-e218517a4198"
                  },
                  {
                    "reference": "urn:uuid:9d6ca0a9-9006-461b-a912-01bc8a1af0fa"
                  },
                  {
                    "reference": "urn:uuid:200895bc-3a1e-4fcb-9de1-a3e71c5c62fe"
                  },
                  {
                    "reference": "urn:uuid:d18b1cf5-9f27-4643-bc7d-1118f13dbe8f"
                  },
                  {
                    "reference": "urn:uuid:71b5e1ce-0a82-4188-8eb9-9588e40033c2"
                  },
                  {
                    "reference": "urn:uuid:5aca7d4e-9df3-4f32-806b-ee10a43012ea"
                  },
                  {
                    "reference": "urn:uuid:2bab5a4f-242a-4264-8d7d-f3bd13f0dbc3"
                  },
                  {
                    "reference": "urn:uuid:69c18c6e-e889-4c70-97bd-85178401b2bb"
                  },
                  {
                    "reference": "urn:uuid:aab1b18d-8c5c-4cbc-9617-678e01e71947"
                  },
                  {
                    "reference": "urn:uuid:9d01fd03-9a91-4eb6-bc69-35236d388743"
                  },
                  {
                    "reference": "urn:uuid:564d82fe-1796-465f-baac-dc5d059a71e5"
                  },
                  {
                    "reference": "urn:uuid:ea0fd6c6-0a30-4ae5-abe1-4c2ad6be0aef"
                  },
                  {
                    "reference": "urn:uuid:fce90453-27e0-449a-a360-d90d65cb5ef4"
                  },
                  {
                    "reference": "urn:uuid:1172e65f-13aa-4040-85e2-dff924e0d728"
                  },
                  {
                    "reference": "urn:uuid:a0be405c-fc1a-4a10-97a0-4f296a5e0d5a"
                  },
                  {
                    "reference": "urn:uuid:d5b4341b-eaa4-42bd-8ddc-fa0837b2cc07"
                  },
                  {
                    "reference": "urn:uuid:638e1f8f-8cf7-4e9d-9b59-10b92660d81c"
                  },
                  {
                    "reference": "urn:uuid:4b18d355-2a0c-400d-a179-872912a40d61"
                  },
                  {
                    "reference": "urn:uuid:4f301acd-6eaa-4689-8fd1-8f595734f844"
                  }
                ],
                "text": {
                  "status": "generated",
                  "div": "<div xmlns=\"http://www.w3.org/1999/xhtml\"><h3>Chemistry</h3><table class=\"hl7__eu__lab__report\"><thead><tr><th>Test</th><th>01-MAR-2018</th><th>Reference&#xA0;Range</th><th>Unit</th></tr></thead><tbody><tr><td>Glucose [Mass/volume] in Blood</td><td>92.5</td><td>70 - 99</td><td>mg/dL</td></tr><tr><td>Urea nitrogen [Mass/volume] in Blood</td><td>18.8</td><td>7 - 45</td><td>mg/dL</td></tr><tr><td>Creatinine [Mass/volume] in Blood</td><td><strong>2.9 H</strong></td><td>0.6 - 1.1</td><td>mg/dL</td></tr><tr><td>Calcium [Mass/volume] in Blood</td><td>10.0</td><td>8.5 - 10.4</td><td>mg/dL</td></tr><tr><td>Sodium [Moles/volume] in Blood</td><td>137.8</td><td>135 - 145</td><td>mmol/L</td></tr><tr><td>Potassium [Moles/volume] in Blood</td><td>4.5</td><td>3.5 - 5.1</td><td>mmol/L</td></tr><tr><td>Chloride [Moles/volume] in Blood</td><td>101.1</td><td>98 - 110</td><td>mmol/L</td></tr><tr><td>Carbon dioxide, total [Moles/volume] in Blood</td><td>28.2</td><td>22 - 29</td><td>mmol/L</td></tr><tr><td>Protein [Mass/volume] in Serum or Plasma</td><td>7.8</td><td>6 - 8.3</td><td>g/dL</td></tr><tr><td>Albumin [Mass/volume] in Serum or Plasma</td><td>4.7</td><td>3.5 - 5.5</td><td>g/dL</td></tr><tr><td>Globulin [Mass/volume] in Serum by calculation</td><td>2.5</td><td>2 - 3.5</td><td>g/L</td></tr><tr><td>Bilirubin.total [Mass/volume] in Serum or Plasma</td><td>0.4</td><td>0.3 - 1.2</td><td>mg/dL</td></tr><tr><td>Alkaline phosphatase [Enzymatic activity/volume] in Serum or Plasma</td><td>108.4</td><td>44 - 130</td><td>U/L</td></tr><tr><td>Alanine aminotransferase [Enzymatic activity/volume] in Serum or Plasma</td><td>32.9</td><td>7 - 33</td><td>U/L</td></tr><tr><td>Aspartate aminotransferase [Enzymatic activity/volume] in Serum or Plasma</td><td><strong>9.0 L</strong></td><td>10 - 40</td><td>U/L</td></tr><tr><td>Cholesterol [Mass/volume] in Serum or Plasma</td><td>196.1</td><td>125 - 200</td><td>mg/dL</td></tr><tr><td>Triglyceride [Mass/volume] in Serum or Plasma</td><td>104.2</td><td>10 - 175</td><td>mg/dL</td></tr><tr><td>Cholesterol in LDL [Mass/volume] in Serum or Plasma by Direct assay</td><td>121.6</td><td>0 - 130</td><td>mg/dL</td></tr><tr><td>Cholesterol in HDL [Mass/volume] in Serum or Plasma</td><td>45.0</td><td>40 - 100</td><td>mg/dL</td></tr></tbody></table></div>"
                },
                "title": "Chemistry"
              }
            ],
            "title": "Laboratory Report"
          },
          {
            "text": {
              "status": "generated",
              "div": "<div xmlns=\"http://www.w3.org/1999/xhtml\"><h3>Annotation</h3><table class=\"hl7__eu__lab__report\"><tr><th>Conclusion and Recommendations based on this report and previous findings known to us</th></tr><tr><td>All parameters are within normal limits except for elevated creatinine, indicating impaired renal function, and mildly decreased AST, which is not clinically significant. Electrolytes, liver function, glucose, and lipid profile are unremarkable. Renal impairment should be further evaluated and correlated clinically.</td></tr></table></div>"
            },
            "code": {
              "coding": [
                {
                  "system": "http://loinc.org",
                  "code": "48767-8",
                  "display": "Annotation comment"
                }
              ]
            },
            "title": "Annotation comment"
          }
        ],
        "status": "final",
        "subject": {
          "reference": "urn:uuid:43048995-a179-4dab-ad2f-d0df7ecf10ee",
          "display": "Marthe Gallet"
        },
        "date": "2018-03-01T20:05:43Z",
        "title": "Laboratory Report",
        "confidentiality": "N"
      }
    },
    {
      "fullUrl": "urn:uuid:d086b736-4ee4-4b5b-8667-339b8db2859d",
      "resource": {
        "resourceType": "DiagnosticReport",
        "id": "d086b736-4ee4-4b5b-8667-339b8db2859d",
        "meta": {
          "profile": [
            "http://hl7.eu/fhir/laboratory/StructureDefinition/DiagnosticReport-eu-lab"
          ]
        },
        "identifier": [
          {
            "assigner": {
              "display": "HL7 Europe"
            },
            "system": "urn:oid:2.16.840.1.113883.2.51.999",
            "value": "c3808a7f-12a3-4c4c-ab0c-ee433fc52d36"
          }
        ],
        "extension": [
          {
            "url": "http://hl7.org/fhir/5.0/StructureDefinition/extension-DiagnosticReport.composition",
            "valueReference": {
              "reference": "urn:uuid:f0065086-09cb-4876-a1f0-d1f5ed694b2c"
            }
          }
        ],
        "category": [
          {
            "coding": [
              {
                "code": "26436-6",
                "system": "http://loinc.org",
                "display": "Laboratory studies (set)"
              }
            ]
          }
        ],
        "specimen": [
          {
            "reference": "urn:uuid:688e5214-668f-426c-a7f6-ba9b3713fd44"
          },
          {
            "reference": "urn:uuid:ac5ee4a9-6c3c-44a3-b525-737afd234010"
          },
          {
            "reference": "urn:uuid:278ccd17-566e-4dbb-88a8-55a3a607a598"
          }
        ],
        "result": [
          {
            "reference": "urn:uuid:c76df114-b9da-42d3-8511-e218517a4198"
          },
          {
            "reference": "urn:uuid:9d6ca0a9-9006-461b-a912-01bc8a1af0fa"
          },
          {
            "reference": "urn:uuid:200895bc-3a1e-4fcb-9de1-a3e71c5c62fe"
          },
          {
            "reference": "urn:uuid:d18b1cf5-9f27-4643-bc7d-1118f13dbe8f"
          },
          {
            "reference": "urn:uuid:71b5e1ce-0a82-4188-8eb9-9588e40033c2"
          },
          {
            "reference": "urn:uuid:5aca7d4e-9df3-4f32-806b-ee10a43012ea"
          },
          {
            "reference": "urn:uuid:2bab5a4f-242a-4264-8d7d-f3bd13f0dbc3"
          },
          {
            "reference": "urn:uuid:69c18c6e-e889-4c70-97bd-85178401b2bb"
          },
          {
            "reference": "urn:uuid:aab1b18d-8c5c-4cbc-9617-678e01e71947"
          },
          {
            "reference": "urn:uuid:9d01fd03-9a91-4eb6-bc69-35236d388743"
          },
          {
            "reference": "urn:uuid:564d82fe-1796-465f-baac-dc5d059a71e5"
          },
          {
            "reference": "urn:uuid:ea0fd6c6-0a30-4ae5-abe1-4c2ad6be0aef"
          },
          {
            "reference": "urn:uuid:fce90453-27e0-449a-a360-d90d65cb5ef4"
          },
          {
            "reference": "urn:uuid:1172e65f-13aa-4040-85e2-dff924e0d728"
          },
          {
            "reference": "urn:uuid:a0be405c-fc1a-4a10-97a0-4f296a5e0d5a"
          },
          {
            "reference": "urn:uuid:d5b4341b-eaa4-42bd-8ddc-fa0837b2cc07"
          },
          {
            "reference": "urn:uuid:638e1f8f-8cf7-4e9d-9b59-10b92660d81c"
          },
          {
            "reference": "urn:uuid:4b18d355-2a0c-400d-a179-872912a40d61"
          },
          {
            "reference": "urn:uuid:4f301acd-6eaa-4689-8fd1-8f595734f844"
          }
        ],
        "status": "registered",
        "code": {
          "coding": [
            {
              "code": "11502-2",
              "system": "http://loinc.org",
              "display": "Laboratory report"
            }
          ]
        },
        "subject": {
          "reference": "urn:uuid:43048995-a179-4dab-ad2f-d0df7ecf10ee",
          "display": "Marthe Gallet"
        }
      }
    },
    {
      "fullUrl": "urn:uuid:43048995-a179-4dab-ad2f-d0df7ecf10ee",
      "resource": {
        "resourceType": "Patient",
        "id": "43048995-a179-4dab-ad2f-d0df7ecf10ee",
        "meta": {
          "security": [
            {
              "system": "http://terminology.hl7.org/CodeSystem/v3-ActReason",
              "code": "HTEST"
            },
            {
              "system": "http://terminology.hl7.org/CodeSystem/v3-ActReason",
              "code": "TRAIN"
            }
          ],
          "tag": [
            {
              "system": "https://synderai.net/fhir/CodeSystem/tags",
              "code": "synthetic",
              "display": "SYNDERAI Synthetic data"
            }
          ],
          "profile": [
            "http://hl7.eu/fhir/base/StructureDefinition/patient-eu-core"
          ]
        },
        "identifier": [
          {
            "type": {
              "coding": [
                {
                  "code": "PT",
                  "system": "http://terminology.hl7.org/CodeSystem/v2-0203"
                }
              ]
            },
            "system": "http://ec.europa.eu/identifier/eci",
            "value": "9444-947487-6"
          },
          {
            "type": {
              "coding": [
                {
                  "code": "MR",
                  "system": "http://terminology.hl7.org/CodeSystem/v2-0203"
                }
              ]
            },
            "system": "http://local.setting.eu/identifier",
            "value": "854228d5-a476-2d9c-a1d7-c3202375a617"
          }
        ],
        "name": [
          {
            "family": "Gallet"
          },
          {
            "given": [
              "Marthe"
            ]
          },
          {
            "text": "Marthe Gallet"
          }
        ],
        "address": [
          {
            "line": [
              "3, rue Emmanuel Goncalves"
            ],
            "use": "home",
            "type": "physical",
            "postalCode": "49490",
            "city": "Briand",
            "country": "France"
          }
        ],
        "telecom": [
          {
            "system": "phone",
            "value": "+33 1 70 99 82 74"
          }
        ],
        "extension": [
          {
            "url": "http://hl7.org/fhir/StructureDefinition/patient-nationality",
            "valueCodeableConcept": {
              "coding": [
                {
                  "code": "FR",
                  "system": "http://hl7.org/fhir/ValueSet/country"
                }
              ]
            }
          }
        ],
        "text": {
          "status": "generated",
          "div": "<div xmlns=\"http://www.w3.org/1999/xhtml\"><table class=\"hl7__ips\"><tr><td>Marthe Gallet</td><td>female</td><td>29-Oct-1950</td></tr></table></div>"
        },
        "gender": "female",
        "birthDate": "1950-10-29"
      }
    },
    {
      "fullUrl": "urn:uuid:96a6f73e-cf5f-4285-ae5c-58e7435c7f1d",
      "resource": {
        "resourceType": "ServiceRequest",
        "id": "96a6f73e-cf5f-4285-ae5c-58e7435c7f1d",
        "meta": {
          "profile": [
            "http://hl7.eu/fhir/laboratory/StructureDefinition/ServiceRequest-eu-lab"
          ]
        },
        "identifier": [
          {
            "system": "http://example.org",
            "value": "70131f82-22fe-4277-80c4-4ade44de34ae"
          }
        ],
        "specimen": [
          {
            "reference": "urn:uuid:688e5214-668f-426c-a7f6-ba9b3713fd44"
          },
          {
            "reference": "urn:uuid:ac5ee4a9-6c3c-44a3-b525-737afd234010"
          },
          {
            "reference": "urn:uuid:278ccd17-566e-4dbb-88a8-55a3a607a598"
          }
        ],
        "reasonCode": [
          {
            "coding": [
              {
                "code": "431856006",
                "system": "http://snomed.info/sct",
                "display": "Chronic kidney disease stage 2"
              }
            ]
          },
          {
            "coding": [
              {
                "code": "90781000119102",
                "system": "http://snomed.info/sct",
                "display": "Microalbuminuria due to type 2 diabetes mellitus"
              }
            ]
          },
          {
            "coding": [
              {
                "code": "127013003",
                "system": "http://snomed.info/sct",
                "display": "Disorder of kidney due to diabetes mellitus"
              }
            ]
          },
          {
            "coding": [
              {
                "code": "431855005",
                "system": "http://snomed.info/sct",
                "display": "Chronic kidney disease stage 1"
              }
            ]
          },
          {
            "coding": [
              {
                "code": "55822004",
                "system": "http://snomed.info/sct",
                "display": "Hyperlipidemia"
              }
            ]
          },
          {
            "coding": [
              {
                "code": "59621000",
                "system": "http://snomed.info/sct",
                "display": "Essential hypertension"
              }
            ]
          }
        ],
        "status": "active",
        "intent": "order",
        "code": {
          "coding": [
            {
              "code": "108252007",
              "system": "http://snomed.info/sct",
              "display": "Laboratory procedure"
            }
          ]
        },
        "subject": {
          "reference": "urn:uuid:43048995-a179-4dab-ad2f-d0df7ecf10ee",
          "display": "Marthe Gallet"
        },
        "requester": {
          "reference": "urn:uuid:5587235d-4ad0-41f1-9e7d-f57b57e02e3c"
        }
      }
    },
    {
      "fullUrl": "urn:uuid:5587235d-4ad0-41f1-9e7d-f57b57e02e3c",
      "resource": {
        "resourceType": "PractitionerRole",
        "id": "5587235d-4ad0-41f1-9e7d-f57b57e02e3c",
        "meta": {
          "profile": [
            "http://hl7.eu/fhir/base/StructureDefinition/practitionerRole-eu"
          ]
        },
        "text": {
          "status": "generated",
          "div": "<div xmlns=\"http://www.w3.org/1999/xhtml\">Provider Role Id: 5587235d-4ad0-41f1-9e7d-f57b57e02e3c</div>"
        },
        "organization": {
          "reference": "urn:uuid:b7e00735-9e8b-4450-90e8-8fef2274c569"
        }
      }
    },
    {
      "fullUrl": "urn:uuid:b7e00735-9e8b-4450-90e8-8fef2274c569",
      "resource": {
        "resourceType": "Organization",
        "id": "b7e00735-9e8b-4450-90e8-8fef2274c569",
        "meta": {
          "profile": [
            "http://hl7.eu/fhir/base/StructureDefinition/organization-eu"
          ]
        },
        "identifier": [
          {
            "assigner": {
              "display": "HL7 Europe"
            },
            "system": "urn:oid:2.16.840.1.113883.2.51.999",
            "value": "159b9309-72c6-4fbc-9906-6b3d6491a2b8"
          }
        ],
        "address": [
          {
            "line": [
              "Rue Larrey nan"
            ],
            "city": "Angers",
            "postalCode": "49100",
            "country": "France"
          }
        ],
        "text": {
          "status": "generated",
          "div": "<div xmlns=\"http://www.w3.org/1999/xhtml\">Provider Organization: CHU d&#039;Angers</div>"
        },
        "name": "CHU d&#039;Angers"
      }
    },
    {
      "fullUrl": "urn:uuid:688e5214-668f-426c-a7f6-ba9b3713fd44",
      "resource": {
        "resourceType": "Specimen",
        "id": "688e5214-668f-426c-a7f6-ba9b3713fd44",
        "meta": {
          "profile": [
            "http://hl7.eu/fhir/laboratory/StructureDefinition/Specimen-eu-lab"
          ]
        },
        "collection": {
          "collectedDateTime": "2018-03-01"
        },
        "text": {
          "status": "generated",
          "div": "<div xmlns=\"http://www.w3.org/1999/xhtml\"><table class=\"hl7__eu__lab__report\"><tr><th>Specimen</th><th>Collection Date</th></tr><tr><td>Whole blood specimen (specimen)</td><td><span class=\"nb\">01-Mar-2018</span></td></tr></table></div>"
        },
        "type": {
          "coding": [
            {
              "code": "258580003",
              "system": "http://snomed.info/sct",
              "display": "Whole blood specimen (specimen)"
            }
          ]
        }
      }
    },
    {
      "fullUrl": "urn:uuid:ac5ee4a9-6c3c-44a3-b525-737afd234010",
      "resource": {
        "resourceType": "Specimen",
        "id": "ac5ee4a9-6c3c-44a3-b525-737afd234010",
        "meta": {
          "profile": [
            "http://hl7.eu/fhir/laboratory/StructureDefinition/Specimen-eu-lab"
          ]
        },
        "collection": {
          "collectedDateTime": "2018-03-01"
        },
        "text": {
          "status": "generated",
          "div": "<div xmlns=\"http://www.w3.org/1999/xhtml\"><table class=\"hl7__eu__lab__report\"><tr><th>Specimen</th><th>Collection Date</th></tr><tr><td>Acellular blood (serum or plasma) specimen</td><td><span class=\"nb\">01-Mar-2018</span></td></tr></table></div>"
        },
        "type": {
          "coding": [
            {
              "code": "122592007",
              "system": "http://snomed.info/sct",
              "display": "Acellular blood (serum or plasma) specimen"
            }
          ]
        }
      }
    },
    {
      "fullUrl": "urn:uuid:278ccd17-566e-4dbb-88a8-55a3a607a598",
      "resource": {
        "resourceType": "Specimen",
        "id": "278ccd17-566e-4dbb-88a8-55a3a607a598",
        "meta": {
          "profile": [
            "http://hl7.eu/fhir/laboratory/StructureDefinition/Specimen-eu-lab"
          ]
        },
        "collection": {
          "collectedDateTime": "2018-03-01"
        },
        "text": {
          "status": "generated",
          "div": "<div xmlns=\"http://www.w3.org/1999/xhtml\"><table class=\"hl7__eu__lab__report\"><tr><th>Specimen</th><th>Collection Date</th></tr><tr><td>Serum specimen</td><td><span class=\"nb\">01-Mar-2018</span></td></tr></table></div>"
        },
        "type": {
          "coding": [
            {
              "code": "119364003",
              "system": "http://snomed.info/sct",
              "display": "Serum specimen"
            }
          ]
        }
      }
    },
    {
      "fullUrl": "urn:uuid:c76df114-b9da-42d3-8511-e218517a4198",
      "resource": {
        "resourceType": "Observation",
        "id": "c76df114-b9da-42d3-8511-e218517a4198",
        "meta": {
          "profile": [
            "http://hl7.eu/fhir/laboratory/StructureDefinition/Observation-resultslab-eu-lab"
          ]
        },
        "performer": [
          {
            "display": "The Central European Lab"
          }
        ],
        "category": [
          {
            "coding": [
              {
                "system": "http://terminology.hl7.org/CodeSystem/observation-category",
                "code": "laboratory"
              }
            ]
          }
        ],
        "code": {
          "coding": [
            {
              "code": "2339-0",
              "system": "http://loinc.org",
              "display": "Glucose [Mass/volume] in Blood"
            }
          ],
          "text": "Glucose [Mass/volume] in Blood"
        },
        "valueQuantity": {
          "system": "http://unitsofmeasure.org",
          "value": 92.5,
          "unit": "mg/dL",
          "code": "mg/dL"
        },
        "referenceRange": [
          {
            "low": {
              "value": 70,
              "code": "mg/dL",
              "system": "http://unitsofmeasure.org"
            }
          },
          {
            "high": {
              "value": 99,
              "code": "mg/dL",
              "system": "http://unitsofmeasure.org"
            }
          }
        ],
        "text": {
          "status": "generated",
          "div": "<div xmlns=\"http://www.w3.org/1999/xhtml\"><table class=\"hl7__eu__lab__report\"><tr><th>Test</th><th>01-Mar-2018</th><th>Reference&#xA0;Range</th><th>Unit</th></tr><tr><td>Glucose [Mass/volume] in Blood</td><td>92.5</td><td>70 - 99</td><td></td><td>mg/dL</td></tr></table></div>"
        },
        "status": "final",
        "subject": {
          "reference": "urn:uuid:43048995-a179-4dab-ad2f-d0df7ecf10ee",
          "display": "Marthe Gallet"
        },
        "effectiveDateTime": "2018-03-01T19:05:43Z",
        "specimen": {
          "reference": "urn:uuid:688e5214-668f-426c-a7f6-ba9b3713fd44"
        }
      }
    },
    {
      "fullUrl": "urn:uuid:9d6ca0a9-9006-461b-a912-01bc8a1af0fa",
      "resource": {
        "resourceType": "Observation",
        "id": "9d6ca0a9-9006-461b-a912-01bc8a1af0fa",
        "meta": {
          "profile": [
            "http://hl7.eu/fhir/laboratory/StructureDefinition/Observation-resultslab-eu-lab"
          ]
        },
        "performer": [
          {
            "display": "The Central European Lab"
          }
        ],
        "category": [
          {
            "coding": [
              {
                "system": "http://terminology.hl7.org/CodeSystem/observation-category",
                "code": "laboratory"
              }
            ]
          }
        ],
        "code": {
          "coding": [
            {
              "code": "6299-2",
              "system": "http://loinc.org",
              "display": "Urea nitrogen [Mass/volume] in Blood"
            }
          ],
          "text": "Urea nitrogen [Mass/volume] in Blood"
        },
        "valueQuantity": {
          "system": "http://unitsofmeasure.org",
          "value": 18.8,
          "unit": "mg/dL",
          "code": "mg/dL"
        },
        "referenceRange": [
          {
            "low": {
              "value": 7,
              "code": "mg/dL",
              "system": "http://unitsofmeasure.org"
            }
          },
          {
            "high": {
              "value": 45,
              "code": "mg/dL",
              "system": "http://unitsofmeasure.org"
            }
          }
        ],
        "text": {
          "status": "generated",
          "div": "<div xmlns=\"http://www.w3.org/1999/xhtml\"><table class=\"hl7__eu__lab__report\"><tr><th>Test</th><th>01-Mar-2018</th><th>Reference&#xA0;Range</th><th>Unit</th></tr><tr><td>Urea nitrogen [Mass/volume] in Blood</td><td>18.8</td><td>7 - 45</td><td></td><td>mg/dL</td></tr></table></div>"
        },
        "status": "final",
        "subject": {
          "reference": "urn:uuid:43048995-a179-4dab-ad2f-d0df7ecf10ee",
          "display": "Marthe Gallet"
        },
        "effectiveDateTime": "2018-03-01T19:05:43Z",
        "specimen": {
          "reference": "urn:uuid:688e5214-668f-426c-a7f6-ba9b3713fd44"
        }
      }
    },
    {
      "fullUrl": "urn:uuid:200895bc-3a1e-4fcb-9de1-a3e71c5c62fe",
      "resource": {
        "resourceType": "Observation",
        "id": "200895bc-3a1e-4fcb-9de1-a3e71c5c62fe",
        "meta": {
          "profile": [
            "http://hl7.eu/fhir/laboratory/StructureDefinition/Observation-resultslab-eu-lab"
          ]
        },
        "performer": [
          {
            "display": "The Central European Lab"
          }
        ],
        "category": [
          {
            "coding": [
              {
                "system": "http://terminology.hl7.org/CodeSystem/observation-category",
                "code": "laboratory"
              }
            ]
          }
        ],
        "code": {
          "coding": [
            {
              "code": "38483-4",
              "system": "http://loinc.org",
              "display": "Creatinine [Mass/volume] in Blood"
            }
          ],
          "text": "Creatinine [Mass/volume] in Blood"
        },
        "valueQuantity": {
          "system": "http://unitsofmeasure.org",
          "value": 2.9,
          "unit": "mg/dL",
          "code": "mg/dL"
        },
        "referenceRange": [
          {
            "low": {
              "value": 0.6,
              "code": "mg/dL",
              "system": "http://unitsofmeasure.org"
            }
          },
          {
            "high": {
              "value": 1.1,
              "code": "mg/dL",
              "system": "http://unitsofmeasure.org"
            }
          }
        ],
        "interpretation": [
          {
            "coding": [
              {
                "code": "H",
                "system": "http://terminology.hl7.org/CodeSystem/v3-ObservationInterpretation",
                "display": "High"
              }
            ]
          }
        ],
        "text": {
          "status": "generated",
          "div": "<div xmlns=\"http://www.w3.org/1999/xhtml\"><table class=\"hl7__eu__lab__report\"><tr><th>Test</th><th>01-Mar-2018</th><th>Reference&#xA0;Range</th><th>Unit</th></tr><tr><td>Creatinine [Mass/volume] in Blood</td><td>2.9</td><td>0.6 - 1.1</td><td>H</td><td>mg/dL</td></tr></table></div>"
        },
        "status": "final",
        "subject": {
          "reference": "urn:uuid:43048995-a179-4dab-ad2f-d0df7ecf10ee",
          "display": "Marthe Gallet"
        },
        "effectiveDateTime": "2018-03-01T19:05:43Z",
        "specimen": {
          "reference": "urn:uuid:688e5214-668f-426c-a7f6-ba9b3713fd44"
        }
      }
    },
    {
      "fullUrl": "urn:uuid:d18b1cf5-9f27-4643-bc7d-1118f13dbe8f",
      "resource": {
        "resourceType": "Observation",
        "id": "d18b1cf5-9f27-4643-bc7d-1118f13dbe8f",
        "meta": {
          "profile": [
            "http://hl7.eu/fhir/laboratory/StructureDefinition/Observation-resultslab-eu-lab"
          ]
        },
        "performer": [
          {
            "display": "The Central European Lab"
          }
        ],
        "category": [
          {
            "coding": [
              {
                "system": "http://terminology.hl7.org/CodeSystem/observation-category",
                "code": "laboratory"
              }
            ]
          }
        ],
        "code": {
          "coding": [
            {
              "code": "49765-1",
              "system": "http://loinc.org",
              "display": "Calcium [Mass/volume] in Blood"
            }
          ],
          "text": "Calcium [Mass/volume] in Blood"
        },
        "valueQuantity": {
          "system": "http://unitsofmeasure.org",
          "value": 10,
          "unit": "mg/dL",
          "code": "mg/dL"
        },
        "referenceRange": [
          {
            "low": {
              "value": 8.5,
              "code": "mg/dL",
              "system": "http://unitsofmeasure.org"
            }
          },
          {
            "high": {
              "value": 10.4,
              "code": "mg/dL",
              "system": "http://unitsofmeasure.org"
            }
          }
        ],
        "text": {
          "status": "generated",
          "div": "<div xmlns=\"http://www.w3.org/1999/xhtml\"><table class=\"hl7__eu__lab__report\"><tr><th>Test</th><th>01-Mar-2018</th><th>Reference&#xA0;Range</th><th>Unit</th></tr><tr><td>Calcium [Mass/volume] in Blood</td><td>10.0</td><td>8.5 - 10.4</td><td></td><td>mg/dL</td></tr></table></div>"
        },
        "status": "final",
        "subject": {
          "reference": "urn:uuid:43048995-a179-4dab-ad2f-d0df7ecf10ee",
          "display": "Marthe Gallet"
        },
        "effectiveDateTime": "2018-03-01T19:05:43Z",
        "specimen": {
          "reference": "urn:uuid:688e5214-668f-426c-a7f6-ba9b3713fd44"
        }
      }
    },
    {
      "fullUrl": "urn:uuid:71b5e1ce-0a82-4188-8eb9-9588e40033c2",
      "resource": {
        "resourceType": "Observation",
        "id": "71b5e1ce-0a82-4188-8eb9-9588e40033c2",
        "meta": {
          "profile": [
            "http://hl7.eu/fhir/laboratory/StructureDefinition/Observation-resultslab-eu-lab"
          ]
        },
        "performer": [
          {
            "display": "The Central European Lab"
          }
        ],
        "category": [
          {
            "coding": [
              {
                "system": "http://terminology.hl7.org/CodeSystem/observation-category",
                "code": "laboratory"
              }
            ]
          }
        ],
        "code": {
          "coding": [
            {
              "code": "2947-0",
              "system": "http://loinc.org",
              "display": "Sodium [Moles/volume] in Blood"
            }
          ],
          "text": "Sodium [Moles/volume] in Blood"
        },
        "valueQuantity": {
          "system": "http://unitsofmeasure.org",
          "value": 137.8,
          "unit": "mmol/L",
          "code": "mmol/L"
        },
        "referenceRange": [
          {
            "low": {
              "value": 135,
              "code": "mmol/L",
              "system": "http://unitsofmeasure.org"
            }
          },
          {
            "high": {
              "value": 145,
              "code": "mmol/L",
              "system": "http://unitsofmeasure.org"
            }
          }
        ],
        "text": {
          "status": "generated",
          "div": "<div xmlns=\"http://www.w3.org/1999/xhtml\"><table class=\"hl7__eu__lab__report\"><tr><th>Test</th><th>01-Mar-2018</th><th>Reference&#xA0;Range</th><th>Unit</th></tr><tr><td>Sodium [Moles/volume] in Blood</td><td>137.8</td><td>135 - 145</td><td></td><td>mmol/L</td></tr></table></div>"
        },
        "status": "final",
        "subject": {
          "reference": "urn:uuid:43048995-a179-4dab-ad2f-d0df7ecf10ee",
          "display": "Marthe Gallet"
        },
        "effectiveDateTime": "2018-03-01T19:05:43Z",
        "specimen": {
          "reference": "urn:uuid:688e5214-668f-426c-a7f6-ba9b3713fd44"
        }
      }
    },
    {
      "fullUrl": "urn:uuid:5aca7d4e-9df3-4f32-806b-ee10a43012ea",
      "resource": {
        "resourceType": "Observation",
        "id": "5aca7d4e-9df3-4f32-806b-ee10a43012ea",
        "meta": {
          "profile": [
            "http://hl7.eu/fhir/laboratory/StructureDefinition/Observation-resultslab-eu-lab"
          ]
        },
        "performer": [
          {
            "display": "The Central European Lab"
          }
        ],
        "category": [
          {
            "coding": [
              {
                "system": "http://terminology.hl7.org/CodeSystem/observation-category",
                "code": "laboratory"
              }
            ]
          }
        ],
        "code": {
          "coding": [
            {
              "code": "6298-4",
              "system": "http://loinc.org",
              "display": "Potassium [Moles/volume] in Blood"
            }
          ],
          "text": "Potassium [Moles/volume] in Blood"
        },
        "valueQuantity": {
          "system": "http://unitsofmeasure.org",
          "value": 4.5,
          "unit": "mmol/L",
          "code": "mmol/L"
        },
        "referenceRange": [
          {
            "low": {
              "value": 3.5,
              "code": "mmol/L",
              "system": "http://unitsofmeasure.org"
            }
          },
          {
            "high": {
              "value": 5.1,
              "code": "mmol/L",
              "system": "http://unitsofmeasure.org"
            }
          }
        ],
        "text": {
          "status": "generated",
          "div": "<div xmlns=\"http://www.w3.org/1999/xhtml\"><table class=\"hl7__eu__lab__report\"><tr><th>Test</th><th>01-Mar-2018</th><th>Reference&#xA0;Range</th><th>Unit</th></tr><tr><td>Potassium [Moles/volume] in Blood</td><td>4.5</td><td>3.5 - 5.1</td><td></td><td>mmol/L</td></tr></table></div>"
        },
        "status": "final",
        "subject": {
          "reference": "urn:uuid:43048995-a179-4dab-ad2f-d0df7ecf10ee",
          "display": "Marthe Gallet"
        },
        "effectiveDateTime": "2018-03-01T19:05:43Z",
        "specimen": {
          "reference": "urn:uuid:688e5214-668f-426c-a7f6-ba9b3713fd44"
        }
      }
    },
    {
      "fullUrl": "urn:uuid:2bab5a4f-242a-4264-8d7d-f3bd13f0dbc3",
      "resource": {
        "resourceType": "Observation",
        "id": "2bab5a4f-242a-4264-8d7d-f3bd13f0dbc3",
        "meta": {
          "profile": [
            "http://hl7.eu/fhir/laboratory/StructureDefinition/Observation-resultslab-eu-lab"
          ]
        },
        "performer": [
          {
            "display": "The Central European Lab"
          }
        ],
        "category": [
          {
            "coding": [
              {
                "system": "http://terminology.hl7.org/CodeSystem/observation-category",
                "code": "laboratory"
              }
            ]
          }
        ],
        "code": {
          "coding": [
            {
              "code": "2069-3",
              "system": "http://loinc.org",
              "display": "Chloride [Moles/volume] in Blood"
            }
          ],
          "text": "Chloride [Moles/volume] in Blood"
        },
        "valueQuantity": {
          "system": "http://unitsofmeasure.org",
          "value": 101.1,
          "unit": "mmol/L",
          "code": "mmol/L"
        },
        "referenceRange": [
          {
            "low": {
              "value": 98,
              "code": "mmol/L",
              "system": "http://unitsofmeasure.org"
            }
          },
          {
            "high": {
              "value": 110,
              "code": "mmol/L",
              "system": "http://unitsofmeasure.org"
            }
          }
        ],
        "text": {
          "status": "generated",
          "div": "<div xmlns=\"http://www.w3.org/1999/xhtml\"><table class=\"hl7__eu__lab__report\"><tr><th>Test</th><th>01-Mar-2018</th><th>Reference&#xA0;Range</th><th>Unit</th></tr><tr><td>Chloride [Moles/volume] in Blood</td><td>101.1</td><td>98 - 110</td><td></td><td>mmol/L</td></tr></table></div>"
        },
        "status": "final",
        "subject": {
          "reference": "urn:uuid:43048995-a179-4dab-ad2f-d0df7ecf10ee",
          "display": "Marthe Gallet"
        },
        "effectiveDateTime": "2018-03-01T19:05:43Z",
        "specimen": {
          "reference": "urn:uuid:688e5214-668f-426c-a7f6-ba9b3713fd44"
        }
      }
    },
    {
      "fullUrl": "urn:uuid:69c18c6e-e889-4c70-97bd-85178401b2bb",
      "resource": {
        "resourceType": "Observation",
        "id": "69c18c6e-e889-4c70-97bd-85178401b2bb",
        "meta": {
          "profile": [
            "http://hl7.eu/fhir/laboratory/StructureDefinition/Observation-resultslab-eu-lab"
          ]
        },
        "performer": [
          {
            "display": "The Central European Lab"
          }
        ],
        "category": [
          {
            "coding": [
              {
                "system": "http://terminology.hl7.org/CodeSystem/observation-category",
                "code": "laboratory"
              }
            ]
          }
        ],
        "code": {
          "coding": [
            {
              "code": "20565-8",
              "system": "http://loinc.org",
              "display": "Carbon dioxide, total [Moles/volume] in Blood"
            }
          ],
          "text": "Carbon dioxide, total [Moles/volume] in Blood"
        },
        "valueQuantity": {
          "system": "http://unitsofmeasure.org",
          "value": 28.2,
          "unit": "mmol/L",
          "code": "mmol/L"
        },
        "referenceRange": [
          {
            "low": {
              "value": 22,
              "code": "mmol/L",
              "system": "http://unitsofmeasure.org"
            }
          },
          {
            "high": {
              "value": 29,
              "code": "mmol/L",
              "system": "http://unitsofmeasure.org"
            }
          }
        ],
        "text": {
          "status": "generated",
          "div": "<div xmlns=\"http://www.w3.org/1999/xhtml\"><table class=\"hl7__eu__lab__report\"><tr><th>Test</th><th>01-Mar-2018</th><th>Reference&#xA0;Range</th><th>Unit</th></tr><tr><td>Carbon dioxide, total [Moles/volume] in Blood</td><td>28.2</td><td>22 - 29</td><td></td><td>mmol/L</td></tr></table></div>"
        },
        "status": "final",
        "subject": {
          "reference": "urn:uuid:43048995-a179-4dab-ad2f-d0df7ecf10ee",
          "display": "Marthe Gallet"
        },
        "effectiveDateTime": "2018-03-01T19:05:43Z",
        "specimen": {
          "reference": "urn:uuid:688e5214-668f-426c-a7f6-ba9b3713fd44"
        }
      }
    },
    {
      "fullUrl": "urn:uuid:aab1b18d-8c5c-4cbc-9617-678e01e71947",
      "resource": {
        "resourceType": "Observation",
        "id": "aab1b18d-8c5c-4cbc-9617-678e01e71947",
        "meta": {
          "profile": [
            "http://hl7.eu/fhir/laboratory/StructureDefinition/Observation-resultslab-eu-lab"
          ]
        },
        "performer": [
          {
            "display": "The Central European Lab"
          }
        ],
        "category": [
          {
            "coding": [
              {
                "system": "http://terminology.hl7.org/CodeSystem/observation-category",
                "code": "laboratory"
              }
            ]
          }
        ],
        "code": {
          "coding": [
            {
              "code": "2885-2",
              "system": "http://loinc.org",
              "display": "Protein [Mass/volume] in Serum or Plasma"
            }
          ],
          "text": "Protein [Mass/volume] in Serum or Plasma"
        },
        "valueQuantity": {
          "system": "http://unitsofmeasure.org",
          "value": 7.8,
          "unit": "g/dL",
          "code": "g/dL"
        },
        "referenceRange": [
          {
            "low": {
              "value": 6,
              "code": "g/dL",
              "system": "http://unitsofmeasure.org"
            }
          },
          {
            "high": {
              "value": 8.3,
              "code": "g/dL",
              "system": "http://unitsofmeasure.org"
            }
          }
        ],
        "text": {
          "status": "generated",
          "div": "<div xmlns=\"http://www.w3.org/1999/xhtml\"><table class=\"hl7__eu__lab__report\"><tr><th>Test</th><th>01-Mar-2018</th><th>Reference&#xA0;Range</th><th>Unit</th></tr><tr><td>Protein [Mass/volume] in Serum or Plasma</td><td>7.8</td><td>6 - 8.3</td><td></td><td>g/dL</td></tr></table></div>"
        },
        "status": "final",
        "subject": {
          "reference": "urn:uuid:43048995-a179-4dab-ad2f-d0df7ecf10ee",
          "display": "Marthe Gallet"
        },
        "effectiveDateTime": "2018-03-01T19:05:43Z",
        "specimen": {
          "reference": "urn:uuid:ac5ee4a9-6c3c-44a3-b525-737afd234010"
        }
      }
    },
    {
      "fullUrl": "urn:uuid:9d01fd03-9a91-4eb6-bc69-35236d388743",
      "resource": {
        "resourceType": "Observation",
        "id": "9d01fd03-9a91-4eb6-bc69-35236d388743",
        "meta": {
          "profile": [
            "http://hl7.eu/fhir/laboratory/StructureDefinition/Observation-resultslab-eu-lab"
          ]
        },
        "performer": [
          {
            "display": "The Central European Lab"
          }
        ],
        "category": [
          {
            "coding": [
              {
                "system": "http://terminology.hl7.org/CodeSystem/observation-category",
                "code": "laboratory"
              }
            ]
          }
        ],
        "code": {
          "coding": [
            {
              "code": "1751-7",
              "system": "http://loinc.org",
              "display": "Albumin [Mass/volume] in Serum or Plasma"
            }
          ],
          "text": "Albumin [Mass/volume] in Serum or Plasma"
        },
        "valueQuantity": {
          "system": "http://unitsofmeasure.org",
          "value": 4.7,
          "unit": "g/dL",
          "code": "g/dL"
        },
        "referenceRange": [
          {
            "low": {
              "value": 3.5,
              "code": "g/dL",
              "system": "http://unitsofmeasure.org"
            }
          },
          {
            "high": {
              "value": 5.5,
              "code": "g/dL",
              "system": "http://unitsofmeasure.org"
            }
          }
        ],
        "text": {
          "status": "generated",
          "div": "<div xmlns=\"http://www.w3.org/1999/xhtml\"><table class=\"hl7__eu__lab__report\"><tr><th>Test</th><th>01-Mar-2018</th><th>Reference&#xA0;Range</th><th>Unit</th></tr><tr><td>Albumin [Mass/volume] in Serum or Plasma</td><td>4.7</td><td>3.5 - 5.5</td><td></td><td>g/dL</td></tr></table></div>"
        },
        "status": "final",
        "subject": {
          "reference": "urn:uuid:43048995-a179-4dab-ad2f-d0df7ecf10ee",
          "display": "Marthe Gallet"
        },
        "effectiveDateTime": "2018-03-01T19:05:43Z",
        "specimen": {
          "reference": "urn:uuid:ac5ee4a9-6c3c-44a3-b525-737afd234010"
        }
      }
    },
    {
      "fullUrl": "urn:uuid:564d82fe-1796-465f-baac-dc5d059a71e5",
      "resource": {
        "resourceType": "Observation",
        "id": "564d82fe-1796-465f-baac-dc5d059a71e5",
        "meta": {
          "profile": [
            "http://hl7.eu/fhir/laboratory/StructureDefinition/Observation-resultslab-eu-lab"
          ]
        },
        "performer": [
          {
            "display": "The Central European Lab"
          }
        ],
        "category": [
          {
            "coding": [
              {
                "system": "http://terminology.hl7.org/CodeSystem/observation-category",
                "code": "laboratory"
              }
            ]
          }
        ],
        "code": {
          "coding": [
            {
              "code": "10834-0",
              "system": "http://loinc.org",
              "display": "Globulin [Mass/volume] in Serum by calculation"
            }
          ],
          "text": "Globulin [Mass/volume] in Serum by calculation"
        },
        "valueQuantity": {
          "system": "http://unitsofmeasure.org",
          "value": 2.5,
          "unit": "g/L",
          "code": "g/L"
        },
        "referenceRange": [
          {
            "low": {
              "value": 2,
              "code": "g/L",
              "system": "http://unitsofmeasure.org"
            }
          },
          {
            "high": {
              "value": 3.5,
              "code": "g/L",
              "system": "http://unitsofmeasure.org"
            }
          }
        ],
        "text": {
          "status": "generated",
          "div": "<div xmlns=\"http://www.w3.org/1999/xhtml\"><table class=\"hl7__eu__lab__report\"><tr><th>Test</th><th>01-Mar-2018</th><th>Reference&#xA0;Range</th><th>Unit</th></tr><tr><td>Globulin [Mass/volume] in Serum by calculation</td><td>2.5</td><td>2 - 3.5</td><td></td><td>g/L</td></tr></table></div>"
        },
        "status": "final",
        "subject": {
          "reference": "urn:uuid:43048995-a179-4dab-ad2f-d0df7ecf10ee",
          "display": "Marthe Gallet"
        },
        "effectiveDateTime": "2018-03-01T19:05:43Z",
        "specimen": {
          "reference": "urn:uuid:278ccd17-566e-4dbb-88a8-55a3a607a598"
        }
      }
    },
    {
      "fullUrl": "urn:uuid:ea0fd6c6-0a30-4ae5-abe1-4c2ad6be0aef",
      "resource": {
        "resourceType": "Observation",
        "id": "ea0fd6c6-0a30-4ae5-abe1-4c2ad6be0aef",
        "meta": {
          "profile": [
            "http://hl7.eu/fhir/laboratory/StructureDefinition/Observation-resultslab-eu-lab"
          ]
        },
        "performer": [
          {
            "display": "The Central European Lab"
          }
        ],
        "category": [
          {
            "coding": [
              {
                "system": "http://terminology.hl7.org/CodeSystem/observation-category",
                "code": "laboratory"
              }
            ]
          }
        ],
        "code": {
          "coding": [
            {
              "code": "1975-2",
              "system": "http://loinc.org",
              "display": "Bilirubin.total [Mass/volume] in Serum or Plasma"
            }
          ],
          "text": "Bilirubin.total [Mass/volume] in Serum or Plasma"
        },
        "valueQuantity": {
          "system": "http://unitsofmeasure.org",
          "value": 0.4,
          "unit": "mg/dL",
          "code": "mg/dL"
        },
        "referenceRange": [
          {
            "low": {
              "value": 0.3,
              "code": "mg/dL",
              "system": "http://unitsofmeasure.org"
            }
          },
          {
            "high": {
              "value": 1.2,
              "code": "mg/dL",
              "system": "http://unitsofmeasure.org"
            }
          }
        ],
        "text": {
          "status": "generated",
          "div": "<div xmlns=\"http://www.w3.org/1999/xhtml\"><table class=\"hl7__eu__lab__report\"><tr><th>Test</th><th>01-Mar-2018</th><th>Reference&#xA0;Range</th><th>Unit</th></tr><tr><td>Bilirubin.total [Mass/volume] in Serum or Plasma</td><td>0.4</td><td>0.3 - 1.2</td><td></td><td>mg/dL</td></tr></table></div>"
        },
        "status": "final",
        "subject": {
          "reference": "urn:uuid:43048995-a179-4dab-ad2f-d0df7ecf10ee",
          "display": "Marthe Gallet"
        },
        "effectiveDateTime": "2018-03-01T19:05:43Z",
        "specimen": {
          "reference": "urn:uuid:ac5ee4a9-6c3c-44a3-b525-737afd234010"
        }
      }
    },
    {
      "fullUrl": "urn:uuid:fce90453-27e0-449a-a360-d90d65cb5ef4",
      "resource": {
        "resourceType": "Observation",
        "id": "fce90453-27e0-449a-a360-d90d65cb5ef4",
        "meta": {
          "profile": [
            "http://hl7.eu/fhir/laboratory/StructureDefinition/Observation-resultslab-eu-lab"
          ]
        },
        "performer": [
          {
            "display": "The Central European Lab"
          }
        ],
        "category": [
          {
            "coding": [
              {
                "system": "http://terminology.hl7.org/CodeSystem/observation-category",
                "code": "laboratory"
              }
            ]
          }
        ],
        "code": {
          "coding": [
            {
              "code": "6768-6",
              "system": "http://loinc.org",
              "display": "Alkaline phosphatase [Enzymatic activity/volume] in Serum or Plasma"
            }
          ],
          "text": "Alkaline phosphatase [Enzymatic activity/volume] in Serum or Plasma"
        },
        "valueQuantity": {
          "system": "http://unitsofmeasure.org",
          "value": 108.4,
          "unit": "U/L",
          "code": "U/L"
        },
        "referenceRange": [
          {
            "low": {
              "value": 44,
              "code": "U/L",
              "system": "http://unitsofmeasure.org"
            }
          },
          {
            "high": {
              "value": 130,
              "code": "U/L",
              "system": "http://unitsofmeasure.org"
            }
          }
        ],
        "text": {
          "status": "generated",
          "div": "<div xmlns=\"http://www.w3.org/1999/xhtml\"><table class=\"hl7__eu__lab__report\"><tr><th>Test</th><th>01-Mar-2018</th><th>Reference&#xA0;Range</th><th>Unit</th></tr><tr><td>Alkaline phosphatase [Enzymatic activity/volume] in Serum or Plasma</td><td>108.4</td><td>44 - 130</td><td></td><td>U/L</td></tr></table></div>"
        },
        "status": "final",
        "subject": {
          "reference": "urn:uuid:43048995-a179-4dab-ad2f-d0df7ecf10ee",
          "display": "Marthe Gallet"
        },
        "effectiveDateTime": "2018-03-01T19:05:43Z",
        "specimen": {
          "reference": "urn:uuid:ac5ee4a9-6c3c-44a3-b525-737afd234010"
        }
      }
    },
    {
      "fullUrl": "urn:uuid:1172e65f-13aa-4040-85e2-dff924e0d728",
      "resource": {
        "resourceType": "Observation",
        "id": "1172e65f-13aa-4040-85e2-dff924e0d728",
        "meta": {
          "profile": [
            "http://hl7.eu/fhir/laboratory/StructureDefinition/Observation-resultslab-eu-lab"
          ]
        },
        "performer": [
          {
            "display": "The Central European Lab"
          }
        ],
        "category": [
          {
            "coding": [
              {
                "system": "http://terminology.hl7.org/CodeSystem/observation-category",
                "code": "laboratory"
              }
            ]
          }
        ],
        "code": {
          "coding": [
            {
              "code": "1742-6",
              "system": "http://loinc.org",
              "display": "Alanine aminotransferase [Enzymatic activity/volume] in Serum or Plasma"
            }
          ],
          "text": "Alanine aminotransferase [Enzymatic activity/volume] in Serum or Plasma"
        },
        "valueQuantity": {
          "system": "http://unitsofmeasure.org",
          "value": 32.9,
          "unit": "U/L",
          "code": "U/L"
        },
        "referenceRange": [
          {
            "low": {
              "value": 7,
              "code": "U/L",
              "system": "http://unitsofmeasure.org"
            }
          },
          {
            "high": {
              "value": 33,
              "code": "U/L",
              "system": "http://unitsofmeasure.org"
            }
          }
        ],
        "text": {
          "status": "generated",
          "div": "<div xmlns=\"http://www.w3.org/1999/xhtml\"><table class=\"hl7__eu__lab__report\"><tr><th>Test</th><th>01-Mar-2018</th><th>Reference&#xA0;Range</th><th>Unit</th></tr><tr><td>Alanine aminotransferase [Enzymatic activity/volume] in Serum or Plasma</td><td>32.9</td><td>7 - 33</td><td></td><td>U/L</td></tr></table></div>"
        },
        "status": "final",
        "subject": {
          "reference": "urn:uuid:43048995-a179-4dab-ad2f-d0df7ecf10ee",
          "display": "Marthe Gallet"
        },
        "effectiveDateTime": "2018-03-01T19:05:43Z",
        "specimen": {
          "reference": "urn:uuid:ac5ee4a9-6c3c-44a3-b525-737afd234010"
        }
      }
    },
    {
      "fullUrl": "urn:uuid:a0be405c-fc1a-4a10-97a0-4f296a5e0d5a",
      "resource": {
        "resourceType": "Observation",
        "id": "a0be405c-fc1a-4a10-97a0-4f296a5e0d5a",
        "meta": {
          "profile": [
            "http://hl7.eu/fhir/laboratory/StructureDefinition/Observation-resultslab-eu-lab"
          ]
        },
        "performer": [
          {
            "display": "The Central European Lab"
          }
        ],
        "category": [
          {
            "coding": [
              {
                "system": "http://terminology.hl7.org/CodeSystem/observation-category",
                "code": "laboratory"
              }
            ]
          }
        ],
        "code": {
          "coding": [
            {
              "code": "1920-8",
              "system": "http://loinc.org",
              "display": "Aspartate aminotransferase [Enzymatic activity/volume] in Serum or Plasma"
            }
          ],
          "text": "Aspartate aminotransferase [Enzymatic activity/volume] in Serum or Plasma"
        },
        "valueQuantity": {
          "system": "http://unitsofmeasure.org",
          "value": 9,
          "unit": "U/L",
          "code": "U/L"
        },
        "referenceRange": [
          {
            "low": {
              "value": 10,
              "code": "U/L",
              "system": "http://unitsofmeasure.org"
            }
          },
          {
            "high": {
              "value": 40,
              "code": "U/L",
              "system": "http://unitsofmeasure.org"
            }
          }
        ],
        "interpretation": [
          {
            "coding": [
              {
                "code": "L",
                "system": "http://terminology.hl7.org/CodeSystem/v3-ObservationInterpretation",
                "display": "Low"
              }
            ]
          }
        ],
        "text": {
          "status": "generated",
          "div": "<div xmlns=\"http://www.w3.org/1999/xhtml\"><table class=\"hl7__eu__lab__report\"><tr><th>Test</th><th>01-Mar-2018</th><th>Reference&#xA0;Range</th><th>Unit</th></tr><tr><td>Aspartate aminotransferase [Enzymatic activity/volume] in Serum or Plasma</td><td>9.0</td><td>10 - 40</td><td>L</td><td>U/L</td></tr></table></div>"
        },
        "status": "final",
        "subject": {
          "reference": "urn:uuid:43048995-a179-4dab-ad2f-d0df7ecf10ee",
          "display": "Marthe Gallet"
        },
        "effectiveDateTime": "2018-03-01T19:05:43Z",
        "specimen": {
          "reference": "urn:uuid:ac5ee4a9-6c3c-44a3-b525-737afd234010"
        }
      }
    },
    {
      "fullUrl": "urn:uuid:d5b4341b-eaa4-42bd-8ddc-fa0837b2cc07",
      "resource": {
        "resourceType": "Observation",
        "id": "d5b4341b-eaa4-42bd-8ddc-fa0837b2cc07",
        "meta": {
          "profile": [
            "http://hl7.eu/fhir/laboratory/StructureDefinition/Observation-resultslab-eu-lab"
          ]
        },
        "performer": [
          {
            "display": "The Central European Lab"
          }
        ],
        "category": [
          {
            "coding": [
              {
                "system": "http://terminology.hl7.org/CodeSystem/observation-category",
                "code": "laboratory"
              }
            ]
          }
        ],
        "code": {
          "coding": [
            {
              "code": "2093-3",
              "system": "http://loinc.org",
              "display": "Cholesterol [Mass/volume] in Serum or Plasma"
            }
          ],
          "text": "Cholesterol [Mass/volume] in Serum or Plasma"
        },
        "valueQuantity": {
          "system": "http://unitsofmeasure.org",
          "value": 196.1,
          "unit": "mg/dL",
          "code": "mg/dL"
        },
        "referenceRange": [
          {
            "low": {
              "value": 125,
              "code": "mg/dL",
              "system": "http://unitsofmeasure.org"
            }
          },
          {
            "high": {
              "value": 200,
              "code": "mg/dL",
              "system": "http://unitsofmeasure.org"
            }
          }
        ],
        "text": {
          "status": "generated",
          "div": "<div xmlns=\"http://www.w3.org/1999/xhtml\"><table class=\"hl7__eu__lab__report\"><tr><th>Test</th><th>01-Mar-2018</th><th>Reference&#xA0;Range</th><th>Unit</th></tr><tr><td>Cholesterol [Mass/volume] in Serum or Plasma</td><td>196.1</td><td>125 - 200</td><td></td><td>mg/dL</td></tr></table></div>"
        },
        "status": "final",
        "subject": {
          "reference": "urn:uuid:43048995-a179-4dab-ad2f-d0df7ecf10ee",
          "display": "Marthe Gallet"
        },
        "effectiveDateTime": "2018-03-01T19:05:43Z",
        "specimen": {
          "reference": "urn:uuid:ac5ee4a9-6c3c-44a3-b525-737afd234010"
        }
      }
    },
    {
      "fullUrl": "urn:uuid:638e1f8f-8cf7-4e9d-9b59-10b92660d81c",
      "resource": {
        "resourceType": "Observation",
        "id": "638e1f8f-8cf7-4e9d-9b59-10b92660d81c",
        "meta": {
          "profile": [
            "http://hl7.eu/fhir/laboratory/StructureDefinition/Observation-resultslab-eu-lab"
          ]
        },
        "performer": [
          {
            "display": "The Central European Lab"
          }
        ],
        "category": [
          {
            "coding": [
              {
                "system": "http://terminology.hl7.org/CodeSystem/observation-category",
                "code": "laboratory"
              }
            ]
          }
        ],
        "code": {
          "coding": [
            {
              "code": "2571-8",
              "system": "http://loinc.org",
              "display": "Triglyceride [Mass/volume] in Serum or Plasma"
            }
          ],
          "text": "Triglyceride [Mass/volume] in Serum or Plasma"
        },
        "valueQuantity": {
          "system": "http://unitsofmeasure.org",
          "value": 104.2,
          "unit": "mg/dL",
          "code": "mg/dL"
        },
        "referenceRange": [
          {
            "low": {
              "value": 10,
              "code": "mg/dL",
              "system": "http://unitsofmeasure.org"
            }
          },
          {
            "high": {
              "value": 175,
              "code": "mg/dL",
              "system": "http://unitsofmeasure.org"
            }
          }
        ],
        "text": {
          "status": "generated",
          "div": "<div xmlns=\"http://www.w3.org/1999/xhtml\"><table class=\"hl7__eu__lab__report\"><tr><th>Test</th><th>01-Mar-2018</th><th>Reference&#xA0;Range</th><th>Unit</th></tr><tr><td>Triglyceride [Mass/volume] in Serum or Plasma</td><td>104.2</td><td>10 - 175</td><td></td><td>mg/dL</td></tr></table></div>"
        },
        "status": "final",
        "subject": {
          "reference": "urn:uuid:43048995-a179-4dab-ad2f-d0df7ecf10ee",
          "display": "Marthe Gallet"
        },
        "effectiveDateTime": "2018-03-01T19:05:43Z",
        "specimen": {
          "reference": "urn:uuid:ac5ee4a9-6c3c-44a3-b525-737afd234010"
        }
      }
    },
    {
      "fullUrl": "urn:uuid:4b18d355-2a0c-400d-a179-872912a40d61",
      "resource": {
        "resourceType": "Observation",
        "id": "4b18d355-2a0c-400d-a179-872912a40d61",
        "meta": {
          "profile": [
            "http://hl7.eu/fhir/laboratory/StructureDefinition/Observation-resultslab-eu-lab"
          ]
        },
        "performer": [
          {
            "display": "The Central European Lab"
          }
        ],
        "category": [
          {
            "coding": [
              {
                "system": "http://terminology.hl7.org/CodeSystem/observation-category",
                "code": "laboratory"
              }
            ]
          }
        ],
        "code": {
          "coding": [
            {
              "code": "18262-6",
              "system": "http://loinc.org",
              "display": "Cholesterol in LDL [Mass/volume] in Serum or Plasma by Direct assay"
            }
          ],
          "text": "Cholesterol in LDL [Mass/volume] in Serum or Plasma by Direct assay"
        },
        "valueQuantity": {
          "system": "http://unitsofmeasure.org",
          "value": 121.6,
          "unit": "mg/dL",
          "code": "mg/dL"
        },
        "referenceRange": [
          {
            "low": {
              "value": 0,
              "code": "mg/dL",
              "system": "http://unitsofmeasure.org"
            }
          },
          {
            "high": {
              "value": 130,
              "code": "mg/dL",
              "system": "http://unitsofmeasure.org"
            }
          }
        ],
        "text": {
          "status": "generated",
          "div": "<div xmlns=\"http://www.w3.org/1999/xhtml\"><table class=\"hl7__eu__lab__report\"><tr><th>Test</th><th>01-Mar-2018</th><th>Reference&#xA0;Range</th><th>Unit</th></tr><tr><td>Cholesterol in LDL [Mass/volume] in Serum or Plasma by Direct assay</td><td>121.6</td><td>0 - 130</td><td></td><td>mg/dL</td></tr></table></div>"
        },
        "status": "final",
        "subject": {
          "reference": "urn:uuid:43048995-a179-4dab-ad2f-d0df7ecf10ee",
          "display": "Marthe Gallet"
        },
        "effectiveDateTime": "2018-03-01T19:05:43Z",
        "specimen": {
          "reference": "urn:uuid:ac5ee4a9-6c3c-44a3-b525-737afd234010"
        }
      }
    },
    {
      "fullUrl": "urn:uuid:4f301acd-6eaa-4689-8fd1-8f595734f844",
      "resource": {
        "resourceType": "Observation",
        "id": "4f301acd-6eaa-4689-8fd1-8f595734f844",
        "meta": {
          "profile": [
            "http://hl7.eu/fhir/laboratory/StructureDefinition/Observation-resultslab-eu-lab"
          ]
        },
        "performer": [
          {
            "display": "The Central European Lab"
          }
        ],
        "category": [
          {
            "coding": [
              {
                "system": "http://terminology.hl7.org/CodeSystem/observation-category",
                "code": "laboratory"
              }
            ]
          }
        ],
        "code": {
          "coding": [
            {
              "code": "2085-9",
              "system": "http://loinc.org",
              "display": "Cholesterol in HDL [Mass/volume] in Serum or Plasma"
            }
          ],
          "text": "Cholesterol in HDL [Mass/volume] in Serum or Plasma"
        },
        "valueQuantity": {
          "system": "http://unitsofmeasure.org",
          "value": 45,
          "unit": "mg/dL",
          "code": "mg/dL"
        },
        "referenceRange": [
          {
            "low": {
              "value": 40,
              "code": "mg/dL",
              "system": "http://unitsofmeasure.org"
            }
          },
          {
            "high": {
              "value": 100,
              "code": "mg/dL",
              "system": "http://unitsofmeasure.org"
            }
          }
        ],
        "text": {
          "status": "generated",
          "div": "<div xmlns=\"http://www.w3.org/1999/xhtml\"><table class=\"hl7__eu__lab__report\"><tr><th>Test</th><th>01-Mar-2018</th><th>Reference&#xA0;Range</th><th>Unit</th></tr><tr><td>Cholesterol in HDL [Mass/volume] in Serum or Plasma</td><td>45.0</td><td>40 - 100</td><td></td><td>mg/dL</td></tr></table></div>"
        },
        "status": "final",
        "subject": {
          "reference": "urn:uuid:43048995-a179-4dab-ad2f-d0df7ecf10ee",
          "display": "Marthe Gallet"
        },
        "effectiveDateTime": "2018-03-01T19:05:43Z",
        "specimen": {
          "reference": "urn:uuid:ac5ee4a9-6c3c-44a3-b525-737afd234010"
        }
      }
    },
    {
      "fullUrl": "urn:uuid:d90cc5b0-a80b-423d-9f13-4fbd69c015a3",
      "resource": {
        "resourceType": "Device",
        "id": "d90cc5b0-a80b-423d-9f13-4fbd69c015a3",
        "deviceName": [
          {
            "name": "SYNDERAI Synthetic Generator",
            "type": "manufacturer-name"
          }
        ],
        "version": [
          {
            "value": "5.0"
          }
        ],
        "text": {
          "status": "generated",
          "div": "<div xmlns=\"http://www.w3.org/1999/xhtml\">SYNDERAI Synthetic Generator v5.0</div>"
        },
        "status": "active\"",
        "distinctIdentifier": "synderai-generator-50",
        "manufacturer": "SYNDERAI Project"
      }
    },
    {
      "fullUrl": "urn:uuid:a945338c-3cad-4f54-8347-46ea8f55e4e6",
      "resource": {
        "resourceType": "Provenance",
        "id": "a945338c-3cad-4f54-8347-46ea8f55e4e6",
        "target": [
          {
            "reference": "Patient/43048995-a179-4dab-ad2f-d0df7ecf10ee"
          },
          {
            "reference": "Bundle/046a58d8-c219-4e26-99d7-60743ae78e7b"
          },
          {
            "reference": "Composition/99f6be97-a5d4-47e3-ab59-08e11a7f463d"
          },
          {
            "reference": "PractitionerRole/d74002d5-3455-4001-895d-e1ed180c48b9"
          },
          {
            "reference": "Practitioner/d47a4d4b-2686-4db3-8d05-5445d0de5daf"
          },
          {
            "reference": "PractitionerRole/5587235d-4ad0-41f1-9e7d-f57b57e02e3c"
          },
          {
            "reference": "Organization/b7e00735-9e8b-4450-90e8-8fef2274c569"
          }
        ],
        "activity": {
          "text": "Synthetic Example Data Generation"
        },
        "policy": [
          "https://synderai.net/synderai-synthetic-data-policy"
        ],
        "agent": [
          {
            "type": {
              "text": "author"
            },
            "who": {
              "reference": "Device/d90cc5b0-a80b-423d-9f13-4fbd69c015a3"
            }
          }
        ],
        "reason": [
          {
            "text": "Interoperability Testing and Training (non-clinical use)"
          }
        ],
        "text": {
          "status": "generated",
          "div": "<div xmlns=\"http://www.w3.org/1999/xhtml\">Provenance for SYNDERAI Synthetic Example Data Resource</div>"
        },
        "recorded": "2018-03-01T20:05:43Z"
      }
    },
    {
      "fullUrl": "urn:uuid:d74002d5-3455-4001-895d-e1ed180c48b9",
      "resource": {
        "resourceType": "PractitionerRole",
        "id": "d74002d5-3455-4001-895d-e1ed180c48b9",
        "meta": {
          "profile": [
            "http://hl7.eu/fhir/base/StructureDefinition/practitionerRole-eu"
          ]
        },
        "text": {
          "status": "generated",
          "div": "<div xmlns=\"http://www.w3.org/1999/xhtml\">Laboratory Role Id: d74002d5-3455-4001-895d-e1ed180c48b9</div>"
        },
        "practitioner": {
          "reference": "urn:uuid:d47a4d4b-2686-4db3-8d05-5445d0de5daf"
        }
      }
    },
    {
      "fullUrl": "urn:uuid:d47a4d4b-2686-4db3-8d05-5445d0de5daf",
      "resource": {
        "resourceType": "Practitioner",
        "id": "d47a4d4b-2686-4db3-8d05-5445d0de5daf",
        "meta": {
          "profile": [
            "http://hl7.eu/fhir/base/StructureDefinition/practitioner-eu"
          ]
        },
        "identifier": [
          {
            "assigner": {
              "display": "HL7 Europe"
            },
            "system": "urn:oid:2.16.840.1.113883.2.51.999",
            "value": "2c108f52-b302-4771-8351-462e91d524a6"
          }
        ],
        "name": [
          {
            "prefix": [
              "dr"
            ],
            "given": [
              "Ex"
            ],
            "family": "Ample"
          }
        ],
        "address": [
          {
            "line": [
              "Laboratoire Central Européenne",
              "Boulevard du Jardin Botanique 32"
            ],
            "postalCode": "1000",
            "city": "Brussels",
            "country": "Belgium"
          }
        ],
        "text": {
          "status": "generated",
          "div": "<div xmlns=\"http://www.w3.org/1999/xhtml\">Laboratory: Laboratoire Central Européenne, 1000 Brussels, Belgium</div>"
        }
      }
    }
  ],
  "type": "document",
  "timestamp": "2018-03-01T20:05:43Z"
}
