{
  "resourceType": "Bundle",
  "id": "8630333b-8f20-4799-94db-c2307cd3a7d4",
  "meta": {
    "profile": [
      "http://hl7.eu/fhir/laboratory/StructureDefinition/Bundle-eu-lab"
    ]
  },
  "identifier": {
    "assigner": {
      "display": "HL7 Europe"
    },
    "system": "urn:oid:2.16.840.1.113883.2.51.999",
    "value": "9f5ce5de-285c-4cc8-b08a-25a714b2f316"
  },
  "entry": [
    {
      "fullUrl": "urn:uuid:1d123cc6-a7a4-4b34-8cbe-9619b4e973a5",
      "resource": {
        "resourceType": "Composition",
        "id": "1d123cc6-a7a4-4b34-8cbe-9619b4e973a5",
        "meta": {
          "profile": [
            "http://hl7.eu/fhir/laboratory/StructureDefinition/Composition-eu-lab"
          ]
        },
        "identifier": {
          "assigner": {
            "display": "HL7 Europe"
          },
          "system": "urn:oid:2.16.840.1.113883.2.51.999",
          "value": "e6fb8c61-5a40-418b-9e12-deb7f5c9767b"
        },
        "author": [
          {
            "reference": "urn:uuid:2908bd10-0c06-4d87-aa40-4e38f04fc2bd"
          }
        ],
        "category": [
          {
            "coding": [
              {
                "code": "26436-6",
                "system": "http://loinc.org",
                "display": "Laboratory studies (set)"
              }
            ]
          }
        ],
        "type": {
          "coding": [
            {
              "code": "11502-2",
              "system": "http://loinc.org",
              "display": "Laboratory report"
            }
          ],
          "text": "Laboratory Report"
        },
        "section": [
          {
            "code": {
              "coding": [
                {
                  "code": "26436-6",
                  "system": "http://loinc.org",
                  "display": "Laboratory studies (set)"
                }
              ],
              "text": "Laboratory studies"
            },
            "section": [
              {
                "code": {
                  "coding": [
                    {
                      "code": "$18719-5",
                      "system": "http://loinc.org",
                      "display": "Chemistry studies (set)"
                    }
                  ],
                  "text": "Chemistry"
                },
                "entry": [
                  {
                    "reference": "urn:uuid:7f1743dc-6169-41a7-a701-5b6127957a63"
                  },
                  {
                    "reference": "urn:uuid:69cb1d60-6ad2-4acc-8643-66e02fac1dfa"
                  },
                  {
                    "reference": "urn:uuid:1237a313-1a21-40fa-901f-ccbf31a5b0b7"
                  },
                  {
                    "reference": "urn:uuid:8cec91db-3e1d-40b4-9308-928d8b90602c"
                  },
                  {
                    "reference": "urn:uuid:e40083a5-a8b5-4b57-a787-ead7d6215a30"
                  },
                  {
                    "reference": "urn:uuid:4487c580-a548-4a75-9881-cbd477187572"
                  },
                  {
                    "reference": "urn:uuid:bf450efe-0884-4118-9f0b-3a270aa64f4e"
                  },
                  {
                    "reference": "urn:uuid:e46d9fdf-d58f-4abe-bd4f-0426b7311ede"
                  },
                  {
                    "reference": "urn:uuid:7a5ef7c0-0bd0-4e35-a4e4-8656ccb8a2eb"
                  }
                ],
                "text": {
                  "status": "generated",
                  "div": "<div xmlns=\"http://www.w3.org/1999/xhtml\"><h3>Chemistry</h3><table class=\"hl7__eu__lab__report\"><thead><tr><th>Test</th><th>22-AUG-2017</th><th>Reference&#xA0;Range</th><th>Unit</th></tr></thead><tbody><tr><td>Hemoglobin A1c/Hemoglobin.total in Blood</td><td>6.0</td><td>4.5 - 6.4</td><td>%</td></tr><tr><td>Glucose [Mass/volume] in Blood</td><td>91.0</td><td>70 - 99</td><td>mg/dL</td></tr><tr><td>Urea nitrogen [Mass/volume] in Blood</td><td>12.4</td><td>7 - 20</td><td>mg/dL</td></tr><tr><td>Creatinine [Mass/volume] in Blood</td><td>0.9</td><td>0.9 - 1.3</td><td>mg/dL</td></tr><tr><td>Calcium [Mass/volume] in Blood</td><td>9.3</td><td>8.6 - 10.2</td><td>mg/dL</td></tr><tr><td>Sodium [Moles/volume] in Blood</td><td>140.5</td><td>135 - 145</td><td>mmol/L</td></tr><tr><td>Potassium [Moles/volume] in Blood</td><td>3.9</td><td>3.5 - 5.1</td><td>mmol/L</td></tr><tr><td>Chloride [Moles/volume] in Blood</td><td>102.7</td><td>98 - 108</td><td>mmol/L</td></tr><tr><td>Carbon dioxide, total [Moles/volume] in Blood</td><td>24.7</td><td>22 - 29</td><td>mmol/L</td></tr></tbody></table></div>"
                },
                "title": "Chemistry"
              }
            ],
            "title": "Laboratory Report"
          },
          {
            "text": {
              "status": "generated",
              "div": "<div xmlns=\"http://www.w3.org/1999/xhtml\"><h3>Annotation</h3><table class=\"hl7__eu__lab__report\"><tr><th>Conclusion and Recommendations based on this report and previous findings known to us</th></tr><tr><td>All measured laboratory values are within normal limits for this patient, including glucose metabolism, renal function, and electrolyte balance. No laboratory abnormalities detected; results are unremarkable from a clinical laboratory perspective. Continued routine monitoring is recommended.</td></tr></table></div>"
            },
            "code": {
              "coding": [
                {
                  "system": "http://loinc.org",
                  "code": "48767-8",
                  "display": "Annotation comment"
                }
              ]
            },
            "title": "Annotation comment"
          }
        ],
        "status": "final",
        "subject": {
          "reference": "urn:uuid:073864f9-cf67-4aba-9c60-7f9ad269a8cc",
          "display": "Khalid Nilsson"
        },
        "date": "2017-08-22T01:04:23Z",
        "title": "Laboratory Report",
        "confidentiality": "N"
      }
    },
    {
      "fullUrl": "urn:uuid:d2fbae47-0a3a-4df8-b9a9-12a40bbd1deb",
      "resource": {
        "resourceType": "DiagnosticReport",
        "id": "d2fbae47-0a3a-4df8-b9a9-12a40bbd1deb",
        "meta": {
          "profile": [
            "http://hl7.eu/fhir/laboratory/StructureDefinition/DiagnosticReport-eu-lab"
          ]
        },
        "identifier": [
          {
            "assigner": {
              "display": "HL7 Europe"
            },
            "system": "urn:oid:2.16.840.1.113883.2.51.999",
            "value": "f5e61c78-be7b-4c18-a242-3730f602e728"
          }
        ],
        "extension": [
          {
            "url": "http://hl7.org/fhir/5.0/StructureDefinition/extension-DiagnosticReport.composition",
            "valueReference": {
              "reference": "urn:uuid:e6fb8c61-5a40-418b-9e12-deb7f5c9767b"
            }
          }
        ],
        "category": [
          {
            "coding": [
              {
                "code": "26436-6",
                "system": "http://loinc.org",
                "display": "Laboratory studies (set)"
              }
            ]
          }
        ],
        "specimen": [
          {
            "reference": "urn:uuid:c81cd101-ee90-47a2-b6f7-57fdf41268ec"
          }
        ],
        "result": [
          {
            "reference": "urn:uuid:7f1743dc-6169-41a7-a701-5b6127957a63"
          },
          {
            "reference": "urn:uuid:69cb1d60-6ad2-4acc-8643-66e02fac1dfa"
          },
          {
            "reference": "urn:uuid:1237a313-1a21-40fa-901f-ccbf31a5b0b7"
          },
          {
            "reference": "urn:uuid:8cec91db-3e1d-40b4-9308-928d8b90602c"
          },
          {
            "reference": "urn:uuid:e40083a5-a8b5-4b57-a787-ead7d6215a30"
          },
          {
            "reference": "urn:uuid:4487c580-a548-4a75-9881-cbd477187572"
          },
          {
            "reference": "urn:uuid:bf450efe-0884-4118-9f0b-3a270aa64f4e"
          },
          {
            "reference": "urn:uuid:e46d9fdf-d58f-4abe-bd4f-0426b7311ede"
          },
          {
            "reference": "urn:uuid:7a5ef7c0-0bd0-4e35-a4e4-8656ccb8a2eb"
          }
        ],
        "status": "registered",
        "code": {
          "coding": [
            {
              "code": "11502-2",
              "system": "http://loinc.org",
              "display": "Laboratory report"
            }
          ]
        },
        "subject": {
          "reference": "urn:uuid:073864f9-cf67-4aba-9c60-7f9ad269a8cc",
          "display": "Khalid Nilsson"
        }
      }
    },
    {
      "fullUrl": "urn:uuid:073864f9-cf67-4aba-9c60-7f9ad269a8cc",
      "resource": {
        "resourceType": "Patient",
        "id": "073864f9-cf67-4aba-9c60-7f9ad269a8cc",
        "meta": {
          "security": [
            {
              "system": "http://terminology.hl7.org/CodeSystem/v3-ActReason",
              "code": "HTEST"
            },
            {
              "system": "http://terminology.hl7.org/CodeSystem/v3-ActReason",
              "code": "TRAIN"
            }
          ],
          "tag": [
            {
              "system": "https://synderai.net/fhir/CodeSystem/tags",
              "code": "synthetic",
              "display": "SYNDERAI Synthetic data"
            }
          ],
          "profile": [
            "http://hl7.eu/fhir/base/StructureDefinition/patient-eu-core"
          ]
        },
        "identifier": [
          {
            "type": {
              "coding": [
                {
                  "code": "PT",
                  "system": "http://terminology.hl7.org/CodeSystem/v2-0203"
                }
              ]
            },
            "system": "http://ec.europa.eu/identifier/eci",
            "value": "8339-594203-6"
          },
          {
            "type": {
              "coding": [
                {
                  "code": "MR",
                  "system": "http://terminology.hl7.org/CodeSystem/v2-0203"
                }
              ]
            },
            "system": "http://local.setting.eu/identifier",
            "value": "db9680f4-3d2c-0551-cb1c-61573f88f405"
          }
        ],
        "name": [
          {
            "family": "Nilsson"
          },
          {
            "given": [
              "Khalid"
            ]
          },
          {
            "text": "Khalid Nilsson"
          }
        ],
        "address": [
          {
            "line": [
              "Gengränd 482"
            ],
            "use": "home",
            "type": "physical",
            "postalCode": "691 31",
            "city": "Karlskoga",
            "country": "Sweden"
          }
        ],
        "telecom": [
          {
            "system": "phone",
            "value": "+46 (0)8 888 657 95"
          }
        ],
        "extension": [
          {
            "url": "http://hl7.org/fhir/StructureDefinition/patient-nationality",
            "valueCodeableConcept": {
              "coding": [
                {
                  "code": "SE",
                  "system": "http://hl7.org/fhir/ValueSet/country"
                }
              ]
            }
          }
        ],
        "text": {
          "status": "generated",
          "div": "<div xmlns=\"http://www.w3.org/1999/xhtml\"><table class=\"hl7__ips\"><tr><td>Khalid Nilsson</td><td>male</td><td>10-Apr-1952</td></tr></table></div>"
        },
        "gender": "male",
        "birthDate": "1952-04-10"
      }
    },
    {
      "fullUrl": "urn:uuid:0424bd41-1492-49a7-83c4-b7f12908d652",
      "resource": {
        "resourceType": "ServiceRequest",
        "id": "0424bd41-1492-49a7-83c4-b7f12908d652",
        "meta": {
          "profile": [
            "http://hl7.eu/fhir/laboratory/StructureDefinition/ServiceRequest-eu-lab"
          ]
        },
        "identifier": [
          {
            "system": "http://example.org",
            "value": "40406982-13be-4a06-95da-b203978a3e5f"
          }
        ],
        "specimen": [
          {
            "reference": "urn:uuid:c81cd101-ee90-47a2-b6f7-57fdf41268ec"
          }
        ],
        "reasonCode": [
          {
            "coding": [
              {
                "code": "64859006",
                "system": "http://snomed.info/sct",
                "display": "Osteoporosis"
              }
            ]
          },
          {
            "coding": [
              {
                "code": "196416002",
                "system": "http://snomed.info/sct",
                "display": "Impacted molars"
              }
            ]
          },
          {
            "coding": [
              {
                "code": "414545008",
                "system": "http://snomed.info/sct",
                "display": "Ischemic heart disease"
              }
            ]
          },
          {
            "coding": [
              {
                "code": "40055000",
                "system": "http://snomed.info/sct",
                "display": "Chronic sinusitis"
              }
            ]
          },
          {
            "coding": [
              {
                "code": "197927001",
                "system": "http://snomed.info/sct",
                "display": "Recurrent urinary tract infection"
              }
            ]
          },
          {
            "coding": [
              {
                "code": "15777000",
                "system": "http://snomed.info/sct",
                "display": "Prediabetes"
              }
            ]
          },
          {
            "coding": [
              {
                "code": "271737000",
                "system": "http://snomed.info/sct",
                "display": "Anemia"
              }
            ]
          }
        ],
        "status": "active",
        "intent": "order",
        "code": {
          "coding": [
            {
              "code": "108252007",
              "system": "http://snomed.info/sct",
              "display": "Laboratory procedure"
            }
          ]
        },
        "subject": {
          "reference": "urn:uuid:073864f9-cf67-4aba-9c60-7f9ad269a8cc",
          "display": "Khalid Nilsson"
        },
        "requester": {
          "reference": "urn:uuid:5b8f5694-7aa2-40c1-a0af-3cee680d8101"
        }
      }
    },
    {
      "fullUrl": "urn:uuid:5b8f5694-7aa2-40c1-a0af-3cee680d8101",
      "resource": {
        "resourceType": "PractitionerRole",
        "id": "5b8f5694-7aa2-40c1-a0af-3cee680d8101",
        "meta": {
          "profile": [
            "http://hl7.eu/fhir/base/StructureDefinition/practitionerRole-eu"
          ]
        },
        "text": {
          "status": "generated",
          "div": "<div xmlns=\"http://www.w3.org/1999/xhtml\">Provider Role Id: 5b8f5694-7aa2-40c1-a0af-3cee680d8101</div>"
        },
        "organization": {
          "reference": "urn:uuid:8d94cf18-ecfe-4b4e-a463-3a1289412be7"
        }
      }
    },
    {
      "fullUrl": "urn:uuid:8d94cf18-ecfe-4b4e-a463-3a1289412be7",
      "resource": {
        "resourceType": "Organization",
        "id": "8d94cf18-ecfe-4b4e-a463-3a1289412be7",
        "meta": {
          "profile": [
            "http://hl7.eu/fhir/base/StructureDefinition/organization-eu"
          ]
        },
        "identifier": [
          {
            "assigner": {
              "display": "HL7 Europe"
            },
            "system": "urn:oid:2.16.840.1.113883.2.51.999",
            "value": "3a806e1d-14de-4edb-ab75-0c4dd43af24a"
          }
        ],
        "address": [
          {
            "city": "Karlskoga",
            "postalCode": "691 31",
            "country": "Sweden"
          }
        ],
        "text": {
          "status": "generated",
          "div": "<div xmlns=\"http://www.w3.org/1999/xhtml\">Provider Organization: Karlskoga Lasarett</div>"
        },
        "name": "Karlskoga Lasarett"
      }
    },
    {
      "fullUrl": "urn:uuid:c81cd101-ee90-47a2-b6f7-57fdf41268ec",
      "resource": {
        "resourceType": "Specimen",
        "id": "c81cd101-ee90-47a2-b6f7-57fdf41268ec",
        "meta": {
          "profile": [
            "http://hl7.eu/fhir/laboratory/StructureDefinition/Specimen-eu-lab"
          ]
        },
        "collection": {
          "collectedDateTime": "2017-08-21"
        },
        "text": {
          "status": "generated",
          "div": "<div xmlns=\"http://www.w3.org/1999/xhtml\"><table class=\"hl7__eu__lab__report\"><tr><th>Specimen</th><th>Collection Date</th></tr><tr><td>Whole blood specimen (specimen)</td><td><span class=\"nb\">21-Aug-2017</span></td></tr></table></div>"
        },
        "type": {
          "coding": [
            {
              "code": "258580003",
              "system": "http://snomed.info/sct",
              "display": "Whole blood specimen (specimen)"
            }
          ]
        }
      }
    },
    {
      "fullUrl": "urn:uuid:7f1743dc-6169-41a7-a701-5b6127957a63",
      "resource": {
        "resourceType": "Observation",
        "id": "7f1743dc-6169-41a7-a701-5b6127957a63",
        "meta": {
          "profile": [
            "http://hl7.eu/fhir/laboratory/StructureDefinition/Observation-resultslab-eu-lab"
          ]
        },
        "performer": [
          {
            "display": "The Central European Lab"
          }
        ],
        "category": [
          {
            "coding": [
              {
                "system": "http://terminology.hl7.org/CodeSystem/observation-category",
                "code": "laboratory"
              }
            ]
          }
        ],
        "code": {
          "coding": [
            {
              "code": "4548-4",
              "system": "http://loinc.org",
              "display": "Hemoglobin A1c/Hemoglobin.total in Blood"
            }
          ],
          "text": "Hemoglobin A1c/Hemoglobin.total in Blood"
        },
        "valueQuantity": {
          "system": "http://unitsofmeasure.org",
          "value": 6,
          "unit": "%",
          "code": "%"
        },
        "referenceRange": [
          {
            "low": {
              "value": 4.5,
              "code": "%",
              "system": "http://unitsofmeasure.org"
            }
          },
          {
            "high": {
              "value": 6.4,
              "code": "%",
              "system": "http://unitsofmeasure.org"
            }
          }
        ],
        "text": {
          "status": "generated",
          "div": "<div xmlns=\"http://www.w3.org/1999/xhtml\"><table class=\"hl7__eu__lab__report\"><tr><th>Test</th><th>22-Aug-2017</th><th>Reference&#xA0;Range</th><th>Unit</th></tr><tr><td>Hemoglobin A1c/Hemoglobin.total in Blood</td><td>6.0</td><td>4.5 - 6.4</td><td></td><td>%</td></tr></table></div>"
        },
        "status": "final",
        "subject": {
          "reference": "urn:uuid:073864f9-cf67-4aba-9c60-7f9ad269a8cc",
          "display": "Khalid Nilsson"
        },
        "effectiveDateTime": "2017-08-21T23:04:23Z",
        "specimen": {
          "reference": "urn:uuid:c81cd101-ee90-47a2-b6f7-57fdf41268ec"
        }
      }
    },
    {
      "fullUrl": "urn:uuid:69cb1d60-6ad2-4acc-8643-66e02fac1dfa",
      "resource": {
        "resourceType": "Observation",
        "id": "69cb1d60-6ad2-4acc-8643-66e02fac1dfa",
        "meta": {
          "profile": [
            "http://hl7.eu/fhir/laboratory/StructureDefinition/Observation-resultslab-eu-lab"
          ]
        },
        "performer": [
          {
            "display": "The Central European Lab"
          }
        ],
        "category": [
          {
            "coding": [
              {
                "system": "http://terminology.hl7.org/CodeSystem/observation-category",
                "code": "laboratory"
              }
            ]
          }
        ],
        "code": {
          "coding": [
            {
              "code": "2339-0",
              "system": "http://loinc.org",
              "display": "Glucose [Mass/volume] in Blood"
            }
          ],
          "text": "Glucose [Mass/volume] in Blood"
        },
        "valueQuantity": {
          "system": "http://unitsofmeasure.org",
          "value": 91,
          "unit": "mg/dL",
          "code": "mg/dL"
        },
        "referenceRange": [
          {
            "low": {
              "value": 70,
              "code": "mg/dL",
              "system": "http://unitsofmeasure.org"
            }
          },
          {
            "high": {
              "value": 99,
              "code": "mg/dL",
              "system": "http://unitsofmeasure.org"
            }
          }
        ],
        "text": {
          "status": "generated",
          "div": "<div xmlns=\"http://www.w3.org/1999/xhtml\"><table class=\"hl7__eu__lab__report\"><tr><th>Test</th><th>22-Aug-2017</th><th>Reference&#xA0;Range</th><th>Unit</th></tr><tr><td>Glucose [Mass/volume] in Blood</td><td>91.0</td><td>70 - 99</td><td></td><td>mg/dL</td></tr></table></div>"
        },
        "status": "final",
        "subject": {
          "reference": "urn:uuid:073864f9-cf67-4aba-9c60-7f9ad269a8cc",
          "display": "Khalid Nilsson"
        },
        "effectiveDateTime": "2017-08-21T23:04:23Z",
        "specimen": {
          "reference": "urn:uuid:c81cd101-ee90-47a2-b6f7-57fdf41268ec"
        }
      }
    },
    {
      "fullUrl": "urn:uuid:1237a313-1a21-40fa-901f-ccbf31a5b0b7",
      "resource": {
        "resourceType": "Observation",
        "id": "1237a313-1a21-40fa-901f-ccbf31a5b0b7",
        "meta": {
          "profile": [
            "http://hl7.eu/fhir/laboratory/StructureDefinition/Observation-resultslab-eu-lab"
          ]
        },
        "performer": [
          {
            "display": "The Central European Lab"
          }
        ],
        "category": [
          {
            "coding": [
              {
                "system": "http://terminology.hl7.org/CodeSystem/observation-category",
                "code": "laboratory"
              }
            ]
          }
        ],
        "code": {
          "coding": [
            {
              "code": "6299-2",
              "system": "http://loinc.org",
              "display": "Urea nitrogen [Mass/volume] in Blood"
            }
          ],
          "text": "Urea nitrogen [Mass/volume] in Blood"
        },
        "valueQuantity": {
          "system": "http://unitsofmeasure.org",
          "value": 12.4,
          "unit": "mg/dL",
          "code": "mg/dL"
        },
        "referenceRange": [
          {
            "low": {
              "value": 7,
              "code": "mg/dL",
              "system": "http://unitsofmeasure.org"
            }
          },
          {
            "high": {
              "value": 20,
              "code": "mg/dL",
              "system": "http://unitsofmeasure.org"
            }
          }
        ],
        "text": {
          "status": "generated",
          "div": "<div xmlns=\"http://www.w3.org/1999/xhtml\"><table class=\"hl7__eu__lab__report\"><tr><th>Test</th><th>22-Aug-2017</th><th>Reference&#xA0;Range</th><th>Unit</th></tr><tr><td>Urea nitrogen [Mass/volume] in Blood</td><td>12.4</td><td>7 - 20</td><td></td><td>mg/dL</td></tr></table></div>"
        },
        "status": "final",
        "subject": {
          "reference": "urn:uuid:073864f9-cf67-4aba-9c60-7f9ad269a8cc",
          "display": "Khalid Nilsson"
        },
        "effectiveDateTime": "2017-08-21T23:04:23Z",
        "specimen": {
          "reference": "urn:uuid:c81cd101-ee90-47a2-b6f7-57fdf41268ec"
        }
      }
    },
    {
      "fullUrl": "urn:uuid:8cec91db-3e1d-40b4-9308-928d8b90602c",
      "resource": {
        "resourceType": "Observation",
        "id": "8cec91db-3e1d-40b4-9308-928d8b90602c",
        "meta": {
          "profile": [
            "http://hl7.eu/fhir/laboratory/StructureDefinition/Observation-resultslab-eu-lab"
          ]
        },
        "performer": [
          {
            "display": "The Central European Lab"
          }
        ],
        "category": [
          {
            "coding": [
              {
                "system": "http://terminology.hl7.org/CodeSystem/observation-category",
                "code": "laboratory"
              }
            ]
          }
        ],
        "code": {
          "coding": [
            {
              "code": "38483-4",
              "system": "http://loinc.org",
              "display": "Creatinine [Mass/volume] in Blood"
            }
          ],
          "text": "Creatinine [Mass/volume] in Blood"
        },
        "valueQuantity": {
          "system": "http://unitsofmeasure.org",
          "value": 0.9,
          "unit": "mg/dL",
          "code": "mg/dL"
        },
        "referenceRange": [
          {
            "low": {
              "value": 0.9,
              "code": "mg/dL",
              "system": "http://unitsofmeasure.org"
            }
          },
          {
            "high": {
              "value": 1.3,
              "code": "mg/dL",
              "system": "http://unitsofmeasure.org"
            }
          }
        ],
        "text": {
          "status": "generated",
          "div": "<div xmlns=\"http://www.w3.org/1999/xhtml\"><table class=\"hl7__eu__lab__report\"><tr><th>Test</th><th>22-Aug-2017</th><th>Reference&#xA0;Range</th><th>Unit</th></tr><tr><td>Creatinine [Mass/volume] in Blood</td><td>0.9</td><td>0.9 - 1.3</td><td></td><td>mg/dL</td></tr></table></div>"
        },
        "status": "final",
        "subject": {
          "reference": "urn:uuid:073864f9-cf67-4aba-9c60-7f9ad269a8cc",
          "display": "Khalid Nilsson"
        },
        "effectiveDateTime": "2017-08-21T23:04:23Z",
        "specimen": {
          "reference": "urn:uuid:c81cd101-ee90-47a2-b6f7-57fdf41268ec"
        }
      }
    },
    {
      "fullUrl": "urn:uuid:e40083a5-a8b5-4b57-a787-ead7d6215a30",
      "resource": {
        "resourceType": "Observation",
        "id": "e40083a5-a8b5-4b57-a787-ead7d6215a30",
        "meta": {
          "profile": [
            "http://hl7.eu/fhir/laboratory/StructureDefinition/Observation-resultslab-eu-lab"
          ]
        },
        "performer": [
          {
            "display": "The Central European Lab"
          }
        ],
        "category": [
          {
            "coding": [
              {
                "system": "http://terminology.hl7.org/CodeSystem/observation-category",
                "code": "laboratory"
              }
            ]
          }
        ],
        "code": {
          "coding": [
            {
              "code": "49765-1",
              "system": "http://loinc.org",
              "display": "Calcium [Mass/volume] in Blood"
            }
          ],
          "text": "Calcium [Mass/volume] in Blood"
        },
        "valueQuantity": {
          "system": "http://unitsofmeasure.org",
          "value": 9.3,
          "unit": "mg/dL",
          "code": "mg/dL"
        },
        "referenceRange": [
          {
            "low": {
              "value": 8.6,
              "code": "mg/dL",
              "system": "http://unitsofmeasure.org"
            }
          },
          {
            "high": {
              "value": 10.2,
              "code": "mg/dL",
              "system": "http://unitsofmeasure.org"
            }
          }
        ],
        "text": {
          "status": "generated",
          "div": "<div xmlns=\"http://www.w3.org/1999/xhtml\"><table class=\"hl7__eu__lab__report\"><tr><th>Test</th><th>22-Aug-2017</th><th>Reference&#xA0;Range</th><th>Unit</th></tr><tr><td>Calcium [Mass/volume] in Blood</td><td>9.3</td><td>8.6 - 10.2</td><td></td><td>mg/dL</td></tr></table></div>"
        },
        "status": "final",
        "subject": {
          "reference": "urn:uuid:073864f9-cf67-4aba-9c60-7f9ad269a8cc",
          "display": "Khalid Nilsson"
        },
        "effectiveDateTime": "2017-08-21T23:04:23Z",
        "specimen": {
          "reference": "urn:uuid:c81cd101-ee90-47a2-b6f7-57fdf41268ec"
        }
      }
    },
    {
      "fullUrl": "urn:uuid:4487c580-a548-4a75-9881-cbd477187572",
      "resource": {
        "resourceType": "Observation",
        "id": "4487c580-a548-4a75-9881-cbd477187572",
        "meta": {
          "profile": [
            "http://hl7.eu/fhir/laboratory/StructureDefinition/Observation-resultslab-eu-lab"
          ]
        },
        "performer": [
          {
            "display": "The Central European Lab"
          }
        ],
        "category": [
          {
            "coding": [
              {
                "system": "http://terminology.hl7.org/CodeSystem/observation-category",
                "code": "laboratory"
              }
            ]
          }
        ],
        "code": {
          "coding": [
            {
              "code": "2947-0",
              "system": "http://loinc.org",
              "display": "Sodium [Moles/volume] in Blood"
            }
          ],
          "text": "Sodium [Moles/volume] in Blood"
        },
        "valueQuantity": {
          "system": "http://unitsofmeasure.org",
          "value": 140.5,
          "unit": "mmol/L",
          "code": "mmol/L"
        },
        "referenceRange": [
          {
            "low": {
              "value": 135,
              "code": "mmol/L",
              "system": "http://unitsofmeasure.org"
            }
          },
          {
            "high": {
              "value": 145,
              "code": "mmol/L",
              "system": "http://unitsofmeasure.org"
            }
          }
        ],
        "text": {
          "status": "generated",
          "div": "<div xmlns=\"http://www.w3.org/1999/xhtml\"><table class=\"hl7__eu__lab__report\"><tr><th>Test</th><th>22-Aug-2017</th><th>Reference&#xA0;Range</th><th>Unit</th></tr><tr><td>Sodium [Moles/volume] in Blood</td><td>140.5</td><td>135 - 145</td><td></td><td>mmol/L</td></tr></table></div>"
        },
        "status": "final",
        "subject": {
          "reference": "urn:uuid:073864f9-cf67-4aba-9c60-7f9ad269a8cc",
          "display": "Khalid Nilsson"
        },
        "effectiveDateTime": "2017-08-21T23:04:23Z",
        "specimen": {
          "reference": "urn:uuid:c81cd101-ee90-47a2-b6f7-57fdf41268ec"
        }
      }
    },
    {
      "fullUrl": "urn:uuid:bf450efe-0884-4118-9f0b-3a270aa64f4e",
      "resource": {
        "resourceType": "Observation",
        "id": "bf450efe-0884-4118-9f0b-3a270aa64f4e",
        "meta": {
          "profile": [
            "http://hl7.eu/fhir/laboratory/StructureDefinition/Observation-resultslab-eu-lab"
          ]
        },
        "performer": [
          {
            "display": "The Central European Lab"
          }
        ],
        "category": [
          {
            "coding": [
              {
                "system": "http://terminology.hl7.org/CodeSystem/observation-category",
                "code": "laboratory"
              }
            ]
          }
        ],
        "code": {
          "coding": [
            {
              "code": "6298-4",
              "system": "http://loinc.org",
              "display": "Potassium [Moles/volume] in Blood"
            }
          ],
          "text": "Potassium [Moles/volume] in Blood"
        },
        "valueQuantity": {
          "system": "http://unitsofmeasure.org",
          "value": 3.9,
          "unit": "mmol/L",
          "code": "mmol/L"
        },
        "referenceRange": [
          {
            "low": {
              "value": 3.5,
              "code": "mmol/L",
              "system": "http://unitsofmeasure.org"
            }
          },
          {
            "high": {
              "value": 5.1,
              "code": "mmol/L",
              "system": "http://unitsofmeasure.org"
            }
          }
        ],
        "text": {
          "status": "generated",
          "div": "<div xmlns=\"http://www.w3.org/1999/xhtml\"><table class=\"hl7__eu__lab__report\"><tr><th>Test</th><th>22-Aug-2017</th><th>Reference&#xA0;Range</th><th>Unit</th></tr><tr><td>Potassium [Moles/volume] in Blood</td><td>3.9</td><td>3.5 - 5.1</td><td></td><td>mmol/L</td></tr></table></div>"
        },
        "status": "final",
        "subject": {
          "reference": "urn:uuid:073864f9-cf67-4aba-9c60-7f9ad269a8cc",
          "display": "Khalid Nilsson"
        },
        "effectiveDateTime": "2017-08-21T23:04:23Z",
        "specimen": {
          "reference": "urn:uuid:c81cd101-ee90-47a2-b6f7-57fdf41268ec"
        }
      }
    },
    {
      "fullUrl": "urn:uuid:e46d9fdf-d58f-4abe-bd4f-0426b7311ede",
      "resource": {
        "resourceType": "Observation",
        "id": "e46d9fdf-d58f-4abe-bd4f-0426b7311ede",
        "meta": {
          "profile": [
            "http://hl7.eu/fhir/laboratory/StructureDefinition/Observation-resultslab-eu-lab"
          ]
        },
        "performer": [
          {
            "display": "The Central European Lab"
          }
        ],
        "category": [
          {
            "coding": [
              {
                "system": "http://terminology.hl7.org/CodeSystem/observation-category",
                "code": "laboratory"
              }
            ]
          }
        ],
        "code": {
          "coding": [
            {
              "code": "2069-3",
              "system": "http://loinc.org",
              "display": "Chloride [Moles/volume] in Blood"
            }
          ],
          "text": "Chloride [Moles/volume] in Blood"
        },
        "valueQuantity": {
          "system": "http://unitsofmeasure.org",
          "value": 102.7,
          "unit": "mmol/L",
          "code": "mmol/L"
        },
        "referenceRange": [
          {
            "low": {
              "value": 98,
              "code": "mmol/L",
              "system": "http://unitsofmeasure.org"
            }
          },
          {
            "high": {
              "value": 108,
              "code": "mmol/L",
              "system": "http://unitsofmeasure.org"
            }
          }
        ],
        "text": {
          "status": "generated",
          "div": "<div xmlns=\"http://www.w3.org/1999/xhtml\"><table class=\"hl7__eu__lab__report\"><tr><th>Test</th><th>22-Aug-2017</th><th>Reference&#xA0;Range</th><th>Unit</th></tr><tr><td>Chloride [Moles/volume] in Blood</td><td>102.7</td><td>98 - 108</td><td></td><td>mmol/L</td></tr></table></div>"
        },
        "status": "final",
        "subject": {
          "reference": "urn:uuid:073864f9-cf67-4aba-9c60-7f9ad269a8cc",
          "display": "Khalid Nilsson"
        },
        "effectiveDateTime": "2017-08-21T23:04:23Z",
        "specimen": {
          "reference": "urn:uuid:c81cd101-ee90-47a2-b6f7-57fdf41268ec"
        }
      }
    },
    {
      "fullUrl": "urn:uuid:7a5ef7c0-0bd0-4e35-a4e4-8656ccb8a2eb",
      "resource": {
        "resourceType": "Observation",
        "id": "7a5ef7c0-0bd0-4e35-a4e4-8656ccb8a2eb",
        "meta": {
          "profile": [
            "http://hl7.eu/fhir/laboratory/StructureDefinition/Observation-resultslab-eu-lab"
          ]
        },
        "performer": [
          {
            "display": "The Central European Lab"
          }
        ],
        "category": [
          {
            "coding": [
              {
                "system": "http://terminology.hl7.org/CodeSystem/observation-category",
                "code": "laboratory"
              }
            ]
          }
        ],
        "code": {
          "coding": [
            {
              "code": "20565-8",
              "system": "http://loinc.org",
              "display": "Carbon dioxide, total [Moles/volume] in Blood"
            }
          ],
          "text": "Carbon dioxide, total [Moles/volume] in Blood"
        },
        "valueQuantity": {
          "system": "http://unitsofmeasure.org",
          "value": 24.7,
          "unit": "mmol/L",
          "code": "mmol/L"
        },
        "referenceRange": [
          {
            "low": {
              "value": 22,
              "code": "mmol/L",
              "system": "http://unitsofmeasure.org"
            }
          },
          {
            "high": {
              "value": 29,
              "code": "mmol/L",
              "system": "http://unitsofmeasure.org"
            }
          }
        ],
        "text": {
          "status": "generated",
          "div": "<div xmlns=\"http://www.w3.org/1999/xhtml\"><table class=\"hl7__eu__lab__report\"><tr><th>Test</th><th>22-Aug-2017</th><th>Reference&#xA0;Range</th><th>Unit</th></tr><tr><td>Carbon dioxide, total [Moles/volume] in Blood</td><td>24.7</td><td>22 - 29</td><td></td><td>mmol/L</td></tr></table></div>"
        },
        "status": "final",
        "subject": {
          "reference": "urn:uuid:073864f9-cf67-4aba-9c60-7f9ad269a8cc",
          "display": "Khalid Nilsson"
        },
        "effectiveDateTime": "2017-08-21T23:04:23Z",
        "specimen": {
          "reference": "urn:uuid:c81cd101-ee90-47a2-b6f7-57fdf41268ec"
        }
      }
    },
    {
      "fullUrl": "urn:uuid:8e40b886-becc-47b0-98c9-1b58372c71b7",
      "resource": {
        "resourceType": "Device",
        "id": "8e40b886-becc-47b0-98c9-1b58372c71b7",
        "deviceName": [
          {
            "name": "SYNDERAI Synthetic Generator",
            "type": "manufacturer-name"
          }
        ],
        "version": [
          {
            "value": "5.0"
          }
        ],
        "text": {
          "status": "generated",
          "div": "<div xmlns=\"http://www.w3.org/1999/xhtml\">SYNDERAI Synthetic Generator v5.0</div>"
        },
        "status": "active\"",
        "distinctIdentifier": "synderai-generator-50",
        "manufacturer": "SYNDERAI Project"
      }
    },
    {
      "fullUrl": "urn:uuid:a9c8afc7-ae59-4346-a5f6-d1be2b7fd7b2",
      "resource": {
        "resourceType": "Provenance",
        "id": "a9c8afc7-ae59-4346-a5f6-d1be2b7fd7b2",
        "target": [
          {
            "reference": "Patient/073864f9-cf67-4aba-9c60-7f9ad269a8cc"
          },
          {
            "reference": "Bundle/8630333b-8f20-4799-94db-c2307cd3a7d4"
          },
          {
            "reference": "Composition/1d123cc6-a7a4-4b34-8cbe-9619b4e973a5"
          },
          {
            "reference": "PractitionerRole/2908bd10-0c06-4d87-aa40-4e38f04fc2bd"
          },
          {
            "reference": "Practitioner/2ef9990b-e97c-4d09-85f7-b5646ceba4c4"
          },
          {
            "reference": "PractitionerRole/5b8f5694-7aa2-40c1-a0af-3cee680d8101"
          },
          {
            "reference": "Organization/8d94cf18-ecfe-4b4e-a463-3a1289412be7"
          }
        ],
        "activity": {
          "text": "Synthetic Example Data Generation"
        },
        "policy": [
          "https://synderai.net/synderai-synthetic-data-policy"
        ],
        "agent": [
          {
            "type": {
              "text": "author"
            },
            "who": {
              "reference": "Device/8e40b886-becc-47b0-98c9-1b58372c71b7"
            }
          }
        ],
        "reason": [
          {
            "text": "Interoperability Testing and Training (non-clinical use)"
          }
        ],
        "text": {
          "status": "generated",
          "div": "<div xmlns=\"http://www.w3.org/1999/xhtml\">Provenance for SYNDERAI Synthetic Example Data Resource</div>"
        },
        "recorded": "2017-08-22T01:04:23Z"
      }
    },
    {
      "fullUrl": "urn:uuid:2908bd10-0c06-4d87-aa40-4e38f04fc2bd",
      "resource": {
        "resourceType": "PractitionerRole",
        "id": "2908bd10-0c06-4d87-aa40-4e38f04fc2bd",
        "meta": {
          "profile": [
            "http://hl7.eu/fhir/base/StructureDefinition/practitionerRole-eu"
          ]
        },
        "text": {
          "status": "generated",
          "div": "<div xmlns=\"http://www.w3.org/1999/xhtml\">Laboratory Role Id: 2908bd10-0c06-4d87-aa40-4e38f04fc2bd</div>"
        },
        "practitioner": {
          "reference": "urn:uuid:2ef9990b-e97c-4d09-85f7-b5646ceba4c4"
        }
      }
    },
    {
      "fullUrl": "urn:uuid:2ef9990b-e97c-4d09-85f7-b5646ceba4c4",
      "resource": {
        "resourceType": "Practitioner",
        "id": "2ef9990b-e97c-4d09-85f7-b5646ceba4c4",
        "meta": {
          "profile": [
            "http://hl7.eu/fhir/base/StructureDefinition/practitioner-eu"
          ]
        },
        "identifier": [
          {
            "assigner": {
              "display": "HL7 Europe"
            },
            "system": "urn:oid:2.16.840.1.113883.2.51.999",
            "value": "3cc9dc38-5338-4bcf-b39b-1341b702ae69"
          }
        ],
        "name": [
          {
            "prefix": [
              "dr"
            ],
            "given": [
              "Ex"
            ],
            "family": "Ample"
          }
        ],
        "address": [
          {
            "line": [
              "Laboratoire Central Européenne",
              "Boulevard du Jardin Botanique 32"
            ],
            "postalCode": "1000",
            "city": "Brussels",
            "country": "Belgium"
          }
        ],
        "text": {
          "status": "generated",
          "div": "<div xmlns=\"http://www.w3.org/1999/xhtml\">Laboratory: Laboratoire Central Européenne, 1000 Brussels, Belgium</div>"
        }
      }
    }
  ],
  "type": "document",
  "timestamp": "2017-08-22T01:04:23Z"
}
