{
  "resourceType": "Bundle",
  "id": "1b692b1f-b5d7-4714-9d13-97f6b65005a3",
  "meta": {
    "profile": [
      "http://hl7.eu/fhir/laboratory/StructureDefinition/Bundle-eu-lab"
    ]
  },
  "identifier": {
    "assigner": {
      "display": "HL7 Europe"
    },
    "system": "urn:oid:2.16.840.1.113883.2.51.999",
    "value": "df5d8e9f-1f81-4223-b845-0ab6dad55a94"
  },
  "entry": [
    {
      "fullUrl": "urn:uuid:7311f8dd-4c95-4b93-81f3-9cad30f56344",
      "resource": {
        "resourceType": "Composition",
        "id": "7311f8dd-4c95-4b93-81f3-9cad30f56344",
        "meta": {
          "profile": [
            "http://hl7.eu/fhir/laboratory/StructureDefinition/Composition-eu-lab"
          ]
        },
        "identifier": {
          "assigner": {
            "display": "HL7 Europe"
          },
          "system": "urn:oid:2.16.840.1.113883.2.51.999",
          "value": "a8dadc1f-de9a-4652-a930-bbd8d86fe194"
        },
        "author": [
          {
            "reference": "urn:uuid:faea977b-088d-4b4b-acce-c836d0eaf972"
          }
        ],
        "category": [
          {
            "coding": [
              {
                "code": "26436-6",
                "system": "http://loinc.org",
                "display": "Laboratory studies (set)"
              }
            ]
          }
        ],
        "type": {
          "coding": [
            {
              "code": "11502-2",
              "system": "http://loinc.org",
              "display": "Laboratory report"
            }
          ],
          "text": "Laboratory Report"
        },
        "section": [
          {
            "code": {
              "coding": [
                {
                  "code": "26436-6",
                  "system": "http://loinc.org",
                  "display": "Laboratory studies (set)"
                }
              ],
              "text": "Laboratory studies"
            },
            "section": [
              {
                "code": {
                  "coding": [
                    {
                      "code": "$18723-7",
                      "system": "http://loinc.org",
                      "display": "Hematology studies (set)"
                    }
                  ],
                  "text": "Hematology"
                },
                "entry": [
                  {
                    "reference": "urn:uuid:71deb665-dde5-4643-9e45-52edc5f6e56b"
                  },
                  {
                    "reference": "urn:uuid:e1be4581-41ff-4653-9f85-3aab1751280f"
                  },
                  {
                    "reference": "urn:uuid:5141c97f-a4e3-420e-9a18-721f57d22bc7"
                  },
                  {
                    "reference": "urn:uuid:1cceeea3-a329-42bd-b623-a2cda380e62f"
                  },
                  {
                    "reference": "urn:uuid:578d1b19-7ef2-4aad-b6e5-02ba6e809fcb"
                  },
                  {
                    "reference": "urn:uuid:82308505-42a6-492d-9bb1-2254fb6b7b59"
                  },
                  {
                    "reference": "urn:uuid:44cb3669-c9e3-4a6a-93e5-d062e95f2d6e"
                  },
                  {
                    "reference": "urn:uuid:23d102fc-d4e6-436f-906b-6a4651ec1504"
                  },
                  {
                    "reference": "urn:uuid:89b07f62-4a44-40d3-bf5d-bfd5bba44912"
                  },
                  {
                    "reference": "urn:uuid:06e51c8a-cd49-45fd-8f39-9917cf7eb996"
                  },
                  {
                    "reference": "urn:uuid:550dd581-7616-4550-9543-6990dcea3f8c"
                  }
                ],
                "text": {
                  "status": "generated",
                  "div": "<div xmlns=\"http://www.w3.org/1999/xhtml\"><h3>Hematology</h3><table class=\"hl7__eu__lab__report\"><thead><tr><th>Test</th><th>14-MAY-2019</th><th>Reference&#xA0;Range</th><th>Unit</th></tr></thead><tbody><tr><td>Leukocytes [#/volume] in Blood by Automated count</td><td>10.0</td><td>3.6 - 10.5</td><td>10*3/uL</td></tr><tr><td>Erythrocytes [#/volume] in Blood by Automated count</td><td><strong>4.2 L</strong></td><td>4.5 - 5.5</td><td>10*6/uL</td></tr><tr><td>Hemoglobin [Mass/volume] in Blood</td><td>14.9</td><td>12 - 16</td><td>g/dL</td></tr><tr><td>Hematocrit [Volume Fraction] of Blood by Automated count</td><td>46.4</td><td>36 - 48</td><td>%</td></tr><tr><td>MCV [Entitic volume] by Automated count</td><td>86.9</td><td>78 - 98</td><td>fL</td></tr><tr><td>MCH [Entitic mass] by Automated count</td><td>30.4</td><td>27 - 33</td><td>pg</td></tr><tr><td>MCHC [Mass/volume] by Automated count</td><td><strong>35.1 H</strong></td><td>31.5 - 35</td><td>g/dL</td></tr><tr><td>Erythrocyte distribution width [Entitic volume] by Automated count</td><td>39.6</td><td>36 - 55</td><td>fL</td></tr><tr><td>Platelets [#/volume] in Blood by Automated count</td><td>294.4</td><td>150 - 450</td><td>10*3/uL</td></tr><tr><td>Platelet distribution width [Entitic volume] in Blood by Automated count</td><td><strong>374.8 H</strong></td><td>13.4 - 17.4</td><td>fL</td></tr><tr><td>Platelet mean volume [Entitic volume] in Blood by Automated count</td><td>11.9</td><td>9.7 - 12</td><td>fL</td></tr></tbody></table></div>"
                },
                "title": "Hematology"
              }
            ],
            "title": "Laboratory Report"
          },
          {
            "text": {
              "status": "generated",
              "div": "<div xmlns=\"http://www.w3.org/1999/xhtml\"><h3>Annotation</h3><table class=\"hl7__eu__lab__report\"><tr><th>Conclusion and Recommendations based on this report and previous findings known to us</th></tr><tr><td>The results show a mildly decreased erythrocyte count with normal hemoglobin and hematocrit, suggesting no clinically significant anemia. MCHC is slightly elevated, which may indicate spherocytosis or sample artifact. Platelet count is normal, but platelet distribution width is markedly increased, possibly reflecting platelet size variability. No acute pathology is evident; correlation with clinical context is recommended.</td></tr></table></div>"
            },
            "code": {
              "coding": [
                {
                  "system": "http://loinc.org",
                  "code": "48767-8",
                  "display": "Annotation comment"
                }
              ]
            },
            "title": "Annotation comment"
          }
        ],
        "status": "final",
        "subject": {
          "reference": "urn:uuid:35ec41c0-f220-4bf8-b57e-7b5478a20999",
          "display": "Carole Cooke"
        },
        "date": "2019-05-14T06:55:51Z",
        "title": "Laboratory Report",
        "confidentiality": "N"
      }
    },
    {
      "fullUrl": "urn:uuid:90e0b8f6-05b1-437a-9e62-ae662b90d73e",
      "resource": {
        "resourceType": "DiagnosticReport",
        "id": "90e0b8f6-05b1-437a-9e62-ae662b90d73e",
        "meta": {
          "profile": [
            "http://hl7.eu/fhir/laboratory/StructureDefinition/DiagnosticReport-eu-lab"
          ]
        },
        "identifier": [
          {
            "assigner": {
              "display": "HL7 Europe"
            },
            "system": "urn:oid:2.16.840.1.113883.2.51.999",
            "value": "f5429621-235a-4004-b02d-90a4d6f0f13d"
          }
        ],
        "extension": [
          {
            "url": "http://hl7.org/fhir/5.0/StructureDefinition/extension-DiagnosticReport.composition",
            "valueReference": {
              "reference": "urn:uuid:a8dadc1f-de9a-4652-a930-bbd8d86fe194"
            }
          }
        ],
        "category": [
          {
            "coding": [
              {
                "code": "26436-6",
                "system": "http://loinc.org",
                "display": "Laboratory studies (set)"
              }
            ]
          }
        ],
        "specimen": [
          {
            "reference": "urn:uuid:428f2f5f-8cff-4424-9fbb-a4a4f12de927"
          },
          {
            "reference": "urn:uuid:428f2f5f-8cff-4424-9fbb-a4a4f12de927"
          }
        ],
        "result": [
          {
            "reference": "urn:uuid:71deb665-dde5-4643-9e45-52edc5f6e56b"
          },
          {
            "reference": "urn:uuid:e1be4581-41ff-4653-9f85-3aab1751280f"
          },
          {
            "reference": "urn:uuid:5141c97f-a4e3-420e-9a18-721f57d22bc7"
          },
          {
            "reference": "urn:uuid:1cceeea3-a329-42bd-b623-a2cda380e62f"
          },
          {
            "reference": "urn:uuid:578d1b19-7ef2-4aad-b6e5-02ba6e809fcb"
          },
          {
            "reference": "urn:uuid:82308505-42a6-492d-9bb1-2254fb6b7b59"
          },
          {
            "reference": "urn:uuid:44cb3669-c9e3-4a6a-93e5-d062e95f2d6e"
          },
          {
            "reference": "urn:uuid:23d102fc-d4e6-436f-906b-6a4651ec1504"
          },
          {
            "reference": "urn:uuid:89b07f62-4a44-40d3-bf5d-bfd5bba44912"
          },
          {
            "reference": "urn:uuid:06e51c8a-cd49-45fd-8f39-9917cf7eb996"
          },
          {
            "reference": "urn:uuid:550dd581-7616-4550-9543-6990dcea3f8c"
          }
        ],
        "status": "registered",
        "code": {
          "coding": [
            {
              "code": "11502-2",
              "system": "http://loinc.org",
              "display": "Laboratory report"
            }
          ]
        },
        "subject": {
          "reference": "urn:uuid:35ec41c0-f220-4bf8-b57e-7b5478a20999",
          "display": "Carole Cooke"
        }
      }
    },
    {
      "fullUrl": "urn:uuid:35ec41c0-f220-4bf8-b57e-7b5478a20999",
      "resource": {
        "resourceType": "Patient",
        "id": "35ec41c0-f220-4bf8-b57e-7b5478a20999",
        "meta": {
          "security": [
            {
              "system": "http://terminology.hl7.org/CodeSystem/v3-ActReason",
              "code": "HTEST"
            },
            {
              "system": "http://terminology.hl7.org/CodeSystem/v3-ActReason",
              "code": "TRAIN"
            }
          ],
          "tag": [
            {
              "system": "https://synderai.net/fhir/CodeSystem/tags",
              "code": "synthetic",
              "display": "SYNDERAI Synthetic data"
            }
          ],
          "profile": [
            "http://hl7.eu/fhir/base/StructureDefinition/patient-eu-core"
          ]
        },
        "identifier": [
          {
            "type": {
              "coding": [
                {
                  "code": "PT",
                  "system": "http://terminology.hl7.org/CodeSystem/v2-0203"
                }
              ]
            },
            "system": "http://ec.europa.eu/identifier/eci",
            "value": "1102-358220-5"
          },
          {
            "type": {
              "coding": [
                {
                  "code": "MR",
                  "system": "http://terminology.hl7.org/CodeSystem/v2-0203"
                }
              ]
            },
            "system": "http://local.setting.eu/identifier",
            "value": "f525f046-df37-01f8-5d2a-6533e179ee9d"
          }
        ],
        "name": [
          {
            "family": "Cooke"
          },
          {
            "given": [
              "Carole"
            ]
          },
          {
            "text": "Carole Cooke"
          }
        ],
        "address": [
          {
            "line": [
              "739 Pamela summit"
            ],
            "use": "home",
            "type": "physical",
            "postalCode": "SW1A",
            "city": "London",
            "country": "United Kingdom"
          }
        ],
        "telecom": [
          {
            "system": "phone",
            "value": "+441514960086"
          }
        ],
        "extension": [
          {
            "url": "http://hl7.org/fhir/StructureDefinition/patient-nationality",
            "valueCodeableConcept": {
              "coding": [
                {
                  "code": "GB",
                  "system": "http://hl7.org/fhir/ValueSet/country"
                }
              ]
            }
          }
        ],
        "text": {
          "status": "generated",
          "div": "<div xmlns=\"http://www.w3.org/1999/xhtml\"><table class=\"hl7__ips\"><tr><td>Carole Cooke</td><td>female</td><td>07-Dec-2005</td></tr></table></div>"
        },
        "gender": "female",
        "birthDate": "2005-12-07"
      }
    },
    {
      "fullUrl": "urn:uuid:8dede4d7-8045-41fd-bde4-471859fffd3f",
      "resource": {
        "resourceType": "ServiceRequest",
        "id": "8dede4d7-8045-41fd-bde4-471859fffd3f",
        "meta": {
          "profile": [
            "http://hl7.eu/fhir/laboratory/StructureDefinition/ServiceRequest-eu-lab"
          ]
        },
        "identifier": [
          {
            "system": "http://example.org",
            "value": "f4551e90-308f-42ed-b3f3-ae35a9beb104"
          }
        ],
        "specimen": [
          {
            "reference": "urn:uuid:428f2f5f-8cff-4424-9fbb-a4a4f12de927"
          }
        ],
        "reasonCode": [
          {
            "coding": [
              {
                "code": "40055000",
                "system": "http://snomed.info/sct",
                "display": "Chronic sinusitis"
              }
            ]
          }
        ],
        "status": "active",
        "intent": "order",
        "code": {
          "coding": [
            {
              "code": "108252007",
              "system": "http://snomed.info/sct",
              "display": "Laboratory procedure"
            }
          ]
        },
        "subject": {
          "reference": "urn:uuid:35ec41c0-f220-4bf8-b57e-7b5478a20999",
          "display": "Carole Cooke"
        },
        "requester": {
          "reference": "urn:uuid:a4b3c594-01c5-41ea-8562-193341f8a49f"
        }
      }
    },
    {
      "fullUrl": "urn:uuid:a4b3c594-01c5-41ea-8562-193341f8a49f",
      "resource": {
        "resourceType": "PractitionerRole",
        "id": "a4b3c594-01c5-41ea-8562-193341f8a49f",
        "meta": {
          "profile": [
            "http://hl7.eu/fhir/base/StructureDefinition/practitionerRole-eu"
          ]
        },
        "text": {
          "status": "generated",
          "div": "<div xmlns=\"http://www.w3.org/1999/xhtml\">Provider Role Id: a4b3c594-01c5-41ea-8562-193341f8a49f</div>"
        },
        "organization": {
          "reference": "urn:uuid:505c8580-748a-492e-ad06-49109d3643aa"
        }
      }
    },
    {
      "fullUrl": "urn:uuid:505c8580-748a-492e-ad06-49109d3643aa",
      "resource": {
        "resourceType": "Organization",
        "id": "505c8580-748a-492e-ad06-49109d3643aa",
        "meta": {
          "profile": [
            "http://hl7.eu/fhir/base/StructureDefinition/organization-eu"
          ]
        },
        "identifier": [
          {
            "assigner": {
              "display": "HL7 Europe"
            },
            "system": "urn:oid:2.16.840.1.113883.2.51.999",
            "value": "3669db99-6255-46a0-8925-30302417a04e"
          }
        ],
        "address": [
          {
            "city": "London",
            "postalCode": "SE1 7",
            "country": "United Kingdom"
          }
        ],
        "text": {
          "status": "generated",
          "div": "<div xmlns=\"http://www.w3.org/1999/xhtml\">Provider Organization: Evelina Children&#039;s Hospital</div>"
        },
        "name": "Evelina Children&#039;s Hospital"
      }
    },
    {
      "fullUrl": "urn:uuid:428f2f5f-8cff-4424-9fbb-a4a4f12de927",
      "resource": {
        "resourceType": "Specimen",
        "id": "428f2f5f-8cff-4424-9fbb-a4a4f12de927",
        "meta": {
          "profile": [
            "http://hl7.eu/fhir/laboratory/StructureDefinition/Specimen-eu-lab"
          ]
        },
        "collection": {
          "collectedDateTime": "2019-05-14"
        },
        "text": {
          "status": "generated",
          "div": "<div xmlns=\"http://www.w3.org/1999/xhtml\"><table class=\"hl7__eu__lab__report\"><tr><th>Specimen</th><th>Collection Date</th></tr><tr><td>Whole blood specimen (specimen)</td><td><span class=\"nb\">14-May-2019</span></td></tr></table></div>"
        },
        "type": {
          "coding": [
            {
              "code": "258580003",
              "system": "http://snomed.info/sct",
              "display": "Whole blood specimen (specimen)"
            }
          ]
        }
      }
    },
    {
      "fullUrl": "urn:uuid:428f2f5f-8cff-4424-9fbb-a4a4f12de927",
      "resource": {
        "resourceType": "Specimen",
        "id": "428f2f5f-8cff-4424-9fbb-a4a4f12de927",
        "meta": {
          "profile": [
            "http://hl7.eu/fhir/laboratory/StructureDefinition/Specimen-eu-lab"
          ]
        },
        "collection": {
          "collectedDateTime": "2019-05-14"
        },
        "text": {
          "status": "generated",
          "div": "<div xmlns=\"http://www.w3.org/1999/xhtml\"><table class=\"hl7__eu__lab__report\"><tr><th>Specimen</th><th>Collection Date</th></tr><tr><td>Whole blood specimen (specimen)</td><td><span class=\"nb\">14-May-2019</span></td></tr></table></div>"
        },
        "type": {
          "coding": [
            {
              "code": "258580003",
              "system": "http://snomed.info/sct",
              "display": "Whole blood specimen (specimen)"
            }
          ]
        }
      }
    },
    {
      "fullUrl": "urn:uuid:71deb665-dde5-4643-9e45-52edc5f6e56b",
      "resource": {
        "resourceType": "Observation",
        "id": "71deb665-dde5-4643-9e45-52edc5f6e56b",
        "meta": {
          "profile": [
            "http://hl7.eu/fhir/laboratory/StructureDefinition/Observation-resultslab-eu-lab"
          ]
        },
        "performer": [
          {
            "display": "The Central European Lab"
          }
        ],
        "category": [
          {
            "coding": [
              {
                "system": "http://terminology.hl7.org/CodeSystem/observation-category",
                "code": "laboratory"
              }
            ]
          }
        ],
        "code": {
          "coding": [
            {
              "code": "6690-2",
              "system": "http://loinc.org",
              "display": "Leukocytes [#/volume] in Blood by Automated count"
            }
          ],
          "text": "Leukocytes [#/volume] in Blood by Automated count"
        },
        "valueQuantity": {
          "system": "http://unitsofmeasure.org",
          "value": 10,
          "unit": "10*3/uL",
          "code": "10*3/uL"
        },
        "referenceRange": [
          {
            "low": {
              "value": 3.6,
              "code": "10*3/uL",
              "system": "http://unitsofmeasure.org"
            }
          },
          {
            "high": {
              "value": 10.5,
              "code": "10*3/uL",
              "system": "http://unitsofmeasure.org"
            }
          }
        ],
        "text": {
          "status": "generated",
          "div": "<div xmlns=\"http://www.w3.org/1999/xhtml\"><table class=\"hl7__eu__lab__report\"><tr><th>Test</th><th>14-May-2019</th><th>Reference&#xA0;Range</th><th>Unit</th></tr><tr><td>Leukocytes [#/volume] in Blood by Automated count</td><td>10.0</td><td>3.6 - 10.5</td><td></td><td>10*3/uL</td></tr></table></div>"
        },
        "status": "final",
        "subject": {
          "reference": "urn:uuid:35ec41c0-f220-4bf8-b57e-7b5478a20999",
          "display": "Carole Cooke"
        },
        "effectiveDateTime": "2019-05-14T04:55:51Z",
        "specimen": {
          "reference": "urn:uuid:428f2f5f-8cff-4424-9fbb-a4a4f12de927"
        }
      }
    },
    {
      "fullUrl": "urn:uuid:e1be4581-41ff-4653-9f85-3aab1751280f",
      "resource": {
        "resourceType": "Observation",
        "id": "e1be4581-41ff-4653-9f85-3aab1751280f",
        "meta": {
          "profile": [
            "http://hl7.eu/fhir/laboratory/StructureDefinition/Observation-resultslab-eu-lab"
          ]
        },
        "performer": [
          {
            "display": "The Central European Lab"
          }
        ],
        "category": [
          {
            "coding": [
              {
                "system": "http://terminology.hl7.org/CodeSystem/observation-category",
                "code": "laboratory"
              }
            ]
          }
        ],
        "code": {
          "coding": [
            {
              "code": "789-8",
              "system": "http://loinc.org",
              "display": "Erythrocytes [#/volume] in Blood by Automated count"
            }
          ],
          "text": "Erythrocytes [#/volume] in Blood by Automated count"
        },
        "valueQuantity": {
          "system": "http://unitsofmeasure.org",
          "value": 4.2,
          "unit": "10*6/uL",
          "code": "10*6/uL"
        },
        "referenceRange": [
          {
            "low": {
              "value": 4.5,
              "code": "10*6/uL",
              "system": "http://unitsofmeasure.org"
            }
          },
          {
            "high": {
              "value": 5.5,
              "code": "10*6/uL",
              "system": "http://unitsofmeasure.org"
            }
          }
        ],
        "interpretation": [
          {
            "coding": [
              {
                "code": "L",
                "system": "http://terminology.hl7.org/CodeSystem/v3-ObservationInterpretation",
                "display": "Low"
              }
            ]
          }
        ],
        "text": {
          "status": "generated",
          "div": "<div xmlns=\"http://www.w3.org/1999/xhtml\"><table class=\"hl7__eu__lab__report\"><tr><th>Test</th><th>14-May-2019</th><th>Reference&#xA0;Range</th><th>Unit</th></tr><tr><td>Erythrocytes [#/volume] in Blood by Automated count</td><td>4.2</td><td>4.5 - 5.5</td><td>L</td><td>10*6/uL</td></tr></table></div>"
        },
        "status": "final",
        "subject": {
          "reference": "urn:uuid:35ec41c0-f220-4bf8-b57e-7b5478a20999",
          "display": "Carole Cooke"
        },
        "effectiveDateTime": "2019-05-14T04:55:51Z",
        "specimen": {
          "reference": "urn:uuid:428f2f5f-8cff-4424-9fbb-a4a4f12de927"
        }
      }
    },
    {
      "fullUrl": "urn:uuid:5141c97f-a4e3-420e-9a18-721f57d22bc7",
      "resource": {
        "resourceType": "Observation",
        "id": "5141c97f-a4e3-420e-9a18-721f57d22bc7",
        "meta": {
          "profile": [
            "http://hl7.eu/fhir/laboratory/StructureDefinition/Observation-resultslab-eu-lab"
          ]
        },
        "performer": [
          {
            "display": "The Central European Lab"
          }
        ],
        "category": [
          {
            "coding": [
              {
                "system": "http://terminology.hl7.org/CodeSystem/observation-category",
                "code": "laboratory"
              }
            ]
          }
        ],
        "code": {
          "coding": [
            {
              "code": "718-7",
              "system": "http://loinc.org",
              "display": "Hemoglobin [Mass/volume] in Blood"
            }
          ],
          "text": "Hemoglobin [Mass/volume] in Blood"
        },
        "valueQuantity": {
          "system": "http://unitsofmeasure.org",
          "value": 14.9,
          "unit": "g/dL",
          "code": "g/dL"
        },
        "referenceRange": [
          {
            "low": {
              "value": 12,
              "code": "g/dL",
              "system": "http://unitsofmeasure.org"
            }
          },
          {
            "high": {
              "value": 16,
              "code": "g/dL",
              "system": "http://unitsofmeasure.org"
            }
          }
        ],
        "text": {
          "status": "generated",
          "div": "<div xmlns=\"http://www.w3.org/1999/xhtml\"><table class=\"hl7__eu__lab__report\"><tr><th>Test</th><th>14-May-2019</th><th>Reference&#xA0;Range</th><th>Unit</th></tr><tr><td>Hemoglobin [Mass/volume] in Blood</td><td>14.9</td><td>12 - 16</td><td></td><td>g/dL</td></tr></table></div>"
        },
        "status": "final",
        "subject": {
          "reference": "urn:uuid:35ec41c0-f220-4bf8-b57e-7b5478a20999",
          "display": "Carole Cooke"
        },
        "effectiveDateTime": "2019-05-14T04:55:51Z",
        "specimen": {
          "reference": "urn:uuid:428f2f5f-8cff-4424-9fbb-a4a4f12de927"
        }
      }
    },
    {
      "fullUrl": "urn:uuid:1cceeea3-a329-42bd-b623-a2cda380e62f",
      "resource": {
        "resourceType": "Observation",
        "id": "1cceeea3-a329-42bd-b623-a2cda380e62f",
        "meta": {
          "profile": [
            "http://hl7.eu/fhir/laboratory/StructureDefinition/Observation-resultslab-eu-lab"
          ]
        },
        "performer": [
          {
            "display": "The Central European Lab"
          }
        ],
        "category": [
          {
            "coding": [
              {
                "system": "http://terminology.hl7.org/CodeSystem/observation-category",
                "code": "laboratory"
              }
            ]
          }
        ],
        "code": {
          "coding": [
            {
              "code": "4544-3",
              "system": "http://loinc.org",
              "display": "Hematocrit [Volume Fraction] of Blood by Automated count"
            }
          ],
          "text": "Hematocrit [Volume Fraction] of Blood by Automated count"
        },
        "valueQuantity": {
          "system": "http://unitsofmeasure.org",
          "value": 46.4,
          "unit": "%",
          "code": "%"
        },
        "referenceRange": [
          {
            "low": {
              "value": 36,
              "code": "%",
              "system": "http://unitsofmeasure.org"
            }
          },
          {
            "high": {
              "value": 48,
              "code": "%",
              "system": "http://unitsofmeasure.org"
            }
          }
        ],
        "text": {
          "status": "generated",
          "div": "<div xmlns=\"http://www.w3.org/1999/xhtml\"><table class=\"hl7__eu__lab__report\"><tr><th>Test</th><th>14-May-2019</th><th>Reference&#xA0;Range</th><th>Unit</th></tr><tr><td>Hematocrit [Volume Fraction] of Blood by Automated count</td><td>46.4</td><td>36 - 48</td><td></td><td>%</td></tr></table></div>"
        },
        "status": "final",
        "subject": {
          "reference": "urn:uuid:35ec41c0-f220-4bf8-b57e-7b5478a20999",
          "display": "Carole Cooke"
        },
        "effectiveDateTime": "2019-05-14T04:55:51Z",
        "specimen": {
          "reference": "urn:uuid:428f2f5f-8cff-4424-9fbb-a4a4f12de927"
        }
      }
    },
    {
      "fullUrl": "urn:uuid:578d1b19-7ef2-4aad-b6e5-02ba6e809fcb",
      "resource": {
        "resourceType": "Observation",
        "id": "578d1b19-7ef2-4aad-b6e5-02ba6e809fcb",
        "meta": {
          "profile": [
            "http://hl7.eu/fhir/laboratory/StructureDefinition/Observation-resultslab-eu-lab"
          ]
        },
        "performer": [
          {
            "display": "The Central European Lab"
          }
        ],
        "category": [
          {
            "coding": [
              {
                "system": "http://terminology.hl7.org/CodeSystem/observation-category",
                "code": "laboratory"
              }
            ]
          }
        ],
        "code": {
          "coding": [
            {
              "code": "787-2",
              "system": "http://loinc.org",
              "display": "MCV [Entitic volume] by Automated count"
            }
          ],
          "text": "MCV [Entitic volume] by Automated count"
        },
        "valueQuantity": {
          "system": "http://unitsofmeasure.org",
          "value": 86.9,
          "unit": "fL",
          "code": "fL"
        },
        "referenceRange": [
          {
            "low": {
              "value": 78,
              "code": "fL",
              "system": "http://unitsofmeasure.org"
            }
          },
          {
            "high": {
              "value": 98,
              "code": "fL",
              "system": "http://unitsofmeasure.org"
            }
          }
        ],
        "text": {
          "status": "generated",
          "div": "<div xmlns=\"http://www.w3.org/1999/xhtml\"><table class=\"hl7__eu__lab__report\"><tr><th>Test</th><th>14-May-2019</th><th>Reference&#xA0;Range</th><th>Unit</th></tr><tr><td>MCV [Entitic volume] by Automated count</td><td>86.9</td><td>78 - 98</td><td></td><td>fL</td></tr></table></div>"
        },
        "status": "final",
        "subject": {
          "reference": "urn:uuid:35ec41c0-f220-4bf8-b57e-7b5478a20999",
          "display": "Carole Cooke"
        },
        "effectiveDateTime": "2019-05-14T04:55:51Z",
        "specimen": {
          "reference": "urn:uuid:428f2f5f-8cff-4424-9fbb-a4a4f12de927"
        }
      }
    },
    {
      "fullUrl": "urn:uuid:82308505-42a6-492d-9bb1-2254fb6b7b59",
      "resource": {
        "resourceType": "Observation",
        "id": "82308505-42a6-492d-9bb1-2254fb6b7b59",
        "meta": {
          "profile": [
            "http://hl7.eu/fhir/laboratory/StructureDefinition/Observation-resultslab-eu-lab"
          ]
        },
        "performer": [
          {
            "display": "The Central European Lab"
          }
        ],
        "category": [
          {
            "coding": [
              {
                "system": "http://terminology.hl7.org/CodeSystem/observation-category",
                "code": "laboratory"
              }
            ]
          }
        ],
        "code": {
          "coding": [
            {
              "code": "785-6",
              "system": "http://loinc.org",
              "display": "MCH [Entitic mass] by Automated count"
            }
          ],
          "text": "MCH [Entitic mass] by Automated count"
        },
        "valueQuantity": {
          "system": "http://unitsofmeasure.org",
          "value": 30.4,
          "unit": "pg",
          "code": "pg"
        },
        "referenceRange": [
          {
            "low": {
              "value": 27,
              "code": "pg",
              "system": "http://unitsofmeasure.org"
            }
          },
          {
            "high": {
              "value": 33,
              "code": "pg",
              "system": "http://unitsofmeasure.org"
            }
          }
        ],
        "text": {
          "status": "generated",
          "div": "<div xmlns=\"http://www.w3.org/1999/xhtml\"><table class=\"hl7__eu__lab__report\"><tr><th>Test</th><th>14-May-2019</th><th>Reference&#xA0;Range</th><th>Unit</th></tr><tr><td>MCH [Entitic mass] by Automated count</td><td>30.4</td><td>27 - 33</td><td></td><td>pg</td></tr></table></div>"
        },
        "status": "final",
        "subject": {
          "reference": "urn:uuid:35ec41c0-f220-4bf8-b57e-7b5478a20999",
          "display": "Carole Cooke"
        },
        "effectiveDateTime": "2019-05-14T04:55:51Z",
        "specimen": {
          "reference": "urn:uuid:428f2f5f-8cff-4424-9fbb-a4a4f12de927"
        }
      }
    },
    {
      "fullUrl": "urn:uuid:44cb3669-c9e3-4a6a-93e5-d062e95f2d6e",
      "resource": {
        "resourceType": "Observation",
        "id": "44cb3669-c9e3-4a6a-93e5-d062e95f2d6e",
        "meta": {
          "profile": [
            "http://hl7.eu/fhir/laboratory/StructureDefinition/Observation-resultslab-eu-lab"
          ]
        },
        "performer": [
          {
            "display": "The Central European Lab"
          }
        ],
        "category": [
          {
            "coding": [
              {
                "system": "http://terminology.hl7.org/CodeSystem/observation-category",
                "code": "laboratory"
              }
            ]
          }
        ],
        "code": {
          "coding": [
            {
              "code": "786-4",
              "system": "http://loinc.org",
              "display": "MCHC [Mass/volume] by Automated count"
            }
          ],
          "text": "MCHC [Mass/volume] by Automated count"
        },
        "valueQuantity": {
          "system": "http://unitsofmeasure.org",
          "value": 35.1,
          "unit": "g/dL",
          "code": "g/dL"
        },
        "referenceRange": [
          {
            "low": {
              "value": 31.5,
              "code": "g/dL",
              "system": "http://unitsofmeasure.org"
            }
          },
          {
            "high": {
              "value": 35,
              "code": "g/dL",
              "system": "http://unitsofmeasure.org"
            }
          }
        ],
        "interpretation": [
          {
            "coding": [
              {
                "code": "H",
                "system": "http://terminology.hl7.org/CodeSystem/v3-ObservationInterpretation",
                "display": "High"
              }
            ]
          }
        ],
        "text": {
          "status": "generated",
          "div": "<div xmlns=\"http://www.w3.org/1999/xhtml\"><table class=\"hl7__eu__lab__report\"><tr><th>Test</th><th>14-May-2019</th><th>Reference&#xA0;Range</th><th>Unit</th></tr><tr><td>MCHC [Mass/volume] by Automated count</td><td>35.1</td><td>31.5 - 35</td><td>H</td><td>g/dL</td></tr></table></div>"
        },
        "status": "final",
        "subject": {
          "reference": "urn:uuid:35ec41c0-f220-4bf8-b57e-7b5478a20999",
          "display": "Carole Cooke"
        },
        "effectiveDateTime": "2019-05-14T04:55:51Z",
        "specimen": {
          "reference": "urn:uuid:428f2f5f-8cff-4424-9fbb-a4a4f12de927"
        }
      }
    },
    {
      "fullUrl": "urn:uuid:23d102fc-d4e6-436f-906b-6a4651ec1504",
      "resource": {
        "resourceType": "Observation",
        "id": "23d102fc-d4e6-436f-906b-6a4651ec1504",
        "meta": {
          "profile": [
            "http://hl7.eu/fhir/laboratory/StructureDefinition/Observation-resultslab-eu-lab"
          ]
        },
        "performer": [
          {
            "display": "The Central European Lab"
          }
        ],
        "category": [
          {
            "coding": [
              {
                "system": "http://terminology.hl7.org/CodeSystem/observation-category",
                "code": "laboratory"
              }
            ]
          }
        ],
        "code": {
          "coding": [
            {
              "code": "21000-5",
              "system": "http://loinc.org",
              "display": "Erythrocyte distribution width [Entitic volume] by Automated count"
            }
          ],
          "text": "Erythrocyte distribution width [Entitic volume] by Automated count"
        },
        "valueQuantity": {
          "system": "http://unitsofmeasure.org",
          "value": 39.6,
          "unit": "fL",
          "code": "fL"
        },
        "referenceRange": [
          {
            "low": {
              "value": 36,
              "code": "fL",
              "system": "http://unitsofmeasure.org"
            }
          },
          {
            "high": {
              "value": 55,
              "code": "fL",
              "system": "http://unitsofmeasure.org"
            }
          }
        ],
        "text": {
          "status": "generated",
          "div": "<div xmlns=\"http://www.w3.org/1999/xhtml\"><table class=\"hl7__eu__lab__report\"><tr><th>Test</th><th>14-May-2019</th><th>Reference&#xA0;Range</th><th>Unit</th></tr><tr><td>Erythrocyte distribution width [Entitic volume] by Automated count</td><td>39.6</td><td>36 - 55</td><td></td><td>fL</td></tr></table></div>"
        },
        "status": "final",
        "subject": {
          "reference": "urn:uuid:35ec41c0-f220-4bf8-b57e-7b5478a20999",
          "display": "Carole Cooke"
        },
        "effectiveDateTime": "2019-05-14T04:55:51Z",
        "specimen": {
          "reference": "urn:uuid:428f2f5f-8cff-4424-9fbb-a4a4f12de927"
        }
      }
    },
    {
      "fullUrl": "urn:uuid:89b07f62-4a44-40d3-bf5d-bfd5bba44912",
      "resource": {
        "resourceType": "Observation",
        "id": "89b07f62-4a44-40d3-bf5d-bfd5bba44912",
        "meta": {
          "profile": [
            "http://hl7.eu/fhir/laboratory/StructureDefinition/Observation-resultslab-eu-lab"
          ]
        },
        "performer": [
          {
            "display": "The Central European Lab"
          }
        ],
        "category": [
          {
            "coding": [
              {
                "system": "http://terminology.hl7.org/CodeSystem/observation-category",
                "code": "laboratory"
              }
            ]
          }
        ],
        "code": {
          "coding": [
            {
              "code": "777-3",
              "system": "http://loinc.org",
              "display": "Platelets [#/volume] in Blood by Automated count"
            }
          ],
          "text": "Platelets [#/volume] in Blood by Automated count"
        },
        "valueQuantity": {
          "system": "http://unitsofmeasure.org",
          "value": 294.4,
          "unit": "10*3/uL",
          "code": "10*3/uL"
        },
        "referenceRange": [
          {
            "low": {
              "value": 150,
              "code": "10*3/uL",
              "system": "http://unitsofmeasure.org"
            }
          },
          {
            "high": {
              "value": 450,
              "code": "10*3/uL",
              "system": "http://unitsofmeasure.org"
            }
          }
        ],
        "text": {
          "status": "generated",
          "div": "<div xmlns=\"http://www.w3.org/1999/xhtml\"><table class=\"hl7__eu__lab__report\"><tr><th>Test</th><th>14-May-2019</th><th>Reference&#xA0;Range</th><th>Unit</th></tr><tr><td>Platelets [#/volume] in Blood by Automated count</td><td>294.4</td><td>150 - 450</td><td></td><td>10*3/uL</td></tr></table></div>"
        },
        "status": "final",
        "subject": {
          "reference": "urn:uuid:35ec41c0-f220-4bf8-b57e-7b5478a20999",
          "display": "Carole Cooke"
        },
        "effectiveDateTime": "2019-05-14T04:55:51Z",
        "specimen": {
          "reference": "urn:uuid:428f2f5f-8cff-4424-9fbb-a4a4f12de927"
        }
      }
    },
    {
      "fullUrl": "urn:uuid:06e51c8a-cd49-45fd-8f39-9917cf7eb996",
      "resource": {
        "resourceType": "Observation",
        "id": "06e51c8a-cd49-45fd-8f39-9917cf7eb996",
        "meta": {
          "profile": [
            "http://hl7.eu/fhir/laboratory/StructureDefinition/Observation-resultslab-eu-lab"
          ]
        },
        "performer": [
          {
            "display": "The Central European Lab"
          }
        ],
        "category": [
          {
            "coding": [
              {
                "system": "http://terminology.hl7.org/CodeSystem/observation-category",
                "code": "laboratory"
              }
            ]
          }
        ],
        "code": {
          "coding": [
            {
              "code": "32207-3",
              "system": "http://loinc.org",
              "display": "Platelet distribution width [Entitic volume] in Blood by Automated count"
            }
          ],
          "text": "Platelet distribution width [Entitic volume] in Blood by Automated count"
        },
        "valueQuantity": {
          "system": "http://unitsofmeasure.org",
          "value": 374.8,
          "unit": "fL",
          "code": "fL"
        },
        "referenceRange": [
          {
            "low": {
              "value": 13.4,
              "code": "fL",
              "system": "http://unitsofmeasure.org"
            }
          },
          {
            "high": {
              "value": 17.4,
              "code": "fL",
              "system": "http://unitsofmeasure.org"
            }
          }
        ],
        "interpretation": [
          {
            "coding": [
              {
                "code": "H",
                "system": "http://terminology.hl7.org/CodeSystem/v3-ObservationInterpretation",
                "display": "High"
              }
            ]
          }
        ],
        "text": {
          "status": "generated",
          "div": "<div xmlns=\"http://www.w3.org/1999/xhtml\"><table class=\"hl7__eu__lab__report\"><tr><th>Test</th><th>14-May-2019</th><th>Reference&#xA0;Range</th><th>Unit</th></tr><tr><td>Platelet distribution width [Entitic volume] in Blood by Automated count</td><td>374.8</td><td>13.4 - 17.4</td><td>H</td><td>fL</td></tr></table></div>"
        },
        "status": "final",
        "subject": {
          "reference": "urn:uuid:35ec41c0-f220-4bf8-b57e-7b5478a20999",
          "display": "Carole Cooke"
        },
        "effectiveDateTime": "2019-05-14T04:55:51Z",
        "specimen": {
          "reference": "urn:uuid:428f2f5f-8cff-4424-9fbb-a4a4f12de927"
        }
      }
    },
    {
      "fullUrl": "urn:uuid:550dd581-7616-4550-9543-6990dcea3f8c",
      "resource": {
        "resourceType": "Observation",
        "id": "550dd581-7616-4550-9543-6990dcea3f8c",
        "meta": {
          "profile": [
            "http://hl7.eu/fhir/laboratory/StructureDefinition/Observation-resultslab-eu-lab"
          ]
        },
        "performer": [
          {
            "display": "The Central European Lab"
          }
        ],
        "category": [
          {
            "coding": [
              {
                "system": "http://terminology.hl7.org/CodeSystem/observation-category",
                "code": "laboratory"
              }
            ]
          }
        ],
        "code": {
          "coding": [
            {
              "code": "32623-1",
              "system": "http://loinc.org",
              "display": "Platelet mean volume [Entitic volume] in Blood by Automated count"
            }
          ],
          "text": "Platelet mean volume [Entitic volume] in Blood by Automated count"
        },
        "valueQuantity": {
          "system": "http://unitsofmeasure.org",
          "value": 11.9,
          "unit": "fL",
          "code": "fL"
        },
        "referenceRange": [
          {
            "low": {
              "value": 9.7,
              "code": "fL",
              "system": "http://unitsofmeasure.org"
            }
          },
          {
            "high": {
              "value": 12,
              "code": "fL",
              "system": "http://unitsofmeasure.org"
            }
          }
        ],
        "text": {
          "status": "generated",
          "div": "<div xmlns=\"http://www.w3.org/1999/xhtml\"><table class=\"hl7__eu__lab__report\"><tr><th>Test</th><th>14-May-2019</th><th>Reference&#xA0;Range</th><th>Unit</th></tr><tr><td>Platelet mean volume [Entitic volume] in Blood by Automated count</td><td>11.9</td><td>9.7 - 12</td><td></td><td>fL</td></tr></table></div>"
        },
        "status": "final",
        "subject": {
          "reference": "urn:uuid:35ec41c0-f220-4bf8-b57e-7b5478a20999",
          "display": "Carole Cooke"
        },
        "effectiveDateTime": "2019-05-14T04:55:51Z",
        "specimen": {
          "reference": "urn:uuid:428f2f5f-8cff-4424-9fbb-a4a4f12de927"
        }
      }
    },
    {
      "fullUrl": "urn:uuid:2fb9de00-4fc8-448e-84f7-4f1f31098c75",
      "resource": {
        "resourceType": "Device",
        "id": "2fb9de00-4fc8-448e-84f7-4f1f31098c75",
        "deviceName": [
          {
            "name": "SYNDERAI Synthetic Generator",
            "type": "manufacturer-name"
          }
        ],
        "version": [
          {
            "value": "5.0"
          }
        ],
        "text": {
          "status": "generated",
          "div": "<div xmlns=\"http://www.w3.org/1999/xhtml\">SYNDERAI Synthetic Generator v5.0</div>"
        },
        "status": "active\"",
        "distinctIdentifier": "synderai-generator-50",
        "manufacturer": "SYNDERAI Project"
      }
    },
    {
      "fullUrl": "urn:uuid:f8f7f96a-6a15-4feb-b8ad-02dc58a9087f",
      "resource": {
        "resourceType": "Provenance",
        "id": "f8f7f96a-6a15-4feb-b8ad-02dc58a9087f",
        "target": [
          {
            "reference": "Patient/35ec41c0-f220-4bf8-b57e-7b5478a20999"
          },
          {
            "reference": "Bundle/1b692b1f-b5d7-4714-9d13-97f6b65005a3"
          },
          {
            "reference": "Composition/7311f8dd-4c95-4b93-81f3-9cad30f56344"
          },
          {
            "reference": "PractitionerRole/faea977b-088d-4b4b-acce-c836d0eaf972"
          },
          {
            "reference": "Practitioner/ec664561-e6ab-4bdf-ada4-06460b296c91"
          },
          {
            "reference": "PractitionerRole/a4b3c594-01c5-41ea-8562-193341f8a49f"
          },
          {
            "reference": "Organization/505c8580-748a-492e-ad06-49109d3643aa"
          }
        ],
        "activity": {
          "text": "Synthetic Example Data Generation"
        },
        "policy": [
          "https://synderai.net/synderai-synthetic-data-policy"
        ],
        "agent": [
          {
            "type": {
              "text": "author"
            },
            "who": {
              "reference": "Device/2fb9de00-4fc8-448e-84f7-4f1f31098c75"
            }
          }
        ],
        "reason": [
          {
            "text": "Interoperability Testing and Training (non-clinical use)"
          }
        ],
        "text": {
          "status": "generated",
          "div": "<div xmlns=\"http://www.w3.org/1999/xhtml\">Provenance for SYNDERAI Synthetic Example Data Resource</div>"
        },
        "recorded": "2019-05-14T06:55:51Z"
      }
    },
    {
      "fullUrl": "urn:uuid:faea977b-088d-4b4b-acce-c836d0eaf972",
      "resource": {
        "resourceType": "PractitionerRole",
        "id": "faea977b-088d-4b4b-acce-c836d0eaf972",
        "meta": {
          "profile": [
            "http://hl7.eu/fhir/base/StructureDefinition/practitionerRole-eu"
          ]
        },
        "text": {
          "status": "generated",
          "div": "<div xmlns=\"http://www.w3.org/1999/xhtml\">Laboratory Role Id: faea977b-088d-4b4b-acce-c836d0eaf972</div>"
        },
        "practitioner": {
          "reference": "urn:uuid:ec664561-e6ab-4bdf-ada4-06460b296c91"
        }
      }
    },
    {
      "fullUrl": "urn:uuid:ec664561-e6ab-4bdf-ada4-06460b296c91",
      "resource": {
        "resourceType": "Practitioner",
        "id": "ec664561-e6ab-4bdf-ada4-06460b296c91",
        "meta": {
          "profile": [
            "http://hl7.eu/fhir/base/StructureDefinition/practitioner-eu"
          ]
        },
        "identifier": [
          {
            "assigner": {
              "display": "HL7 Europe"
            },
            "system": "urn:oid:2.16.840.1.113883.2.51.999",
            "value": "e80f35df-2d01-44a5-aec4-a444c3b5c4d8"
          }
        ],
        "name": [
          {
            "prefix": [
              "dr"
            ],
            "given": [
              "Ex"
            ],
            "family": "Ample"
          }
        ],
        "address": [
          {
            "line": [
              "Laboratoire Central Européenne",
              "Boulevard du Jardin Botanique 32"
            ],
            "postalCode": "1000",
            "city": "Brussels",
            "country": "Belgium"
          }
        ],
        "text": {
          "status": "generated",
          "div": "<div xmlns=\"http://www.w3.org/1999/xhtml\">Laboratory: Laboratoire Central Européenne, 1000 Brussels, Belgium</div>"
        }
      }
    }
  ],
  "type": "document",
  "timestamp": "2019-05-14T06:55:51Z"
}
