{
  "resourceType": "Bundle",
  "id": "9f0a7301-6a80-4eff-84c7-a140667be0cf",
  "meta": {
    "profile": [
      "http://hl7.eu/fhir/laboratory/StructureDefinition/Bundle-eu-lab"
    ]
  },
  "identifier": {
    "assigner": {
      "display": "HL7 Europe"
    },
    "system": "urn:oid:2.16.840.1.113883.2.51.999",
    "value": "11ddc406-56fa-402a-b06d-6ba026bca101"
  },
  "entry": [
    {
      "fullUrl": "urn:uuid:0486ffbc-e697-4ce3-9eed-99190d2387c1",
      "resource": {
        "resourceType": "Composition",
        "id": "0486ffbc-e697-4ce3-9eed-99190d2387c1",
        "meta": {
          "profile": [
            "http://hl7.eu/fhir/laboratory/StructureDefinition/Composition-eu-lab"
          ]
        },
        "identifier": {
          "assigner": {
            "display": "HL7 Europe"
          },
          "system": "urn:oid:2.16.840.1.113883.2.51.999",
          "value": "6a0d068b-6610-46b5-9a34-5adc0c539a2e"
        },
        "author": [
          {
            "reference": "urn:uuid:d1fb721f-e8de-4e64-a084-0bce57e68ee8"
          }
        ],
        "category": [
          {
            "coding": [
              {
                "code": "26436-6",
                "system": "http://loinc.org",
                "display": "Laboratory studies (set)"
              }
            ]
          }
        ],
        "type": {
          "coding": [
            {
              "code": "11502-2",
              "system": "http://loinc.org",
              "display": "Laboratory report"
            }
          ],
          "text": "Laboratory Report"
        },
        "section": [
          {
            "code": {
              "coding": [
                {
                  "code": "26436-6",
                  "system": "http://loinc.org",
                  "display": "Laboratory studies (set)"
                }
              ],
              "text": "Laboratory studies"
            },
            "section": [
              {
                "code": {
                  "coding": [
                    {
                      "code": "$18719-5",
                      "system": "http://loinc.org",
                      "display": "Chemistry studies (set)"
                    }
                  ],
                  "text": "Chemistry"
                },
                "entry": [
                  {
                    "reference": "urn:uuid:f9cd9e82-923a-45e3-b894-cb7648396c8f"
                  },
                  {
                    "reference": "urn:uuid:1b9d8b2e-2a7a-4b97-8b10-322589e1fe2a"
                  },
                  {
                    "reference": "urn:uuid:4b9cc46d-6404-4b94-870f-126349dd056c"
                  },
                  {
                    "reference": "urn:uuid:8ced3203-e806-4e89-a91c-f9f4f03d120d"
                  },
                  {
                    "reference": "urn:uuid:613cbaeb-6e0e-48cc-9351-701e7671e4a5"
                  },
                  {
                    "reference": "urn:uuid:c734eebd-7579-4d7a-a804-2fd5321da333"
                  },
                  {
                    "reference": "urn:uuid:dffa8473-c61b-4708-8861-0d1c77c82486"
                  },
                  {
                    "reference": "urn:uuid:d4df77b1-985b-49ed-9df1-330a7d67c873"
                  },
                  {
                    "reference": "urn:uuid:06fb836b-568f-4c64-b5e6-7feb41a6d3e3"
                  },
                  {
                    "reference": "urn:uuid:e3a121b3-32e0-4985-964d-25f283fb75a7"
                  },
                  {
                    "reference": "urn:uuid:8d4e1351-cddb-42da-8776-3c4ad1ed6628"
                  },
                  {
                    "reference": "urn:uuid:ff059974-24dd-465a-b691-156146d20c6f"
                  },
                  {
                    "reference": "urn:uuid:c5b323ab-49d1-4c1d-9f04-e0601159dfb9"
                  },
                  {
                    "reference": "urn:uuid:c4e8acda-744b-4477-9090-5666450fa32e"
                  },
                  {
                    "reference": "urn:uuid:2ce4281f-3948-44f5-84fc-1973dd8b7431"
                  },
                  {
                    "reference": "urn:uuid:fc2ccf0c-785d-4ffc-8dda-e47714244490"
                  }
                ],
                "text": {
                  "status": "generated",
                  "div": "<div xmlns=\"http://www.w3.org/1999/xhtml\"><h3>Chemistry</h3><table class=\"hl7__eu__lab__report\"><thead><tr><th>Test</th><th>21-MAY-2016</th><th>Reference&#xA0;Range</th><th>Unit</th></tr></thead><tbody><tr><td>Glucose [Mass/volume] in Blood</td><td><strong>66.6 L</strong></td><td>70 - 140</td><td>mg/dL</td></tr><tr><td>Urea nitrogen [Mass/volume] in Blood</td><td>11.5</td><td>7 - 30</td><td>mg/dL</td></tr><tr><td>Creatinine [Mass/volume] in Blood</td><td><strong>3.1 H</strong></td><td>0.5 - 1.3</td><td>mg/dL</td></tr><tr><td>Calcium [Mass/volume] in Blood</td><td>9.3</td><td>8.6 - 10.2</td><td>mg/dL</td></tr><tr><td>Sodium [Moles/volume] in Blood</td><td>136.2</td><td>135 - 145</td><td>mmol/L</td></tr><tr><td>Potassium [Moles/volume] in Blood</td><td>4.6</td><td>3.5 - 5.1</td><td>mmol/L</td></tr><tr><td>Chloride [Moles/volume] in Blood</td><td>109.6</td><td>98 - 114</td><td>mmol/L</td></tr><tr><td>Carbon dioxide, total [Moles/volume] in Blood</td><td><strong>20.1 L</strong></td><td>22 - 32</td><td>mmol/L</td></tr><tr><td>Protein [Mass/volume] in Serum or Plasma</td><td>7.0</td><td>6 - 8.3</td><td>g/dL</td></tr><tr><td>Albumin [Mass/volume] in Serum or Plasma</td><td>4.0</td><td>3.5 - 5.5</td><td>g/dL</td></tr><tr><td>Globulin [Mass/volume] in Serum by calculation</td><td>3.3</td><td>2 - 3.5</td><td>g/L</td></tr><tr><td>Bilirubin.total [Mass/volume] in Serum or Plasma</td><td>1.0</td><td>0.3 - 1.2</td><td>mg/dL</td></tr><tr><td>Alkaline phosphatase [Enzymatic activity/volume] in Serum or Plasma</td><td>131.6</td><td>44 - 142</td><td>U/L</td></tr><tr><td>Alanine aminotransferase [Enzymatic activity/volume] in Serum or Plasma</td><td>34.5</td><td>7 - 40</td><td>U/L</td></tr><tr><td>Aspartate aminotransferase [Enzymatic activity/volume] in Serum or Plasma</td><td>38.2</td><td>10 - 40</td><td>U/L</td></tr><tr><td>Ketones [Presence] in Urine by Test strip</td><td>Urine ketone test = +++</td><td></td><td></td></tr></tbody></table></div>"
                },
                "title": "Chemistry"
              },
              {
                "code": {
                  "coding": [
                    {
                      "code": "$18729-4",
                      "system": "http://loinc.org",
                      "display": "Urinalysis studies (set)"
                    }
                  ],
                  "text": "Urinalysis"
                },
                "entry": [
                  {
                    "reference": "urn:uuid:53dda89e-e3a5-44e9-bbcf-b94549c06569"
                  },
                  {
                    "reference": "urn:uuid:fd5e6611-617c-4de1-96c3-ab58caaf98f0"
                  },
                  {
                    "reference": "urn:uuid:1a8a26eb-812f-4b48-b8fd-e7188b3f4a5f"
                  },
                  {
                    "reference": "urn:uuid:284ec17d-bf0b-47f3-acf6-8f7ddb55c8f7"
                  },
                  {
                    "reference": "urn:uuid:f7b23fd1-db5e-4e3e-b542-db802ec17bec"
                  },
                  {
                    "reference": "urn:uuid:ac20fd35-18a6-4359-b072-7d0fcb4491d0"
                  },
                  {
                    "reference": "urn:uuid:f9b51544-6369-4e76-8355-2ca9b3c79b8d"
                  },
                  {
                    "reference": "urn:uuid:af290904-c9fc-49a1-85ec-e31a8c08a0b2"
                  },
                  {
                    "reference": "urn:uuid:1b6b15d1-95ec-4674-af5a-b718619e15ca"
                  },
                  {
                    "reference": "urn:uuid:d78ca023-0f03-4dc9-8ea6-b06f5c0eff7f"
                  },
                  {
                    "reference": "urn:uuid:df98a396-4529-4e9e-9499-08e7846e8609"
                  },
                  {
                    "reference": "urn:uuid:6cd589e0-2e83-43c5-a4b2-06a908fbb9d7"
                  }
                ],
                "text": {
                  "status": "generated",
                  "div": "<div xmlns=\"http://www.w3.org/1999/xhtml\"><h3>Urinalysis</h3><table class=\"hl7__eu__lab__report\"><thead><tr><th>Test</th><th>21-MAY-2016</th><th>Reference&#xA0;Range</th><th>Unit</th></tr></thead><tbody><tr><td>Glucose [Mass/volume] in Urine by Test strip</td><td><strong>0.6 L</strong></td><td>0.8 - 0</td><td>mg/dL</td></tr><tr><td>Glucose [Presence] in Urine by Test strip</td><td>++</td><td></td><td></td></tr><tr><td>Bilirubin.total [Mass/volume] in Urine by Test strip</td><td>0.6</td><td>0 - 1.5</td><td>mg/dL</td></tr><tr><td>Bilirubin.total [Presence] in Urine by Test strip</td><td>Finding of bilirubin in urine</td><td></td><td></td></tr><tr><td>Ketones [Mass/volume] in Urine by Test strip</td><td>3.0</td><td>0 - 8</td><td>mg/dL</td></tr><tr><td>Specific gravity of Urine by Test strip</td><td><strong>1.0 L</strong></td><td>1.01 - 1.03</td><td>{nominal}</td></tr><tr><td>pH of Urine by Test strip</td><td>6.2</td><td>4.6 - 7.5</td><td>pH</td></tr><tr><td>Protein [Mass/volume] in Urine by Test strip</td><td><strong>437.2 H</strong></td><td>0 - 14</td><td>mg/dL</td></tr><tr><td>Protein [Presence] in Urine by Test strip</td><td>Urine protein test = +++</td><td></td><td></td></tr><tr><td>Nitrite [Presence] in Urine by Test strip</td><td>Urine nitrite negative</td><td></td><td></td></tr><tr><td>Hemoglobin [Presence] in Urine by Test strip</td><td>Urine blood test = negative</td><td></td><td></td></tr><tr><td>Leukocyte esterase [Presence] in Urine by Test strip</td><td>Urine leukocyte test negative</td><td></td><td></td></tr></tbody></table></div>"
                },
                "title": "Urinalysis"
              },
              {
                "code": {
                  "coding": [
                    {
                      "code": "$LP7846-1",
                      "system": "http://loinc.org",
                      "display": "Specimen information"
                    }
                  ],
                  "text": "Specimen information"
                },
                "entry": [
                  {
                    "reference": "urn:uuid:04fba247-69be-4236-b816-d374d48be54b"
                  },
                  {
                    "reference": "urn:uuid:15f4bdbb-2238-4632-a9dc-18c2ec2b77da"
                  },
                  {
                    "reference": "urn:uuid:ea6a28a1-2d8b-47a8-bb55-9caf34435bb1"
                  },
                  {
                    "reference": "urn:uuid:115d4a32-34c1-4e73-beef-050bc7b2469d"
                  }
                ],
                "text": {
                  "status": "generated",
                  "div": "<div xmlns=\"http://www.w3.org/1999/xhtml\"><h3>Specimen information</h3><table class=\"hl7__eu__lab__report\"><thead><tr><th>Test</th><th>21-MAY-2016</th><th>Specimen</th><th></th></tr></thead><tbody><tr><td>Appearance of Urine</td><td>Cloudy urine</td><td>Urine</td><td></td></tr><tr><td>Odor of Urine</td><td>Urine smell ammoniacal</td><td>Urine</td><td></td></tr><tr><td>Clarity of Urine</td><td>Translucent</td><td>Urine</td><td></td></tr><tr><td>Color of Urine</td><td>Brown color</td><td>Urine</td><td></td></tr></tbody></table></div>"
                },
                "title": "Specimen information"
              }
            ],
            "title": "Laboratory Report"
          },
          {
            "text": {
              "status": "generated",
              "div": "<div xmlns=\"http://www.w3.org/1999/xhtml\"><h3>Annotation</h3><table class=\"hl7__eu__lab__report\"><tr><th>Conclusion and Recommendations based on this report and previous findings known to us</th></tr><tr><td>The patient shows significant renal impairment (elevated creatinine, marked proteinuria), mild hypoglycemia, and low total CO₂ suggesting possible metabolic acidosis. Urinalysis reveals proteinuria, glucosuria, ketonuria, low specific gravity, and abnormal urine appearance, consistent with nephrotic syndrome or diabetic nephropathy. No evidence of urinary tract infection. Recommend urgent nephrology evaluation and assessment for underlying metabolic or diabetic disorders.</td></tr></table></div>"
            },
            "code": {
              "coding": [
                {
                  "system": "http://loinc.org",
                  "code": "48767-8",
                  "display": "Annotation comment"
                }
              ]
            },
            "title": "Annotation comment"
          }
        ],
        "status": "final",
        "subject": {
          "reference": "urn:uuid:47568042-ced3-43bf-b4f3-9d6c009f327b",
          "display": "Maria Nohlmans"
        },
        "date": "2016-05-21T20:56:39Z",
        "title": "Laboratory Report",
        "confidentiality": "N"
      }
    },
    {
      "fullUrl": "urn:uuid:716815fb-ee6a-4439-8ace-6e01917879e2",
      "resource": {
        "resourceType": "DiagnosticReport",
        "id": "716815fb-ee6a-4439-8ace-6e01917879e2",
        "meta": {
          "profile": [
            "http://hl7.eu/fhir/laboratory/StructureDefinition/DiagnosticReport-eu-lab"
          ]
        },
        "identifier": [
          {
            "assigner": {
              "display": "HL7 Europe"
            },
            "system": "urn:oid:2.16.840.1.113883.2.51.999",
            "value": "0fb09ec0-88be-41b8-97e9-d0447c559430"
          }
        ],
        "extension": [
          {
            "url": "http://hl7.org/fhir/5.0/StructureDefinition/extension-DiagnosticReport.composition",
            "valueReference": {
              "reference": "urn:uuid:6a0d068b-6610-46b5-9a34-5adc0c539a2e"
            }
          }
        ],
        "category": [
          {
            "coding": [
              {
                "code": "26436-6",
                "system": "http://loinc.org",
                "display": "Laboratory studies (set)"
              }
            ]
          }
        ],
        "specimen": [
          {
            "reference": "urn:uuid:6d9aa3d6-ee45-45a0-9694-c849ae195211"
          },
          {
            "reference": "urn:uuid:b8e5cfa2-2ed7-4368-80bf-03831881254f"
          },
          {
            "reference": "urn:uuid:dd48da25-0158-4f95-b4c1-2c718652c900"
          },
          {
            "reference": "urn:uuid:d62b6cd2-3d54-427e-9c28-0edc7cdc5fa4"
          }
        ],
        "result": [
          {
            "reference": "urn:uuid:f9cd9e82-923a-45e3-b894-cb7648396c8f"
          },
          {
            "reference": "urn:uuid:1b9d8b2e-2a7a-4b97-8b10-322589e1fe2a"
          },
          {
            "reference": "urn:uuid:4b9cc46d-6404-4b94-870f-126349dd056c"
          },
          {
            "reference": "urn:uuid:8ced3203-e806-4e89-a91c-f9f4f03d120d"
          },
          {
            "reference": "urn:uuid:613cbaeb-6e0e-48cc-9351-701e7671e4a5"
          },
          {
            "reference": "urn:uuid:c734eebd-7579-4d7a-a804-2fd5321da333"
          },
          {
            "reference": "urn:uuid:dffa8473-c61b-4708-8861-0d1c77c82486"
          },
          {
            "reference": "urn:uuid:d4df77b1-985b-49ed-9df1-330a7d67c873"
          },
          {
            "reference": "urn:uuid:06fb836b-568f-4c64-b5e6-7feb41a6d3e3"
          },
          {
            "reference": "urn:uuid:e3a121b3-32e0-4985-964d-25f283fb75a7"
          },
          {
            "reference": "urn:uuid:8d4e1351-cddb-42da-8776-3c4ad1ed6628"
          },
          {
            "reference": "urn:uuid:ff059974-24dd-465a-b691-156146d20c6f"
          },
          {
            "reference": "urn:uuid:c5b323ab-49d1-4c1d-9f04-e0601159dfb9"
          },
          {
            "reference": "urn:uuid:c4e8acda-744b-4477-9090-5666450fa32e"
          },
          {
            "reference": "urn:uuid:2ce4281f-3948-44f5-84fc-1973dd8b7431"
          },
          {
            "reference": "urn:uuid:04fba247-69be-4236-b816-d374d48be54b"
          },
          {
            "reference": "urn:uuid:15f4bdbb-2238-4632-a9dc-18c2ec2b77da"
          },
          {
            "reference": "urn:uuid:ea6a28a1-2d8b-47a8-bb55-9caf34435bb1"
          },
          {
            "reference": "urn:uuid:115d4a32-34c1-4e73-beef-050bc7b2469d"
          },
          {
            "reference": "urn:uuid:53dda89e-e3a5-44e9-bbcf-b94549c06569"
          },
          {
            "reference": "urn:uuid:fd5e6611-617c-4de1-96c3-ab58caaf98f0"
          },
          {
            "reference": "urn:uuid:1a8a26eb-812f-4b48-b8fd-e7188b3f4a5f"
          },
          {
            "reference": "urn:uuid:284ec17d-bf0b-47f3-acf6-8f7ddb55c8f7"
          },
          {
            "reference": "urn:uuid:f7b23fd1-db5e-4e3e-b542-db802ec17bec"
          },
          {
            "reference": "urn:uuid:fc2ccf0c-785d-4ffc-8dda-e47714244490"
          },
          {
            "reference": "urn:uuid:ac20fd35-18a6-4359-b072-7d0fcb4491d0"
          },
          {
            "reference": "urn:uuid:f9b51544-6369-4e76-8355-2ca9b3c79b8d"
          },
          {
            "reference": "urn:uuid:af290904-c9fc-49a1-85ec-e31a8c08a0b2"
          },
          {
            "reference": "urn:uuid:1b6b15d1-95ec-4674-af5a-b718619e15ca"
          },
          {
            "reference": "urn:uuid:d78ca023-0f03-4dc9-8ea6-b06f5c0eff7f"
          },
          {
            "reference": "urn:uuid:df98a396-4529-4e9e-9499-08e7846e8609"
          },
          {
            "reference": "urn:uuid:6cd589e0-2e83-43c5-a4b2-06a908fbb9d7"
          }
        ],
        "status": "registered",
        "code": {
          "coding": [
            {
              "code": "11502-2",
              "system": "http://loinc.org",
              "display": "Laboratory report"
            }
          ]
        },
        "subject": {
          "reference": "urn:uuid:47568042-ced3-43bf-b4f3-9d6c009f327b",
          "display": "Maria Nohlmans"
        }
      }
    },
    {
      "fullUrl": "urn:uuid:47568042-ced3-43bf-b4f3-9d6c009f327b",
      "resource": {
        "resourceType": "Patient",
        "id": "47568042-ced3-43bf-b4f3-9d6c009f327b",
        "meta": {
          "security": [
            {
              "system": "http://terminology.hl7.org/CodeSystem/v3-ActReason",
              "code": "HTEST"
            },
            {
              "system": "http://terminology.hl7.org/CodeSystem/v3-ActReason",
              "code": "TRAIN"
            }
          ],
          "tag": [
            {
              "system": "https://synderai.net/fhir/CodeSystem/tags",
              "code": "synthetic",
              "display": "SYNDERAI Synthetic data"
            }
          ],
          "profile": [
            "http://hl7.eu/fhir/base/StructureDefinition/patient-eu-core"
          ]
        },
        "identifier": [
          {
            "type": {
              "coding": [
                {
                  "code": "PT",
                  "system": "http://terminology.hl7.org/CodeSystem/v2-0203"
                }
              ]
            },
            "system": "http://ec.europa.eu/identifier/eci",
            "value": "6886-506417-1"
          },
          {
            "type": {
              "coding": [
                {
                  "code": "MR",
                  "system": "http://terminology.hl7.org/CodeSystem/v2-0203"
                }
              ]
            },
            "system": "http://local.setting.eu/identifier",
            "value": "2cb21ed6-b617-b1f3-2290-589a710de5ee"
          }
        ],
        "name": [
          {
            "family": "Nohlmans"
          },
          {
            "given": [
              "Maria"
            ]
          },
          {
            "text": "Maria Nohlmans"
          }
        ],
        "address": [
          {
            "line": [
              "Alfons-Wulff-Weg 1"
            ],
            "use": "home",
            "type": "physical",
            "postalCode": "25813",
            "city": "Husum",
            "country": "Germany"
          }
        ],
        "telecom": [
          {
            "system": "phone",
            "value": "+49(0)1911 105501"
          }
        ],
        "extension": [
          {
            "url": "http://hl7.org/fhir/StructureDefinition/patient-nationality",
            "valueCodeableConcept": {
              "coding": [
                {
                  "code": "DE",
                  "system": "http://hl7.org/fhir/ValueSet/country"
                }
              ]
            }
          }
        ],
        "text": {
          "status": "generated",
          "div": "<div xmlns=\"http://www.w3.org/1999/xhtml\"><table class=\"hl7__ips\"><tr><td>Maria Nohlmans</td><td>female</td><td>11-Jun-1947</td></tr></table></div>"
        },
        "gender": "female",
        "birthDate": "1947-06-11"
      }
    },
    {
      "fullUrl": "urn:uuid:a974f586-6144-49c1-a929-71ea3c04012d",
      "resource": {
        "resourceType": "ServiceRequest",
        "id": "a974f586-6144-49c1-a929-71ea3c04012d",
        "meta": {
          "profile": [
            "http://hl7.eu/fhir/laboratory/StructureDefinition/ServiceRequest-eu-lab"
          ]
        },
        "identifier": [
          {
            "system": "http://example.org",
            "value": "580a1b93-d5ce-42d7-a082-6f1b6bd9dbe7"
          }
        ],
        "specimen": [
          {
            "reference": "urn:uuid:6d9aa3d6-ee45-45a0-9694-c849ae195211"
          },
          {
            "reference": "urn:uuid:b8e5cfa2-2ed7-4368-80bf-03831881254f"
          },
          {
            "reference": "urn:uuid:dd48da25-0158-4f95-b4c1-2c718652c900"
          },
          {
            "reference": "urn:uuid:d62b6cd2-3d54-427e-9c28-0edc7cdc5fa4"
          }
        ],
        "reasonCode": [
          {
            "coding": [
              {
                "code": "401314000",
                "system": "http://snomed.info/sct",
                "display": "Acute non-ST segment elevation myocardial infarction"
              }
            ]
          },
          {
            "coding": [
              {
                "code": "157141000119108",
                "system": "http://snomed.info/sct",
                "display": "Proteinuria due to type 2 diabetes mellitus"
              }
            ]
          },
          {
            "coding": [
              {
                "code": "237602007",
                "system": "http://snomed.info/sct",
                "display": "Metabolic syndrome X"
              }
            ]
          },
          {
            "coding": [
              {
                "code": "90781000119102",
                "system": "http://snomed.info/sct",
                "display": "Microalbuminuria due to type 2 diabetes mellitus"
              }
            ]
          },
          {
            "coding": [
              {
                "code": "127013003",
                "system": "http://snomed.info/sct",
                "display": "Disorder of kidney due to diabetes mellitus"
              }
            ]
          },
          {
            "coding": [
              {
                "code": "59621000",
                "system": "http://snomed.info/sct",
                "display": "Essential hypertension"
              }
            ]
          },
          {
            "coding": [
              {
                "code": "271737000",
                "system": "http://snomed.info/sct",
                "display": "Anemia"
              }
            ]
          },
          {
            "coding": [
              {
                "code": "15777000",
                "system": "http://snomed.info/sct",
                "display": "Prediabetes"
              }
            ]
          }
        ],
        "status": "active",
        "intent": "order",
        "code": {
          "coding": [
            {
              "code": "108252007",
              "system": "http://snomed.info/sct",
              "display": "Laboratory procedure"
            }
          ]
        },
        "subject": {
          "reference": "urn:uuid:47568042-ced3-43bf-b4f3-9d6c009f327b",
          "display": "Maria Nohlmans"
        },
        "requester": {
          "reference": "urn:uuid:8b9a0575-dd93-43cb-a33d-c446ca75f52d"
        }
      }
    },
    {
      "fullUrl": "urn:uuid:8b9a0575-dd93-43cb-a33d-c446ca75f52d",
      "resource": {
        "resourceType": "PractitionerRole",
        "id": "8b9a0575-dd93-43cb-a33d-c446ca75f52d",
        "meta": {
          "profile": [
            "http://hl7.eu/fhir/base/StructureDefinition/practitionerRole-eu"
          ]
        },
        "text": {
          "status": "generated",
          "div": "<div xmlns=\"http://www.w3.org/1999/xhtml\">Provider Role Id: 8b9a0575-dd93-43cb-a33d-c446ca75f52d</div>"
        },
        "organization": {
          "reference": "urn:uuid:0725e116-e0cc-4f05-942e-c5a6a6b1d192"
        }
      }
    },
    {
      "fullUrl": "urn:uuid:0725e116-e0cc-4f05-942e-c5a6a6b1d192",
      "resource": {
        "resourceType": "Organization",
        "id": "0725e116-e0cc-4f05-942e-c5a6a6b1d192",
        "meta": {
          "profile": [
            "http://hl7.eu/fhir/base/StructureDefinition/organization-eu"
          ]
        },
        "identifier": [
          {
            "assigner": {
              "display": "HL7 Europe"
            },
            "system": "urn:oid:2.16.840.1.113883.2.51.999",
            "value": "2b888d93-e3f3-4bf1-b72e-12cfd8786acb"
          }
        ],
        "address": [
          {
            "line": [
              "Brinckmannstraße 35"
            ],
            "city": "Husum",
            "postalCode": "25813",
            "country": "Germany"
          }
        ],
        "text": {
          "status": "generated",
          "div": "<div xmlns=\"http://www.w3.org/1999/xhtml\">Provider Organization: Dr. Wolfram Hussels Kieferorthopäde</div>"
        },
        "name": "Dr. Wolfram Hussels Kieferorthopäde"
      }
    },
    {
      "fullUrl": "urn:uuid:6d9aa3d6-ee45-45a0-9694-c849ae195211",
      "resource": {
        "resourceType": "Specimen",
        "id": "6d9aa3d6-ee45-45a0-9694-c849ae195211",
        "meta": {
          "profile": [
            "http://hl7.eu/fhir/laboratory/StructureDefinition/Specimen-eu-lab"
          ]
        },
        "collection": {
          "collectedDateTime": "2016-05-21"
        },
        "text": {
          "status": "generated",
          "div": "<div xmlns=\"http://www.w3.org/1999/xhtml\"><table class=\"hl7__eu__lab__report\"><tr><th>Specimen</th><th>Collection Date</th></tr><tr><td>Whole blood specimen (specimen)</td><td><span class=\"nb\">21-May-2016</span></td></tr></table></div>"
        },
        "type": {
          "coding": [
            {
              "code": "258580003",
              "system": "http://snomed.info/sct",
              "display": "Whole blood specimen (specimen)"
            }
          ]
        }
      }
    },
    {
      "fullUrl": "urn:uuid:b8e5cfa2-2ed7-4368-80bf-03831881254f",
      "resource": {
        "resourceType": "Specimen",
        "id": "b8e5cfa2-2ed7-4368-80bf-03831881254f",
        "meta": {
          "profile": [
            "http://hl7.eu/fhir/laboratory/StructureDefinition/Specimen-eu-lab"
          ]
        },
        "collection": {
          "collectedDateTime": "2016-05-21"
        },
        "text": {
          "status": "generated",
          "div": "<div xmlns=\"http://www.w3.org/1999/xhtml\"><table class=\"hl7__eu__lab__report\"><tr><th>Specimen</th><th>Collection Date</th></tr><tr><td>Acellular blood (serum or plasma) specimen</td><td><span class=\"nb\">21-May-2016</span></td></tr></table></div>"
        },
        "type": {
          "coding": [
            {
              "code": "122592007",
              "system": "http://snomed.info/sct",
              "display": "Acellular blood (serum or plasma) specimen"
            }
          ]
        }
      }
    },
    {
      "fullUrl": "urn:uuid:dd48da25-0158-4f95-b4c1-2c718652c900",
      "resource": {
        "resourceType": "Specimen",
        "id": "dd48da25-0158-4f95-b4c1-2c718652c900",
        "meta": {
          "profile": [
            "http://hl7.eu/fhir/laboratory/StructureDefinition/Specimen-eu-lab"
          ]
        },
        "collection": {
          "collectedDateTime": "2016-05-21"
        },
        "text": {
          "status": "generated",
          "div": "<div xmlns=\"http://www.w3.org/1999/xhtml\"><table class=\"hl7__eu__lab__report\"><tr><th>Specimen</th><th>Collection Date</th></tr><tr><td>Serum specimen</td><td><span class=\"nb\">21-May-2016</span></td></tr></table></div>"
        },
        "type": {
          "coding": [
            {
              "code": "119364003",
              "system": "http://snomed.info/sct",
              "display": "Serum specimen"
            }
          ]
        }
      }
    },
    {
      "fullUrl": "urn:uuid:d62b6cd2-3d54-427e-9c28-0edc7cdc5fa4",
      "resource": {
        "resourceType": "Specimen",
        "id": "d62b6cd2-3d54-427e-9c28-0edc7cdc5fa4",
        "meta": {
          "profile": [
            "http://hl7.eu/fhir/laboratory/StructureDefinition/Specimen-eu-lab"
          ]
        },
        "collection": {
          "collectedDateTime": "2016-05-21"
        },
        "text": {
          "status": "generated",
          "div": "<div xmlns=\"http://www.w3.org/1999/xhtml\"><table class=\"hl7__eu__lab__report\"><tr><th>Specimen</th><th>Collection Date</th></tr><tr><td>Urine specimen</td><td><span class=\"nb\">21-May-2016</span></td></tr></table></div>"
        },
        "type": {
          "coding": [
            {
              "code": "122575003",
              "system": "http://snomed.info/sct",
              "display": "Urine specimen"
            }
          ]
        }
      }
    },
    {
      "fullUrl": "urn:uuid:f9cd9e82-923a-45e3-b894-cb7648396c8f",
      "resource": {
        "resourceType": "Observation",
        "id": "f9cd9e82-923a-45e3-b894-cb7648396c8f",
        "meta": {
          "profile": [
            "http://hl7.eu/fhir/laboratory/StructureDefinition/Observation-resultslab-eu-lab"
          ]
        },
        "performer": [
          {
            "display": "The Central European Lab"
          }
        ],
        "category": [
          {
            "coding": [
              {
                "system": "http://terminology.hl7.org/CodeSystem/observation-category",
                "code": "laboratory"
              }
            ]
          }
        ],
        "code": {
          "coding": [
            {
              "code": "2339-0",
              "system": "http://loinc.org",
              "display": "Glucose [Mass/volume] in Blood"
            }
          ],
          "text": "Glucose [Mass/volume] in Blood"
        },
        "valueQuantity": {
          "system": "http://unitsofmeasure.org",
          "value": 66.6,
          "unit": "mg/dL",
          "code": "mg/dL"
        },
        "referenceRange": [
          {
            "low": {
              "value": 70,
              "code": "mg/dL",
              "system": "http://unitsofmeasure.org"
            }
          },
          {
            "high": {
              "value": 140,
              "code": "mg/dL",
              "system": "http://unitsofmeasure.org"
            }
          }
        ],
        "interpretation": [
          {
            "coding": [
              {
                "code": "L",
                "system": "http://terminology.hl7.org/CodeSystem/v3-ObservationInterpretation",
                "display": "Low"
              }
            ]
          }
        ],
        "text": {
          "status": "generated",
          "div": "<div xmlns=\"http://www.w3.org/1999/xhtml\"><table class=\"hl7__eu__lab__report\"><tr><th>Test</th><th>21-May-2016</th><th>Reference&#xA0;Range</th><th>Unit</th></tr><tr><td>Glucose [Mass/volume] in Blood</td><td>66.6</td><td>70 - 140</td><td>L</td><td>mg/dL</td></tr></table></div>"
        },
        "status": "final",
        "subject": {
          "reference": "urn:uuid:47568042-ced3-43bf-b4f3-9d6c009f327b",
          "display": "Maria Nohlmans"
        },
        "effectiveDateTime": "2016-05-21T18:56:39Z",
        "specimen": {
          "reference": "urn:uuid:6d9aa3d6-ee45-45a0-9694-c849ae195211"
        }
      }
    },
    {
      "fullUrl": "urn:uuid:1b9d8b2e-2a7a-4b97-8b10-322589e1fe2a",
      "resource": {
        "resourceType": "Observation",
        "id": "1b9d8b2e-2a7a-4b97-8b10-322589e1fe2a",
        "meta": {
          "profile": [
            "http://hl7.eu/fhir/laboratory/StructureDefinition/Observation-resultslab-eu-lab"
          ]
        },
        "performer": [
          {
            "display": "The Central European Lab"
          }
        ],
        "category": [
          {
            "coding": [
              {
                "system": "http://terminology.hl7.org/CodeSystem/observation-category",
                "code": "laboratory"
              }
            ]
          }
        ],
        "code": {
          "coding": [
            {
              "code": "6299-2",
              "system": "http://loinc.org",
              "display": "Urea nitrogen [Mass/volume] in Blood"
            }
          ],
          "text": "Urea nitrogen [Mass/volume] in Blood"
        },
        "valueQuantity": {
          "system": "http://unitsofmeasure.org",
          "value": 11.5,
          "unit": "mg/dL",
          "code": "mg/dL"
        },
        "referenceRange": [
          {
            "low": {
              "value": 7,
              "code": "mg/dL",
              "system": "http://unitsofmeasure.org"
            }
          },
          {
            "high": {
              "value": 30,
              "code": "mg/dL",
              "system": "http://unitsofmeasure.org"
            }
          }
        ],
        "text": {
          "status": "generated",
          "div": "<div xmlns=\"http://www.w3.org/1999/xhtml\"><table class=\"hl7__eu__lab__report\"><tr><th>Test</th><th>21-May-2016</th><th>Reference&#xA0;Range</th><th>Unit</th></tr><tr><td>Urea nitrogen [Mass/volume] in Blood</td><td>11.5</td><td>7 - 30</td><td></td><td>mg/dL</td></tr></table></div>"
        },
        "status": "final",
        "subject": {
          "reference": "urn:uuid:47568042-ced3-43bf-b4f3-9d6c009f327b",
          "display": "Maria Nohlmans"
        },
        "effectiveDateTime": "2016-05-21T18:56:39Z",
        "specimen": {
          "reference": "urn:uuid:6d9aa3d6-ee45-45a0-9694-c849ae195211"
        }
      }
    },
    {
      "fullUrl": "urn:uuid:4b9cc46d-6404-4b94-870f-126349dd056c",
      "resource": {
        "resourceType": "Observation",
        "id": "4b9cc46d-6404-4b94-870f-126349dd056c",
        "meta": {
          "profile": [
            "http://hl7.eu/fhir/laboratory/StructureDefinition/Observation-resultslab-eu-lab"
          ]
        },
        "performer": [
          {
            "display": "The Central European Lab"
          }
        ],
        "category": [
          {
            "coding": [
              {
                "system": "http://terminology.hl7.org/CodeSystem/observation-category",
                "code": "laboratory"
              }
            ]
          }
        ],
        "code": {
          "coding": [
            {
              "code": "38483-4",
              "system": "http://loinc.org",
              "display": "Creatinine [Mass/volume] in Blood"
            }
          ],
          "text": "Creatinine [Mass/volume] in Blood"
        },
        "valueQuantity": {
          "system": "http://unitsofmeasure.org",
          "value": 3.1,
          "unit": "mg/dL",
          "code": "mg/dL"
        },
        "referenceRange": [
          {
            "low": {
              "value": 0.5,
              "code": "mg/dL",
              "system": "http://unitsofmeasure.org"
            }
          },
          {
            "high": {
              "value": 1.3,
              "code": "mg/dL",
              "system": "http://unitsofmeasure.org"
            }
          }
        ],
        "interpretation": [
          {
            "coding": [
              {
                "code": "H",
                "system": "http://terminology.hl7.org/CodeSystem/v3-ObservationInterpretation",
                "display": "High"
              }
            ]
          }
        ],
        "text": {
          "status": "generated",
          "div": "<div xmlns=\"http://www.w3.org/1999/xhtml\"><table class=\"hl7__eu__lab__report\"><tr><th>Test</th><th>21-May-2016</th><th>Reference&#xA0;Range</th><th>Unit</th></tr><tr><td>Creatinine [Mass/volume] in Blood</td><td>3.1</td><td>0.5 - 1.3</td><td>H</td><td>mg/dL</td></tr></table></div>"
        },
        "status": "final",
        "subject": {
          "reference": "urn:uuid:47568042-ced3-43bf-b4f3-9d6c009f327b",
          "display": "Maria Nohlmans"
        },
        "effectiveDateTime": "2016-05-21T18:56:39Z",
        "specimen": {
          "reference": "urn:uuid:6d9aa3d6-ee45-45a0-9694-c849ae195211"
        }
      }
    },
    {
      "fullUrl": "urn:uuid:8ced3203-e806-4e89-a91c-f9f4f03d120d",
      "resource": {
        "resourceType": "Observation",
        "id": "8ced3203-e806-4e89-a91c-f9f4f03d120d",
        "meta": {
          "profile": [
            "http://hl7.eu/fhir/laboratory/StructureDefinition/Observation-resultslab-eu-lab"
          ]
        },
        "performer": [
          {
            "display": "The Central European Lab"
          }
        ],
        "category": [
          {
            "coding": [
              {
                "system": "http://terminology.hl7.org/CodeSystem/observation-category",
                "code": "laboratory"
              }
            ]
          }
        ],
        "code": {
          "coding": [
            {
              "code": "49765-1",
              "system": "http://loinc.org",
              "display": "Calcium [Mass/volume] in Blood"
            }
          ],
          "text": "Calcium [Mass/volume] in Blood"
        },
        "valueQuantity": {
          "system": "http://unitsofmeasure.org",
          "value": 9.3,
          "unit": "mg/dL",
          "code": "mg/dL"
        },
        "referenceRange": [
          {
            "low": {
              "value": 8.6,
              "code": "mg/dL",
              "system": "http://unitsofmeasure.org"
            }
          },
          {
            "high": {
              "value": 10.2,
              "code": "mg/dL",
              "system": "http://unitsofmeasure.org"
            }
          }
        ],
        "text": {
          "status": "generated",
          "div": "<div xmlns=\"http://www.w3.org/1999/xhtml\"><table class=\"hl7__eu__lab__report\"><tr><th>Test</th><th>21-May-2016</th><th>Reference&#xA0;Range</th><th>Unit</th></tr><tr><td>Calcium [Mass/volume] in Blood</td><td>9.3</td><td>8.6 - 10.2</td><td></td><td>mg/dL</td></tr></table></div>"
        },
        "status": "final",
        "subject": {
          "reference": "urn:uuid:47568042-ced3-43bf-b4f3-9d6c009f327b",
          "display": "Maria Nohlmans"
        },
        "effectiveDateTime": "2016-05-21T18:56:39Z",
        "specimen": {
          "reference": "urn:uuid:6d9aa3d6-ee45-45a0-9694-c849ae195211"
        }
      }
    },
    {
      "fullUrl": "urn:uuid:613cbaeb-6e0e-48cc-9351-701e7671e4a5",
      "resource": {
        "resourceType": "Observation",
        "id": "613cbaeb-6e0e-48cc-9351-701e7671e4a5",
        "meta": {
          "profile": [
            "http://hl7.eu/fhir/laboratory/StructureDefinition/Observation-resultslab-eu-lab"
          ]
        },
        "performer": [
          {
            "display": "The Central European Lab"
          }
        ],
        "category": [
          {
            "coding": [
              {
                "system": "http://terminology.hl7.org/CodeSystem/observation-category",
                "code": "laboratory"
              }
            ]
          }
        ],
        "code": {
          "coding": [
            {
              "code": "2947-0",
              "system": "http://loinc.org",
              "display": "Sodium [Moles/volume] in Blood"
            }
          ],
          "text": "Sodium [Moles/volume] in Blood"
        },
        "valueQuantity": {
          "system": "http://unitsofmeasure.org",
          "value": 136.2,
          "unit": "mmol/L",
          "code": "mmol/L"
        },
        "referenceRange": [
          {
            "low": {
              "value": 135,
              "code": "mmol/L",
              "system": "http://unitsofmeasure.org"
            }
          },
          {
            "high": {
              "value": 145,
              "code": "mmol/L",
              "system": "http://unitsofmeasure.org"
            }
          }
        ],
        "text": {
          "status": "generated",
          "div": "<div xmlns=\"http://www.w3.org/1999/xhtml\"><table class=\"hl7__eu__lab__report\"><tr><th>Test</th><th>21-May-2016</th><th>Reference&#xA0;Range</th><th>Unit</th></tr><tr><td>Sodium [Moles/volume] in Blood</td><td>136.2</td><td>135 - 145</td><td></td><td>mmol/L</td></tr></table></div>"
        },
        "status": "final",
        "subject": {
          "reference": "urn:uuid:47568042-ced3-43bf-b4f3-9d6c009f327b",
          "display": "Maria Nohlmans"
        },
        "effectiveDateTime": "2016-05-21T18:56:39Z",
        "specimen": {
          "reference": "urn:uuid:6d9aa3d6-ee45-45a0-9694-c849ae195211"
        }
      }
    },
    {
      "fullUrl": "urn:uuid:c734eebd-7579-4d7a-a804-2fd5321da333",
      "resource": {
        "resourceType": "Observation",
        "id": "c734eebd-7579-4d7a-a804-2fd5321da333",
        "meta": {
          "profile": [
            "http://hl7.eu/fhir/laboratory/StructureDefinition/Observation-resultslab-eu-lab"
          ]
        },
        "performer": [
          {
            "display": "The Central European Lab"
          }
        ],
        "category": [
          {
            "coding": [
              {
                "system": "http://terminology.hl7.org/CodeSystem/observation-category",
                "code": "laboratory"
              }
            ]
          }
        ],
        "code": {
          "coding": [
            {
              "code": "6298-4",
              "system": "http://loinc.org",
              "display": "Potassium [Moles/volume] in Blood"
            }
          ],
          "text": "Potassium [Moles/volume] in Blood"
        },
        "valueQuantity": {
          "system": "http://unitsofmeasure.org",
          "value": 4.6,
          "unit": "mmol/L",
          "code": "mmol/L"
        },
        "referenceRange": [
          {
            "low": {
              "value": 3.5,
              "code": "mmol/L",
              "system": "http://unitsofmeasure.org"
            }
          },
          {
            "high": {
              "value": 5.1,
              "code": "mmol/L",
              "system": "http://unitsofmeasure.org"
            }
          }
        ],
        "text": {
          "status": "generated",
          "div": "<div xmlns=\"http://www.w3.org/1999/xhtml\"><table class=\"hl7__eu__lab__report\"><tr><th>Test</th><th>21-May-2016</th><th>Reference&#xA0;Range</th><th>Unit</th></tr><tr><td>Potassium [Moles/volume] in Blood</td><td>4.6</td><td>3.5 - 5.1</td><td></td><td>mmol/L</td></tr></table></div>"
        },
        "status": "final",
        "subject": {
          "reference": "urn:uuid:47568042-ced3-43bf-b4f3-9d6c009f327b",
          "display": "Maria Nohlmans"
        },
        "effectiveDateTime": "2016-05-21T18:56:39Z",
        "specimen": {
          "reference": "urn:uuid:6d9aa3d6-ee45-45a0-9694-c849ae195211"
        }
      }
    },
    {
      "fullUrl": "urn:uuid:dffa8473-c61b-4708-8861-0d1c77c82486",
      "resource": {
        "resourceType": "Observation",
        "id": "dffa8473-c61b-4708-8861-0d1c77c82486",
        "meta": {
          "profile": [
            "http://hl7.eu/fhir/laboratory/StructureDefinition/Observation-resultslab-eu-lab"
          ]
        },
        "performer": [
          {
            "display": "The Central European Lab"
          }
        ],
        "category": [
          {
            "coding": [
              {
                "system": "http://terminology.hl7.org/CodeSystem/observation-category",
                "code": "laboratory"
              }
            ]
          }
        ],
        "code": {
          "coding": [
            {
              "code": "2069-3",
              "system": "http://loinc.org",
              "display": "Chloride [Moles/volume] in Blood"
            }
          ],
          "text": "Chloride [Moles/volume] in Blood"
        },
        "valueQuantity": {
          "system": "http://unitsofmeasure.org",
          "value": 109.6,
          "unit": "mmol/L",
          "code": "mmol/L"
        },
        "referenceRange": [
          {
            "low": {
              "value": 98,
              "code": "mmol/L",
              "system": "http://unitsofmeasure.org"
            }
          },
          {
            "high": {
              "value": 114,
              "code": "mmol/L",
              "system": "http://unitsofmeasure.org"
            }
          }
        ],
        "text": {
          "status": "generated",
          "div": "<div xmlns=\"http://www.w3.org/1999/xhtml\"><table class=\"hl7__eu__lab__report\"><tr><th>Test</th><th>21-May-2016</th><th>Reference&#xA0;Range</th><th>Unit</th></tr><tr><td>Chloride [Moles/volume] in Blood</td><td>109.6</td><td>98 - 114</td><td></td><td>mmol/L</td></tr></table></div>"
        },
        "status": "final",
        "subject": {
          "reference": "urn:uuid:47568042-ced3-43bf-b4f3-9d6c009f327b",
          "display": "Maria Nohlmans"
        },
        "effectiveDateTime": "2016-05-21T18:56:39Z",
        "specimen": {
          "reference": "urn:uuid:6d9aa3d6-ee45-45a0-9694-c849ae195211"
        }
      }
    },
    {
      "fullUrl": "urn:uuid:d4df77b1-985b-49ed-9df1-330a7d67c873",
      "resource": {
        "resourceType": "Observation",
        "id": "d4df77b1-985b-49ed-9df1-330a7d67c873",
        "meta": {
          "profile": [
            "http://hl7.eu/fhir/laboratory/StructureDefinition/Observation-resultslab-eu-lab"
          ]
        },
        "performer": [
          {
            "display": "The Central European Lab"
          }
        ],
        "category": [
          {
            "coding": [
              {
                "system": "http://terminology.hl7.org/CodeSystem/observation-category",
                "code": "laboratory"
              }
            ]
          }
        ],
        "code": {
          "coding": [
            {
              "code": "20565-8",
              "system": "http://loinc.org",
              "display": "Carbon dioxide, total [Moles/volume] in Blood"
            }
          ],
          "text": "Carbon dioxide, total [Moles/volume] in Blood"
        },
        "valueQuantity": {
          "system": "http://unitsofmeasure.org",
          "value": 20.1,
          "unit": "mmol/L",
          "code": "mmol/L"
        },
        "referenceRange": [
          {
            "low": {
              "value": 22,
              "code": "mmol/L",
              "system": "http://unitsofmeasure.org"
            }
          },
          {
            "high": {
              "value": 32,
              "code": "mmol/L",
              "system": "http://unitsofmeasure.org"
            }
          }
        ],
        "interpretation": [
          {
            "coding": [
              {
                "code": "L",
                "system": "http://terminology.hl7.org/CodeSystem/v3-ObservationInterpretation",
                "display": "Low"
              }
            ]
          }
        ],
        "text": {
          "status": "generated",
          "div": "<div xmlns=\"http://www.w3.org/1999/xhtml\"><table class=\"hl7__eu__lab__report\"><tr><th>Test</th><th>21-May-2016</th><th>Reference&#xA0;Range</th><th>Unit</th></tr><tr><td>Carbon dioxide, total [Moles/volume] in Blood</td><td>20.1</td><td>22 - 32</td><td>L</td><td>mmol/L</td></tr></table></div>"
        },
        "status": "final",
        "subject": {
          "reference": "urn:uuid:47568042-ced3-43bf-b4f3-9d6c009f327b",
          "display": "Maria Nohlmans"
        },
        "effectiveDateTime": "2016-05-21T18:56:39Z",
        "specimen": {
          "reference": "urn:uuid:6d9aa3d6-ee45-45a0-9694-c849ae195211"
        }
      }
    },
    {
      "fullUrl": "urn:uuid:06fb836b-568f-4c64-b5e6-7feb41a6d3e3",
      "resource": {
        "resourceType": "Observation",
        "id": "06fb836b-568f-4c64-b5e6-7feb41a6d3e3",
        "meta": {
          "profile": [
            "http://hl7.eu/fhir/laboratory/StructureDefinition/Observation-resultslab-eu-lab"
          ]
        },
        "performer": [
          {
            "display": "The Central European Lab"
          }
        ],
        "category": [
          {
            "coding": [
              {
                "system": "http://terminology.hl7.org/CodeSystem/observation-category",
                "code": "laboratory"
              }
            ]
          }
        ],
        "code": {
          "coding": [
            {
              "code": "2885-2",
              "system": "http://loinc.org",
              "display": "Protein [Mass/volume] in Serum or Plasma"
            }
          ],
          "text": "Protein [Mass/volume] in Serum or Plasma"
        },
        "valueQuantity": {
          "system": "http://unitsofmeasure.org",
          "value": 7,
          "unit": "g/dL",
          "code": "g/dL"
        },
        "referenceRange": [
          {
            "low": {
              "value": 6,
              "code": "g/dL",
              "system": "http://unitsofmeasure.org"
            }
          },
          {
            "high": {
              "value": 8.3,
              "code": "g/dL",
              "system": "http://unitsofmeasure.org"
            }
          }
        ],
        "text": {
          "status": "generated",
          "div": "<div xmlns=\"http://www.w3.org/1999/xhtml\"><table class=\"hl7__eu__lab__report\"><tr><th>Test</th><th>21-May-2016</th><th>Reference&#xA0;Range</th><th>Unit</th></tr><tr><td>Protein [Mass/volume] in Serum or Plasma</td><td>7.0</td><td>6 - 8.3</td><td></td><td>g/dL</td></tr></table></div>"
        },
        "status": "final",
        "subject": {
          "reference": "urn:uuid:47568042-ced3-43bf-b4f3-9d6c009f327b",
          "display": "Maria Nohlmans"
        },
        "effectiveDateTime": "2016-05-21T18:56:39Z",
        "specimen": {
          "reference": "urn:uuid:b8e5cfa2-2ed7-4368-80bf-03831881254f"
        }
      }
    },
    {
      "fullUrl": "urn:uuid:e3a121b3-32e0-4985-964d-25f283fb75a7",
      "resource": {
        "resourceType": "Observation",
        "id": "e3a121b3-32e0-4985-964d-25f283fb75a7",
        "meta": {
          "profile": [
            "http://hl7.eu/fhir/laboratory/StructureDefinition/Observation-resultslab-eu-lab"
          ]
        },
        "performer": [
          {
            "display": "The Central European Lab"
          }
        ],
        "category": [
          {
            "coding": [
              {
                "system": "http://terminology.hl7.org/CodeSystem/observation-category",
                "code": "laboratory"
              }
            ]
          }
        ],
        "code": {
          "coding": [
            {
              "code": "1751-7",
              "system": "http://loinc.org",
              "display": "Albumin [Mass/volume] in Serum or Plasma"
            }
          ],
          "text": "Albumin [Mass/volume] in Serum or Plasma"
        },
        "valueQuantity": {
          "system": "http://unitsofmeasure.org",
          "value": 4,
          "unit": "g/dL",
          "code": "g/dL"
        },
        "referenceRange": [
          {
            "low": {
              "value": 3.5,
              "code": "g/dL",
              "system": "http://unitsofmeasure.org"
            }
          },
          {
            "high": {
              "value": 5.5,
              "code": "g/dL",
              "system": "http://unitsofmeasure.org"
            }
          }
        ],
        "text": {
          "status": "generated",
          "div": "<div xmlns=\"http://www.w3.org/1999/xhtml\"><table class=\"hl7__eu__lab__report\"><tr><th>Test</th><th>21-May-2016</th><th>Reference&#xA0;Range</th><th>Unit</th></tr><tr><td>Albumin [Mass/volume] in Serum or Plasma</td><td>4.0</td><td>3.5 - 5.5</td><td></td><td>g/dL</td></tr></table></div>"
        },
        "status": "final",
        "subject": {
          "reference": "urn:uuid:47568042-ced3-43bf-b4f3-9d6c009f327b",
          "display": "Maria Nohlmans"
        },
        "effectiveDateTime": "2016-05-21T18:56:39Z",
        "specimen": {
          "reference": "urn:uuid:b8e5cfa2-2ed7-4368-80bf-03831881254f"
        }
      }
    },
    {
      "fullUrl": "urn:uuid:8d4e1351-cddb-42da-8776-3c4ad1ed6628",
      "resource": {
        "resourceType": "Observation",
        "id": "8d4e1351-cddb-42da-8776-3c4ad1ed6628",
        "meta": {
          "profile": [
            "http://hl7.eu/fhir/laboratory/StructureDefinition/Observation-resultslab-eu-lab"
          ]
        },
        "performer": [
          {
            "display": "The Central European Lab"
          }
        ],
        "category": [
          {
            "coding": [
              {
                "system": "http://terminology.hl7.org/CodeSystem/observation-category",
                "code": "laboratory"
              }
            ]
          }
        ],
        "code": {
          "coding": [
            {
              "code": "10834-0",
              "system": "http://loinc.org",
              "display": "Globulin [Mass/volume] in Serum by calculation"
            }
          ],
          "text": "Globulin [Mass/volume] in Serum by calculation"
        },
        "valueQuantity": {
          "system": "http://unitsofmeasure.org",
          "value": 3.3,
          "unit": "g/L",
          "code": "g/L"
        },
        "referenceRange": [
          {
            "low": {
              "value": 2,
              "code": "g/L",
              "system": "http://unitsofmeasure.org"
            }
          },
          {
            "high": {
              "value": 3.5,
              "code": "g/L",
              "system": "http://unitsofmeasure.org"
            }
          }
        ],
        "text": {
          "status": "generated",
          "div": "<div xmlns=\"http://www.w3.org/1999/xhtml\"><table class=\"hl7__eu__lab__report\"><tr><th>Test</th><th>21-May-2016</th><th>Reference&#xA0;Range</th><th>Unit</th></tr><tr><td>Globulin [Mass/volume] in Serum by calculation</td><td>3.3</td><td>2 - 3.5</td><td></td><td>g/L</td></tr></table></div>"
        },
        "status": "final",
        "subject": {
          "reference": "urn:uuid:47568042-ced3-43bf-b4f3-9d6c009f327b",
          "display": "Maria Nohlmans"
        },
        "effectiveDateTime": "2016-05-21T18:56:39Z",
        "specimen": {
          "reference": "urn:uuid:dd48da25-0158-4f95-b4c1-2c718652c900"
        }
      }
    },
    {
      "fullUrl": "urn:uuid:ff059974-24dd-465a-b691-156146d20c6f",
      "resource": {
        "resourceType": "Observation",
        "id": "ff059974-24dd-465a-b691-156146d20c6f",
        "meta": {
          "profile": [
            "http://hl7.eu/fhir/laboratory/StructureDefinition/Observation-resultslab-eu-lab"
          ]
        },
        "performer": [
          {
            "display": "The Central European Lab"
          }
        ],
        "category": [
          {
            "coding": [
              {
                "system": "http://terminology.hl7.org/CodeSystem/observation-category",
                "code": "laboratory"
              }
            ]
          }
        ],
        "code": {
          "coding": [
            {
              "code": "1975-2",
              "system": "http://loinc.org",
              "display": "Bilirubin.total [Mass/volume] in Serum or Plasma"
            }
          ],
          "text": "Bilirubin.total [Mass/volume] in Serum or Plasma"
        },
        "valueQuantity": {
          "system": "http://unitsofmeasure.org",
          "value": 1,
          "unit": "mg/dL",
          "code": "mg/dL"
        },
        "referenceRange": [
          {
            "low": {
              "value": 0.3,
              "code": "mg/dL",
              "system": "http://unitsofmeasure.org"
            }
          },
          {
            "high": {
              "value": 1.2,
              "code": "mg/dL",
              "system": "http://unitsofmeasure.org"
            }
          }
        ],
        "text": {
          "status": "generated",
          "div": "<div xmlns=\"http://www.w3.org/1999/xhtml\"><table class=\"hl7__eu__lab__report\"><tr><th>Test</th><th>21-May-2016</th><th>Reference&#xA0;Range</th><th>Unit</th></tr><tr><td>Bilirubin.total [Mass/volume] in Serum or Plasma</td><td>1.0</td><td>0.3 - 1.2</td><td></td><td>mg/dL</td></tr></table></div>"
        },
        "status": "final",
        "subject": {
          "reference": "urn:uuid:47568042-ced3-43bf-b4f3-9d6c009f327b",
          "display": "Maria Nohlmans"
        },
        "effectiveDateTime": "2016-05-21T18:56:39Z",
        "specimen": {
          "reference": "urn:uuid:b8e5cfa2-2ed7-4368-80bf-03831881254f"
        }
      }
    },
    {
      "fullUrl": "urn:uuid:c5b323ab-49d1-4c1d-9f04-e0601159dfb9",
      "resource": {
        "resourceType": "Observation",
        "id": "c5b323ab-49d1-4c1d-9f04-e0601159dfb9",
        "meta": {
          "profile": [
            "http://hl7.eu/fhir/laboratory/StructureDefinition/Observation-resultslab-eu-lab"
          ]
        },
        "performer": [
          {
            "display": "The Central European Lab"
          }
        ],
        "category": [
          {
            "coding": [
              {
                "system": "http://terminology.hl7.org/CodeSystem/observation-category",
                "code": "laboratory"
              }
            ]
          }
        ],
        "code": {
          "coding": [
            {
              "code": "6768-6",
              "system": "http://loinc.org",
              "display": "Alkaline phosphatase [Enzymatic activity/volume] in Serum or Plasma"
            }
          ],
          "text": "Alkaline phosphatase [Enzymatic activity/volume] in Serum or Plasma"
        },
        "valueQuantity": {
          "system": "http://unitsofmeasure.org",
          "value": 131.6,
          "unit": "U/L",
          "code": "U/L"
        },
        "referenceRange": [
          {
            "low": {
              "value": 44,
              "code": "U/L",
              "system": "http://unitsofmeasure.org"
            }
          },
          {
            "high": {
              "value": 142,
              "code": "U/L",
              "system": "http://unitsofmeasure.org"
            }
          }
        ],
        "text": {
          "status": "generated",
          "div": "<div xmlns=\"http://www.w3.org/1999/xhtml\"><table class=\"hl7__eu__lab__report\"><tr><th>Test</th><th>21-May-2016</th><th>Reference&#xA0;Range</th><th>Unit</th></tr><tr><td>Alkaline phosphatase [Enzymatic activity/volume] in Serum or Plasma</td><td>131.6</td><td>44 - 142</td><td></td><td>U/L</td></tr></table></div>"
        },
        "status": "final",
        "subject": {
          "reference": "urn:uuid:47568042-ced3-43bf-b4f3-9d6c009f327b",
          "display": "Maria Nohlmans"
        },
        "effectiveDateTime": "2016-05-21T18:56:39Z",
        "specimen": {
          "reference": "urn:uuid:b8e5cfa2-2ed7-4368-80bf-03831881254f"
        }
      }
    },
    {
      "fullUrl": "urn:uuid:c4e8acda-744b-4477-9090-5666450fa32e",
      "resource": {
        "resourceType": "Observation",
        "id": "c4e8acda-744b-4477-9090-5666450fa32e",
        "meta": {
          "profile": [
            "http://hl7.eu/fhir/laboratory/StructureDefinition/Observation-resultslab-eu-lab"
          ]
        },
        "performer": [
          {
            "display": "The Central European Lab"
          }
        ],
        "category": [
          {
            "coding": [
              {
                "system": "http://terminology.hl7.org/CodeSystem/observation-category",
                "code": "laboratory"
              }
            ]
          }
        ],
        "code": {
          "coding": [
            {
              "code": "1742-6",
              "system": "http://loinc.org",
              "display": "Alanine aminotransferase [Enzymatic activity/volume] in Serum or Plasma"
            }
          ],
          "text": "Alanine aminotransferase [Enzymatic activity/volume] in Serum or Plasma"
        },
        "valueQuantity": {
          "system": "http://unitsofmeasure.org",
          "value": 34.5,
          "unit": "U/L",
          "code": "U/L"
        },
        "referenceRange": [
          {
            "low": {
              "value": 7,
              "code": "U/L",
              "system": "http://unitsofmeasure.org"
            }
          },
          {
            "high": {
              "value": 40,
              "code": "U/L",
              "system": "http://unitsofmeasure.org"
            }
          }
        ],
        "text": {
          "status": "generated",
          "div": "<div xmlns=\"http://www.w3.org/1999/xhtml\"><table class=\"hl7__eu__lab__report\"><tr><th>Test</th><th>21-May-2016</th><th>Reference&#xA0;Range</th><th>Unit</th></tr><tr><td>Alanine aminotransferase [Enzymatic activity/volume] in Serum or Plasma</td><td>34.5</td><td>7 - 40</td><td></td><td>U/L</td></tr></table></div>"
        },
        "status": "final",
        "subject": {
          "reference": "urn:uuid:47568042-ced3-43bf-b4f3-9d6c009f327b",
          "display": "Maria Nohlmans"
        },
        "effectiveDateTime": "2016-05-21T18:56:39Z",
        "specimen": {
          "reference": "urn:uuid:b8e5cfa2-2ed7-4368-80bf-03831881254f"
        }
      }
    },
    {
      "fullUrl": "urn:uuid:2ce4281f-3948-44f5-84fc-1973dd8b7431",
      "resource": {
        "resourceType": "Observation",
        "id": "2ce4281f-3948-44f5-84fc-1973dd8b7431",
        "meta": {
          "profile": [
            "http://hl7.eu/fhir/laboratory/StructureDefinition/Observation-resultslab-eu-lab"
          ]
        },
        "performer": [
          {
            "display": "The Central European Lab"
          }
        ],
        "category": [
          {
            "coding": [
              {
                "system": "http://terminology.hl7.org/CodeSystem/observation-category",
                "code": "laboratory"
              }
            ]
          }
        ],
        "code": {
          "coding": [
            {
              "code": "1920-8",
              "system": "http://loinc.org",
              "display": "Aspartate aminotransferase [Enzymatic activity/volume] in Serum or Plasma"
            }
          ],
          "text": "Aspartate aminotransferase [Enzymatic activity/volume] in Serum or Plasma"
        },
        "valueQuantity": {
          "system": "http://unitsofmeasure.org",
          "value": 38.2,
          "unit": "U/L",
          "code": "U/L"
        },
        "referenceRange": [
          {
            "low": {
              "value": 10,
              "code": "U/L",
              "system": "http://unitsofmeasure.org"
            }
          },
          {
            "high": {
              "value": 40,
              "code": "U/L",
              "system": "http://unitsofmeasure.org"
            }
          }
        ],
        "text": {
          "status": "generated",
          "div": "<div xmlns=\"http://www.w3.org/1999/xhtml\"><table class=\"hl7__eu__lab__report\"><tr><th>Test</th><th>21-May-2016</th><th>Reference&#xA0;Range</th><th>Unit</th></tr><tr><td>Aspartate aminotransferase [Enzymatic activity/volume] in Serum or Plasma</td><td>38.2</td><td>10 - 40</td><td></td><td>U/L</td></tr></table></div>"
        },
        "status": "final",
        "subject": {
          "reference": "urn:uuid:47568042-ced3-43bf-b4f3-9d6c009f327b",
          "display": "Maria Nohlmans"
        },
        "effectiveDateTime": "2016-05-21T18:56:39Z",
        "specimen": {
          "reference": "urn:uuid:b8e5cfa2-2ed7-4368-80bf-03831881254f"
        }
      }
    },
    {
      "fullUrl": "urn:uuid:04fba247-69be-4236-b816-d374d48be54b",
      "resource": {
        "resourceType": "Observation",
        "id": "04fba247-69be-4236-b816-d374d48be54b",
        "meta": {
          "profile": [
            "http://hl7.eu/fhir/laboratory/StructureDefinition/Observation-resultslab-eu-lab"
          ]
        },
        "performer": [
          {
            "display": "The Central European Lab"
          }
        ],
        "category": [
          {
            "coding": [
              {
                "system": "http://terminology.hl7.org/CodeSystem/observation-category",
                "code": "laboratory"
              }
            ]
          }
        ],
        "code": {
          "coding": [
            {
              "code": "5767-9",
              "system": "http://loinc.org",
              "display": "Appearance of Urine"
            }
          ],
          "text": "Appearance of Urine"
        },
        "text": {
          "status": "generated",
          "div": "<div xmlns=\"http://www.w3.org/1999/xhtml\"><table class=\"hl7__eu__lab__report\"><tr><th>Test</th><th>21-May-2016</th><th>Reference&#xA0;Range</th><th>Unit</th></tr><tr><td>Appearance of Urine</td></tr></table></div>"
        },
        "status": "final",
        "subject": {
          "reference": "urn:uuid:47568042-ced3-43bf-b4f3-9d6c009f327b",
          "display": "Maria Nohlmans"
        },
        "effectiveDateTime": "2016-05-21T18:56:39Z",
        "specimen": {
          "reference": "urn:uuid:d62b6cd2-3d54-427e-9c28-0edc7cdc5fa4"
        }
      }
    },
    {
      "fullUrl": "urn:uuid:15f4bdbb-2238-4632-a9dc-18c2ec2b77da",
      "resource": {
        "resourceType": "Observation",
        "id": "15f4bdbb-2238-4632-a9dc-18c2ec2b77da",
        "meta": {
          "profile": [
            "http://hl7.eu/fhir/laboratory/StructureDefinition/Observation-resultslab-eu-lab"
          ]
        },
        "performer": [
          {
            "display": "The Central European Lab"
          }
        ],
        "category": [
          {
            "coding": [
              {
                "system": "http://terminology.hl7.org/CodeSystem/observation-category",
                "code": "laboratory"
              }
            ]
          }
        ],
        "code": {
          "coding": [
            {
              "code": "34533-0",
              "system": "http://loinc.org",
              "display": "Odor of Urine"
            }
          ],
          "text": "Odor of Urine"
        },
        "text": {
          "status": "generated",
          "div": "<div xmlns=\"http://www.w3.org/1999/xhtml\"><table class=\"hl7__eu__lab__report\"><tr><th>Test</th><th>21-May-2016</th><th>Reference&#xA0;Range</th><th>Unit</th></tr><tr><td>Odor of Urine</td></tr></table></div>"
        },
        "status": "final",
        "subject": {
          "reference": "urn:uuid:47568042-ced3-43bf-b4f3-9d6c009f327b",
          "display": "Maria Nohlmans"
        },
        "effectiveDateTime": "2016-05-21T18:56:39Z",
        "specimen": {
          "reference": "urn:uuid:d62b6cd2-3d54-427e-9c28-0edc7cdc5fa4"
        }
      }
    },
    {
      "fullUrl": "urn:uuid:ea6a28a1-2d8b-47a8-bb55-9caf34435bb1",
      "resource": {
        "resourceType": "Observation",
        "id": "ea6a28a1-2d8b-47a8-bb55-9caf34435bb1",
        "meta": {
          "profile": [
            "http://hl7.eu/fhir/laboratory/StructureDefinition/Observation-resultslab-eu-lab"
          ]
        },
        "performer": [
          {
            "display": "The Central European Lab"
          }
        ],
        "category": [
          {
            "coding": [
              {
                "system": "http://terminology.hl7.org/CodeSystem/observation-category",
                "code": "laboratory"
              }
            ]
          }
        ],
        "code": {
          "coding": [
            {
              "code": "32167-9",
              "system": "http://loinc.org",
              "display": "Clarity of Urine"
            }
          ],
          "text": "Clarity of Urine"
        },
        "text": {
          "status": "generated",
          "div": "<div xmlns=\"http://www.w3.org/1999/xhtml\"><table class=\"hl7__eu__lab__report\"><tr><th>Test</th><th>21-May-2016</th><th>Reference&#xA0;Range</th><th>Unit</th></tr><tr><td>Clarity of Urine</td></tr></table></div>"
        },
        "status": "final",
        "subject": {
          "reference": "urn:uuid:47568042-ced3-43bf-b4f3-9d6c009f327b",
          "display": "Maria Nohlmans"
        },
        "effectiveDateTime": "2016-05-21T18:56:39Z",
        "specimen": {
          "reference": "urn:uuid:d62b6cd2-3d54-427e-9c28-0edc7cdc5fa4"
        }
      }
    },
    {
      "fullUrl": "urn:uuid:115d4a32-34c1-4e73-beef-050bc7b2469d",
      "resource": {
        "resourceType": "Observation",
        "id": "115d4a32-34c1-4e73-beef-050bc7b2469d",
        "meta": {
          "profile": [
            "http://hl7.eu/fhir/laboratory/StructureDefinition/Observation-resultslab-eu-lab"
          ]
        },
        "performer": [
          {
            "display": "The Central European Lab"
          }
        ],
        "category": [
          {
            "coding": [
              {
                "system": "http://terminology.hl7.org/CodeSystem/observation-category",
                "code": "laboratory"
              }
            ]
          }
        ],
        "code": {
          "coding": [
            {
              "code": "5778-6",
              "system": "http://loinc.org",
              "display": "Color of Urine"
            }
          ],
          "text": "Color of Urine"
        },
        "text": {
          "status": "generated",
          "div": "<div xmlns=\"http://www.w3.org/1999/xhtml\"><table class=\"hl7__eu__lab__report\"><tr><th>Test</th><th>21-May-2016</th><th>Reference&#xA0;Range</th><th>Unit</th></tr><tr><td>Color of Urine</td></tr></table></div>"
        },
        "status": "final",
        "subject": {
          "reference": "urn:uuid:47568042-ced3-43bf-b4f3-9d6c009f327b",
          "display": "Maria Nohlmans"
        },
        "effectiveDateTime": "2016-05-21T18:56:39Z",
        "specimen": {
          "reference": "urn:uuid:d62b6cd2-3d54-427e-9c28-0edc7cdc5fa4"
        }
      }
    },
    {
      "fullUrl": "urn:uuid:53dda89e-e3a5-44e9-bbcf-b94549c06569",
      "resource": {
        "resourceType": "Observation",
        "id": "53dda89e-e3a5-44e9-bbcf-b94549c06569",
        "meta": {
          "profile": [
            "http://hl7.eu/fhir/laboratory/StructureDefinition/Observation-resultslab-eu-lab"
          ]
        },
        "performer": [
          {
            "display": "The Central European Lab"
          }
        ],
        "category": [
          {
            "coding": [
              {
                "system": "http://terminology.hl7.org/CodeSystem/observation-category",
                "code": "laboratory"
              }
            ]
          }
        ],
        "code": {
          "coding": [
            {
              "code": "5792-7",
              "system": "http://loinc.org",
              "display": "Glucose [Mass/volume] in Urine by Test strip"
            }
          ],
          "text": "Glucose [Mass/volume] in Urine by Test strip"
        },
        "valueQuantity": {
          "system": "http://unitsofmeasure.org",
          "value": 0.6,
          "unit": "mg/dL",
          "code": "mg/dL"
        },
        "referenceRange": [
          {
            "low": {
              "value": 0.8,
              "code": "mg/dL",
              "system": "http://unitsofmeasure.org"
            }
          },
          {
            "high": {
              "value": 0,
              "code": "mg/dL",
              "system": "http://unitsofmeasure.org"
            }
          }
        ],
        "interpretation": [
          {
            "coding": [
              {
                "code": "L",
                "system": "http://terminology.hl7.org/CodeSystem/v3-ObservationInterpretation",
                "display": "Low"
              }
            ]
          }
        ],
        "text": {
          "status": "generated",
          "div": "<div xmlns=\"http://www.w3.org/1999/xhtml\"><table class=\"hl7__eu__lab__report\"><tr><th>Test</th><th>21-May-2016</th><th>Reference&#xA0;Range</th><th>Unit</th></tr><tr><td>Glucose [Mass/volume] in Urine by Test strip</td><td>0.6</td><td>0.8 - 0</td><td>L</td><td>mg/dL</td></tr></table></div>"
        },
        "status": "final",
        "subject": {
          "reference": "urn:uuid:47568042-ced3-43bf-b4f3-9d6c009f327b",
          "display": "Maria Nohlmans"
        },
        "effectiveDateTime": "2016-05-21T18:56:39Z",
        "specimen": {
          "reference": "urn:uuid:d62b6cd2-3d54-427e-9c28-0edc7cdc5fa4"
        }
      }
    },
    {
      "fullUrl": "urn:uuid:fd5e6611-617c-4de1-96c3-ab58caaf98f0",
      "resource": {
        "resourceType": "Observation",
        "id": "fd5e6611-617c-4de1-96c3-ab58caaf98f0",
        "meta": {
          "profile": [
            "http://hl7.eu/fhir/laboratory/StructureDefinition/Observation-resultslab-eu-lab"
          ]
        },
        "performer": [
          {
            "display": "The Central European Lab"
          }
        ],
        "category": [
          {
            "coding": [
              {
                "system": "http://terminology.hl7.org/CodeSystem/observation-category",
                "code": "laboratory"
              }
            ]
          }
        ],
        "code": {
          "coding": [
            {
              "code": "25428-4",
              "system": "http://loinc.org",
              "display": "Glucose [Presence] in Urine by Test strip"
            }
          ],
          "text": "Glucose [Presence] in Urine by Test strip"
        },
        "text": {
          "status": "generated",
          "div": "<div xmlns=\"http://www.w3.org/1999/xhtml\"><table class=\"hl7__eu__lab__report\"><tr><th>Test</th><th>21-May-2016</th><th>Reference&#xA0;Range</th><th>Unit</th></tr><tr><td>Glucose [Presence] in Urine by Test strip</td></tr></table></div>"
        },
        "status": "final",
        "subject": {
          "reference": "urn:uuid:47568042-ced3-43bf-b4f3-9d6c009f327b",
          "display": "Maria Nohlmans"
        },
        "effectiveDateTime": "2016-05-21T18:56:39Z",
        "specimen": {
          "reference": "urn:uuid:d62b6cd2-3d54-427e-9c28-0edc7cdc5fa4"
        }
      }
    },
    {
      "fullUrl": "urn:uuid:1a8a26eb-812f-4b48-b8fd-e7188b3f4a5f",
      "resource": {
        "resourceType": "Observation",
        "id": "1a8a26eb-812f-4b48-b8fd-e7188b3f4a5f",
        "meta": {
          "profile": [
            "http://hl7.eu/fhir/laboratory/StructureDefinition/Observation-resultslab-eu-lab"
          ]
        },
        "performer": [
          {
            "display": "The Central European Lab"
          }
        ],
        "category": [
          {
            "coding": [
              {
                "system": "http://terminology.hl7.org/CodeSystem/observation-category",
                "code": "laboratory"
              }
            ]
          }
        ],
        "code": {
          "coding": [
            {
              "code": "20505-4",
              "system": "http://loinc.org",
              "display": "Bilirubin.total [Mass/volume] in Urine by Test strip"
            }
          ],
          "text": "Bilirubin.total [Mass/volume] in Urine by Test strip"
        },
        "valueQuantity": {
          "system": "http://unitsofmeasure.org",
          "value": 0.6,
          "unit": "mg/dL",
          "code": "mg/dL"
        },
        "referenceRange": [
          {
            "low": {
              "value": 0,
              "code": "mg/dL",
              "system": "http://unitsofmeasure.org"
            }
          },
          {
            "high": {
              "value": 1.5,
              "code": "mg/dL",
              "system": "http://unitsofmeasure.org"
            }
          }
        ],
        "text": {
          "status": "generated",
          "div": "<div xmlns=\"http://www.w3.org/1999/xhtml\"><table class=\"hl7__eu__lab__report\"><tr><th>Test</th><th>21-May-2016</th><th>Reference&#xA0;Range</th><th>Unit</th></tr><tr><td>Bilirubin.total [Mass/volume] in Urine by Test strip</td><td>0.6</td><td>0 - 1.5</td><td></td><td>mg/dL</td></tr></table></div>"
        },
        "status": "final",
        "subject": {
          "reference": "urn:uuid:47568042-ced3-43bf-b4f3-9d6c009f327b",
          "display": "Maria Nohlmans"
        },
        "effectiveDateTime": "2016-05-21T18:56:39Z",
        "specimen": {
          "reference": "urn:uuid:d62b6cd2-3d54-427e-9c28-0edc7cdc5fa4"
        }
      }
    },
    {
      "fullUrl": "urn:uuid:284ec17d-bf0b-47f3-acf6-8f7ddb55c8f7",
      "resource": {
        "resourceType": "Observation",
        "id": "284ec17d-bf0b-47f3-acf6-8f7ddb55c8f7",
        "meta": {
          "profile": [
            "http://hl7.eu/fhir/laboratory/StructureDefinition/Observation-resultslab-eu-lab"
          ]
        },
        "performer": [
          {
            "display": "The Central European Lab"
          }
        ],
        "category": [
          {
            "coding": [
              {
                "system": "http://terminology.hl7.org/CodeSystem/observation-category",
                "code": "laboratory"
              }
            ]
          }
        ],
        "code": {
          "coding": [
            {
              "code": "5770-3",
              "system": "http://loinc.org",
              "display": "Bilirubin.total [Presence] in Urine by Test strip"
            }
          ],
          "text": "Bilirubin.total [Presence] in Urine by Test strip"
        },
        "text": {
          "status": "generated",
          "div": "<div xmlns=\"http://www.w3.org/1999/xhtml\"><table class=\"hl7__eu__lab__report\"><tr><th>Test</th><th>21-May-2016</th><th>Reference&#xA0;Range</th><th>Unit</th></tr><tr><td>Bilirubin.total [Presence] in Urine by Test strip</td></tr></table></div>"
        },
        "status": "final",
        "subject": {
          "reference": "urn:uuid:47568042-ced3-43bf-b4f3-9d6c009f327b",
          "display": "Maria Nohlmans"
        },
        "effectiveDateTime": "2016-05-21T18:56:39Z",
        "specimen": {
          "reference": "urn:uuid:d62b6cd2-3d54-427e-9c28-0edc7cdc5fa4"
        }
      }
    },
    {
      "fullUrl": "urn:uuid:f7b23fd1-db5e-4e3e-b542-db802ec17bec",
      "resource": {
        "resourceType": "Observation",
        "id": "f7b23fd1-db5e-4e3e-b542-db802ec17bec",
        "meta": {
          "profile": [
            "http://hl7.eu/fhir/laboratory/StructureDefinition/Observation-resultslab-eu-lab"
          ]
        },
        "performer": [
          {
            "display": "The Central European Lab"
          }
        ],
        "category": [
          {
            "coding": [
              {
                "system": "http://terminology.hl7.org/CodeSystem/observation-category",
                "code": "laboratory"
              }
            ]
          }
        ],
        "code": {
          "coding": [
            {
              "code": "5797-6",
              "system": "http://loinc.org",
              "display": "Ketones [Mass/volume] in Urine by Test strip"
            }
          ],
          "text": "Ketones [Mass/volume] in Urine by Test strip"
        },
        "valueQuantity": {
          "system": "http://unitsofmeasure.org",
          "value": 3,
          "unit": "mg/dL",
          "code": "mg/dL"
        },
        "referenceRange": [
          {
            "low": {
              "value": 0,
              "code": "mg/dL",
              "system": "http://unitsofmeasure.org"
            }
          },
          {
            "high": {
              "value": 8,
              "code": "mg/dL",
              "system": "http://unitsofmeasure.org"
            }
          }
        ],
        "text": {
          "status": "generated",
          "div": "<div xmlns=\"http://www.w3.org/1999/xhtml\"><table class=\"hl7__eu__lab__report\"><tr><th>Test</th><th>21-May-2016</th><th>Reference&#xA0;Range</th><th>Unit</th></tr><tr><td>Ketones [Mass/volume] in Urine by Test strip</td><td>3.0</td><td>0 - 8</td><td></td><td>mg/dL</td></tr></table></div>"
        },
        "status": "final",
        "subject": {
          "reference": "urn:uuid:47568042-ced3-43bf-b4f3-9d6c009f327b",
          "display": "Maria Nohlmans"
        },
        "effectiveDateTime": "2016-05-21T18:56:39Z",
        "specimen": {
          "reference": "urn:uuid:d62b6cd2-3d54-427e-9c28-0edc7cdc5fa4"
        }
      }
    },
    {
      "fullUrl": "urn:uuid:fc2ccf0c-785d-4ffc-8dda-e47714244490",
      "resource": {
        "resourceType": "Observation",
        "id": "fc2ccf0c-785d-4ffc-8dda-e47714244490",
        "meta": {
          "profile": [
            "http://hl7.eu/fhir/laboratory/StructureDefinition/Observation-resultslab-eu-lab"
          ]
        },
        "performer": [
          {
            "display": "The Central European Lab"
          }
        ],
        "category": [
          {
            "coding": [
              {
                "system": "http://terminology.hl7.org/CodeSystem/observation-category",
                "code": "laboratory"
              }
            ]
          }
        ],
        "code": {
          "coding": [
            {
              "code": "2514-8",
              "system": "http://loinc.org",
              "display": "Ketones [Presence] in Urine by Test strip"
            }
          ],
          "text": "Ketones [Presence] in Urine by Test strip"
        },
        "text": {
          "status": "generated",
          "div": "<div xmlns=\"http://www.w3.org/1999/xhtml\"><table class=\"hl7__eu__lab__report\"><tr><th>Test</th><th>21-May-2016</th><th>Reference&#xA0;Range</th><th>Unit</th></tr><tr><td>Ketones [Presence] in Urine by Test strip</td></tr></table></div>"
        },
        "status": "final",
        "subject": {
          "reference": "urn:uuid:47568042-ced3-43bf-b4f3-9d6c009f327b",
          "display": "Maria Nohlmans"
        },
        "effectiveDateTime": "2016-05-21T18:56:39Z",
        "specimen": {
          "reference": "urn:uuid:d62b6cd2-3d54-427e-9c28-0edc7cdc5fa4"
        }
      }
    },
    {
      "fullUrl": "urn:uuid:ac20fd35-18a6-4359-b072-7d0fcb4491d0",
      "resource": {
        "resourceType": "Observation",
        "id": "ac20fd35-18a6-4359-b072-7d0fcb4491d0",
        "meta": {
          "profile": [
            "http://hl7.eu/fhir/laboratory/StructureDefinition/Observation-resultslab-eu-lab"
          ]
        },
        "performer": [
          {
            "display": "The Central European Lab"
          }
        ],
        "category": [
          {
            "coding": [
              {
                "system": "http://terminology.hl7.org/CodeSystem/observation-category",
                "code": "laboratory"
              }
            ]
          }
        ],
        "code": {
          "coding": [
            {
              "code": "5811-5",
              "system": "http://loinc.org",
              "display": "Specific gravity of Urine by Test strip"
            }
          ],
          "text": "Specific gravity of Urine by Test strip"
        },
        "valueQuantity": {
          "system": "http://unitsofmeasure.org",
          "value": 1,
          "unit": "{nominal}",
          "code": "{nominal}"
        },
        "referenceRange": [
          {
            "low": {
              "value": 1.01,
              "code": "g/mL",
              "system": "http://unitsofmeasure.org"
            }
          },
          {
            "high": {
              "value": 1.03,
              "code": "g/mL",
              "system": "http://unitsofmeasure.org"
            }
          }
        ],
        "interpretation": [
          {
            "coding": [
              {
                "code": "L",
                "system": "http://terminology.hl7.org/CodeSystem/v3-ObservationInterpretation",
                "display": "Low"
              }
            ]
          }
        ],
        "text": {
          "status": "generated",
          "div": "<div xmlns=\"http://www.w3.org/1999/xhtml\"><table class=\"hl7__eu__lab__report\"><tr><th>Test</th><th>21-May-2016</th><th>Reference&#xA0;Range</th><th>Unit</th></tr><tr><td>Specific gravity of Urine by Test strip</td><td>1.0</td><td>1.01 - 1.03</td><td>L</td><td>{nominal}</td></tr></table></div>"
        },
        "status": "final",
        "subject": {
          "reference": "urn:uuid:47568042-ced3-43bf-b4f3-9d6c009f327b",
          "display": "Maria Nohlmans"
        },
        "effectiveDateTime": "2016-05-21T18:56:39Z",
        "specimen": {
          "reference": "urn:uuid:d62b6cd2-3d54-427e-9c28-0edc7cdc5fa4"
        }
      }
    },
    {
      "fullUrl": "urn:uuid:f9b51544-6369-4e76-8355-2ca9b3c79b8d",
      "resource": {
        "resourceType": "Observation",
        "id": "f9b51544-6369-4e76-8355-2ca9b3c79b8d",
        "meta": {
          "profile": [
            "http://hl7.eu/fhir/laboratory/StructureDefinition/Observation-resultslab-eu-lab"
          ]
        },
        "performer": [
          {
            "display": "The Central European Lab"
          }
        ],
        "category": [
          {
            "coding": [
              {
                "system": "http://terminology.hl7.org/CodeSystem/observation-category",
                "code": "laboratory"
              }
            ]
          }
        ],
        "code": {
          "coding": [
            {
              "code": "5803-2",
              "system": "http://loinc.org",
              "display": "pH of Urine by Test strip"
            }
          ],
          "text": "pH of Urine by Test strip"
        },
        "valueQuantity": {
          "system": "http://unitsofmeasure.org",
          "value": 6.2,
          "unit": "pH",
          "code": "pH"
        },
        "referenceRange": [
          {
            "low": {
              "value": 4.6,
              "code": "pH",
              "system": "http://unitsofmeasure.org"
            }
          },
          {
            "high": {
              "value": 7.5,
              "code": "pH",
              "system": "http://unitsofmeasure.org"
            }
          }
        ],
        "text": {
          "status": "generated",
          "div": "<div xmlns=\"http://www.w3.org/1999/xhtml\"><table class=\"hl7__eu__lab__report\"><tr><th>Test</th><th>21-May-2016</th><th>Reference&#xA0;Range</th><th>Unit</th></tr><tr><td>pH of Urine by Test strip</td><td>6.2</td><td>4.6 - 7.5</td><td></td><td>pH</td></tr></table></div>"
        },
        "status": "final",
        "subject": {
          "reference": "urn:uuid:47568042-ced3-43bf-b4f3-9d6c009f327b",
          "display": "Maria Nohlmans"
        },
        "effectiveDateTime": "2016-05-21T18:56:39Z",
        "specimen": {
          "reference": "urn:uuid:d62b6cd2-3d54-427e-9c28-0edc7cdc5fa4"
        }
      }
    },
    {
      "fullUrl": "urn:uuid:af290904-c9fc-49a1-85ec-e31a8c08a0b2",
      "resource": {
        "resourceType": "Observation",
        "id": "af290904-c9fc-49a1-85ec-e31a8c08a0b2",
        "meta": {
          "profile": [
            "http://hl7.eu/fhir/laboratory/StructureDefinition/Observation-resultslab-eu-lab"
          ]
        },
        "performer": [
          {
            "display": "The Central European Lab"
          }
        ],
        "category": [
          {
            "coding": [
              {
                "system": "http://terminology.hl7.org/CodeSystem/observation-category",
                "code": "laboratory"
              }
            ]
          }
        ],
        "code": {
          "coding": [
            {
              "code": "5804-0",
              "system": "http://loinc.org",
              "display": "Protein [Mass/volume] in Urine by Test strip"
            }
          ],
          "text": "Protein [Mass/volume] in Urine by Test strip"
        },
        "valueQuantity": {
          "system": "http://unitsofmeasure.org",
          "value": 437.2,
          "unit": "mg/dL",
          "code": "mg/dL"
        },
        "referenceRange": [
          {
            "low": {
              "value": 0,
              "code": "mg/dL",
              "system": "http://unitsofmeasure.org"
            }
          },
          {
            "high": {
              "value": 14,
              "code": "mg/dL",
              "system": "http://unitsofmeasure.org"
            }
          }
        ],
        "interpretation": [
          {
            "coding": [
              {
                "code": "H",
                "system": "http://terminology.hl7.org/CodeSystem/v3-ObservationInterpretation",
                "display": "High"
              }
            ]
          }
        ],
        "text": {
          "status": "generated",
          "div": "<div xmlns=\"http://www.w3.org/1999/xhtml\"><table class=\"hl7__eu__lab__report\"><tr><th>Test</th><th>21-May-2016</th><th>Reference&#xA0;Range</th><th>Unit</th></tr><tr><td>Protein [Mass/volume] in Urine by Test strip</td><td>437.2</td><td>0 - 14</td><td>H</td><td>mg/dL</td></tr></table></div>"
        },
        "status": "final",
        "subject": {
          "reference": "urn:uuid:47568042-ced3-43bf-b4f3-9d6c009f327b",
          "display": "Maria Nohlmans"
        },
        "effectiveDateTime": "2016-05-21T18:56:39Z",
        "specimen": {
          "reference": "urn:uuid:d62b6cd2-3d54-427e-9c28-0edc7cdc5fa4"
        }
      }
    },
    {
      "fullUrl": "urn:uuid:1b6b15d1-95ec-4674-af5a-b718619e15ca",
      "resource": {
        "resourceType": "Observation",
        "id": "1b6b15d1-95ec-4674-af5a-b718619e15ca",
        "meta": {
          "profile": [
            "http://hl7.eu/fhir/laboratory/StructureDefinition/Observation-resultslab-eu-lab"
          ]
        },
        "performer": [
          {
            "display": "The Central European Lab"
          }
        ],
        "category": [
          {
            "coding": [
              {
                "system": "http://terminology.hl7.org/CodeSystem/observation-category",
                "code": "laboratory"
              }
            ]
          }
        ],
        "code": {
          "coding": [
            {
              "code": "20454-5",
              "system": "http://loinc.org",
              "display": "Protein [Presence] in Urine by Test strip"
            }
          ],
          "text": "Protein [Presence] in Urine by Test strip"
        },
        "text": {
          "status": "generated",
          "div": "<div xmlns=\"http://www.w3.org/1999/xhtml\"><table class=\"hl7__eu__lab__report\"><tr><th>Test</th><th>21-May-2016</th><th>Reference&#xA0;Range</th><th>Unit</th></tr><tr><td>Protein [Presence] in Urine by Test strip</td></tr></table></div>"
        },
        "status": "final",
        "subject": {
          "reference": "urn:uuid:47568042-ced3-43bf-b4f3-9d6c009f327b",
          "display": "Maria Nohlmans"
        },
        "effectiveDateTime": "2016-05-21T18:56:39Z",
        "specimen": {
          "reference": "urn:uuid:d62b6cd2-3d54-427e-9c28-0edc7cdc5fa4"
        }
      }
    },
    {
      "fullUrl": "urn:uuid:d78ca023-0f03-4dc9-8ea6-b06f5c0eff7f",
      "resource": {
        "resourceType": "Observation",
        "id": "d78ca023-0f03-4dc9-8ea6-b06f5c0eff7f",
        "meta": {
          "profile": [
            "http://hl7.eu/fhir/laboratory/StructureDefinition/Observation-resultslab-eu-lab"
          ]
        },
        "performer": [
          {
            "display": "The Central European Lab"
          }
        ],
        "category": [
          {
            "coding": [
              {
                "system": "http://terminology.hl7.org/CodeSystem/observation-category",
                "code": "laboratory"
              }
            ]
          }
        ],
        "code": {
          "coding": [
            {
              "code": "5802-4",
              "system": "http://loinc.org",
              "display": "Nitrite [Presence] in Urine by Test strip"
            }
          ],
          "text": "Nitrite [Presence] in Urine by Test strip"
        },
        "text": {
          "status": "generated",
          "div": "<div xmlns=\"http://www.w3.org/1999/xhtml\"><table class=\"hl7__eu__lab__report\"><tr><th>Test</th><th>21-May-2016</th><th>Reference&#xA0;Range</th><th>Unit</th></tr><tr><td>Nitrite [Presence] in Urine by Test strip</td></tr></table></div>"
        },
        "status": "final",
        "subject": {
          "reference": "urn:uuid:47568042-ced3-43bf-b4f3-9d6c009f327b",
          "display": "Maria Nohlmans"
        },
        "effectiveDateTime": "2016-05-21T18:56:39Z",
        "specimen": {
          "reference": "urn:uuid:d62b6cd2-3d54-427e-9c28-0edc7cdc5fa4"
        }
      }
    },
    {
      "fullUrl": "urn:uuid:df98a396-4529-4e9e-9499-08e7846e8609",
      "resource": {
        "resourceType": "Observation",
        "id": "df98a396-4529-4e9e-9499-08e7846e8609",
        "meta": {
          "profile": [
            "http://hl7.eu/fhir/laboratory/StructureDefinition/Observation-resultslab-eu-lab"
          ]
        },
        "performer": [
          {
            "display": "The Central European Lab"
          }
        ],
        "category": [
          {
            "coding": [
              {
                "system": "http://terminology.hl7.org/CodeSystem/observation-category",
                "code": "laboratory"
              }
            ]
          }
        ],
        "code": {
          "coding": [
            {
              "code": "5794-3",
              "system": "http://loinc.org",
              "display": "Hemoglobin [Presence] in Urine by Test strip"
            }
          ],
          "text": "Hemoglobin [Presence] in Urine by Test strip"
        },
        "text": {
          "status": "generated",
          "div": "<div xmlns=\"http://www.w3.org/1999/xhtml\"><table class=\"hl7__eu__lab__report\"><tr><th>Test</th><th>21-May-2016</th><th>Reference&#xA0;Range</th><th>Unit</th></tr><tr><td>Hemoglobin [Presence] in Urine by Test strip</td></tr></table></div>"
        },
        "status": "final",
        "subject": {
          "reference": "urn:uuid:47568042-ced3-43bf-b4f3-9d6c009f327b",
          "display": "Maria Nohlmans"
        },
        "effectiveDateTime": "2016-05-21T18:56:39Z",
        "specimen": {
          "reference": "urn:uuid:d62b6cd2-3d54-427e-9c28-0edc7cdc5fa4"
        }
      }
    },
    {
      "fullUrl": "urn:uuid:6cd589e0-2e83-43c5-a4b2-06a908fbb9d7",
      "resource": {
        "resourceType": "Observation",
        "id": "6cd589e0-2e83-43c5-a4b2-06a908fbb9d7",
        "meta": {
          "profile": [
            "http://hl7.eu/fhir/laboratory/StructureDefinition/Observation-resultslab-eu-lab"
          ]
        },
        "performer": [
          {
            "display": "The Central European Lab"
          }
        ],
        "category": [
          {
            "coding": [
              {
                "system": "http://terminology.hl7.org/CodeSystem/observation-category",
                "code": "laboratory"
              }
            ]
          }
        ],
        "code": {
          "coding": [
            {
              "code": "5799-2",
              "system": "http://loinc.org",
              "display": "Leukocyte esterase [Presence] in Urine by Test strip"
            }
          ],
          "text": "Leukocyte esterase [Presence] in Urine by Test strip"
        },
        "text": {
          "status": "generated",
          "div": "<div xmlns=\"http://www.w3.org/1999/xhtml\"><table class=\"hl7__eu__lab__report\"><tr><th>Test</th><th>21-May-2016</th><th>Reference&#xA0;Range</th><th>Unit</th></tr><tr><td>Leukocyte esterase [Presence] in Urine by Test strip</td></tr></table></div>"
        },
        "status": "final",
        "subject": {
          "reference": "urn:uuid:47568042-ced3-43bf-b4f3-9d6c009f327b",
          "display": "Maria Nohlmans"
        },
        "effectiveDateTime": "2016-05-21T18:56:39Z",
        "specimen": {
          "reference": "urn:uuid:d62b6cd2-3d54-427e-9c28-0edc7cdc5fa4"
        }
      }
    },
    {
      "fullUrl": "urn:uuid:3f63b3cf-8a6f-4d53-8cdb-08a9da63a6a7",
      "resource": {
        "resourceType": "Device",
        "id": "3f63b3cf-8a6f-4d53-8cdb-08a9da63a6a7",
        "deviceName": [
          {
            "name": "SYNDERAI Synthetic Generator",
            "type": "manufacturer-name"
          }
        ],
        "version": [
          {
            "value": "5.0"
          }
        ],
        "text": {
          "status": "generated",
          "div": "<div xmlns=\"http://www.w3.org/1999/xhtml\">SYNDERAI Synthetic Generator v5.0</div>"
        },
        "status": "active\"",
        "distinctIdentifier": "synderai-generator-50",
        "manufacturer": "SYNDERAI Project"
      }
    },
    {
      "fullUrl": "urn:uuid:1b80cf8b-9fe0-49f9-94fb-853e9d81c7ea",
      "resource": {
        "resourceType": "Provenance",
        "id": "1b80cf8b-9fe0-49f9-94fb-853e9d81c7ea",
        "target": [
          {
            "reference": "Patient/47568042-ced3-43bf-b4f3-9d6c009f327b"
          },
          {
            "reference": "Bundle/9f0a7301-6a80-4eff-84c7-a140667be0cf"
          },
          {
            "reference": "Composition/0486ffbc-e697-4ce3-9eed-99190d2387c1"
          },
          {
            "reference": "PractitionerRole/d1fb721f-e8de-4e64-a084-0bce57e68ee8"
          },
          {
            "reference": "Practitioner/1dc35d63-49e4-4f49-aad5-a634b02bb7ae"
          },
          {
            "reference": "PractitionerRole/8b9a0575-dd93-43cb-a33d-c446ca75f52d"
          },
          {
            "reference": "Organization/0725e116-e0cc-4f05-942e-c5a6a6b1d192"
          }
        ],
        "activity": {
          "text": "Synthetic Example Data Generation"
        },
        "policy": [
          "https://synderai.net/synderai-synthetic-data-policy"
        ],
        "agent": [
          {
            "type": {
              "text": "author"
            },
            "who": {
              "reference": "Device/3f63b3cf-8a6f-4d53-8cdb-08a9da63a6a7"
            }
          }
        ],
        "reason": [
          {
            "text": "Interoperability Testing and Training (non-clinical use)"
          }
        ],
        "text": {
          "status": "generated",
          "div": "<div xmlns=\"http://www.w3.org/1999/xhtml\">Provenance for SYNDERAI Synthetic Example Data Resource</div>"
        },
        "recorded": "2016-05-21T20:56:39Z"
      }
    },
    {
      "fullUrl": "urn:uuid:d1fb721f-e8de-4e64-a084-0bce57e68ee8",
      "resource": {
        "resourceType": "PractitionerRole",
        "id": "d1fb721f-e8de-4e64-a084-0bce57e68ee8",
        "meta": {
          "profile": [
            "http://hl7.eu/fhir/base/StructureDefinition/practitionerRole-eu"
          ]
        },
        "text": {
          "status": "generated",
          "div": "<div xmlns=\"http://www.w3.org/1999/xhtml\">Laboratory Role Id: d1fb721f-e8de-4e64-a084-0bce57e68ee8</div>"
        },
        "practitioner": {
          "reference": "urn:uuid:1dc35d63-49e4-4f49-aad5-a634b02bb7ae"
        }
      }
    },
    {
      "fullUrl": "urn:uuid:1dc35d63-49e4-4f49-aad5-a634b02bb7ae",
      "resource": {
        "resourceType": "Practitioner",
        "id": "1dc35d63-49e4-4f49-aad5-a634b02bb7ae",
        "meta": {
          "profile": [
            "http://hl7.eu/fhir/base/StructureDefinition/practitioner-eu"
          ]
        },
        "identifier": [
          {
            "assigner": {
              "display": "HL7 Europe"
            },
            "system": "urn:oid:2.16.840.1.113883.2.51.999",
            "value": "a57467b5-5907-4879-8a7c-82d28da42e2e"
          }
        ],
        "name": [
          {
            "prefix": [
              "dr"
            ],
            "given": [
              "Ex"
            ],
            "family": "Ample"
          }
        ],
        "address": [
          {
            "line": [
              "Laboratoire Central Européenne",
              "Boulevard du Jardin Botanique 32"
            ],
            "postalCode": "1000",
            "city": "Brussels",
            "country": "Belgium"
          }
        ],
        "text": {
          "status": "generated",
          "div": "<div xmlns=\"http://www.w3.org/1999/xhtml\">Laboratory: Laboratoire Central Européenne, 1000 Brussels, Belgium</div>"
        }
      }
    }
  ],
  "type": "document",
  "timestamp": "2016-05-21T20:56:39Z"
}
