{
  "resourceType": "Bundle",
  "id": "bbce9f14-62d1-4a2e-8de1-dc0906d8e84c",
  "meta": {
    "profile": [
      "http://hl7.eu/fhir/laboratory/StructureDefinition/Bundle-eu-lab"
    ]
  },
  "identifier": {
    "assigner": {
      "display": "HL7 Europe"
    },
    "system": "urn:oid:2.16.840.1.113883.2.51.999",
    "value": "86c46686-1af5-418d-ac81-413ed768e53f"
  },
  "entry": [
    {
      "fullUrl": "urn:uuid:c5227abf-6fdc-4aab-98d5-7a92bbcbcae5",
      "resource": {
        "resourceType": "Composition",
        "id": "c5227abf-6fdc-4aab-98d5-7a92bbcbcae5",
        "meta": {
          "profile": [
            "http://hl7.eu/fhir/laboratory/StructureDefinition/Composition-eu-lab"
          ]
        },
        "identifier": {
          "assigner": {
            "display": "HL7 Europe"
          },
          "system": "urn:oid:2.16.840.1.113883.2.51.999",
          "value": "4ae27691-fb1b-4bca-9256-8db8cc733cfe"
        },
        "author": [
          {
            "reference": "urn:uuid:af3770e8-34f6-4373-bbf3-263d125cc6e1"
          }
        ],
        "category": [
          {
            "coding": [
              {
                "code": "26436-6",
                "system": "http://loinc.org",
                "display": "Laboratory studies (set)"
              }
            ]
          }
        ],
        "type": {
          "coding": [
            {
              "code": "11502-2",
              "system": "http://loinc.org",
              "display": "Laboratory report"
            }
          ],
          "text": "Laboratory Report"
        },
        "section": [
          {
            "code": {
              "coding": [
                {
                  "code": "26436-6",
                  "system": "http://loinc.org",
                  "display": "Laboratory studies (set)"
                }
              ],
              "text": "Laboratory studies"
            },
            "section": [
              {
                "code": {
                  "coding": [
                    {
                      "code": "$18719-5",
                      "system": "http://loinc.org",
                      "display": "Chemistry studies (set)"
                    }
                  ],
                  "text": "Chemistry"
                },
                "entry": [
                  {
                    "reference": "urn:uuid:d14db022-d7eb-43fb-bdf9-a7537de0a371"
                  }
                ],
                "text": {
                  "status": "generated",
                  "div": "<div xmlns=\"http://www.w3.org/1999/xhtml\"><h3>Chemistry</h3><table class=\"hl7__eu__lab__report\"><thead><tr><th>Test</th><th>02-NOV-2021</th><th>Reference&#xA0;Range</th><th>Unit</th></tr></thead><tbody><tr><td>Choriogonadotropin (pregnancy test) [Presence] in Urine</td><td>Negative</td><td></td><td></td></tr></tbody></table></div>"
                },
                "title": "Chemistry"
              }
            ],
            "title": "Laboratory Report"
          },
          {
            "text": {
              "status": "generated",
              "div": "<div xmlns=\"http://www.w3.org/1999/xhtml\"><h3>Annotation</h3><table class=\"hl7__eu__lab__report\"><tr><th>Conclusion and Recommendations based on this report and previous findings known to us</th></tr><tr><td>Choriogonadotropin (pregnancy test) is negative, which is expected in a 45-year-old male. No abnormalities detected from the provided laboratory result.</td></tr></table></div>"
            },
            "code": {
              "coding": [
                {
                  "system": "http://loinc.org",
                  "code": "48767-8",
                  "display": "Annotation comment"
                }
              ]
            },
            "title": "Annotation comment"
          }
        ],
        "status": "final",
        "subject": {
          "reference": "urn:uuid:62bbd8bb-1972-41b8-96de-3c2523e3fe08",
          "display": "Russell Khan"
        },
        "date": "2021-11-02T07:12:15Z",
        "title": "Laboratory Report",
        "confidentiality": "N"
      }
    },
    {
      "fullUrl": "urn:uuid:369847e5-52a8-472f-bb19-ba0dbe4510f1",
      "resource": {
        "resourceType": "DiagnosticReport",
        "id": "369847e5-52a8-472f-bb19-ba0dbe4510f1",
        "meta": {
          "profile": [
            "http://hl7.eu/fhir/laboratory/StructureDefinition/DiagnosticReport-eu-lab"
          ]
        },
        "identifier": [
          {
            "assigner": {
              "display": "HL7 Europe"
            },
            "system": "urn:oid:2.16.840.1.113883.2.51.999",
            "value": "a907b7d4-ae46-425e-a9a7-b963686a2c7c"
          }
        ],
        "extension": [
          {
            "url": "http://hl7.org/fhir/5.0/StructureDefinition/extension-DiagnosticReport.composition",
            "valueReference": {
              "reference": "urn:uuid:4ae27691-fb1b-4bca-9256-8db8cc733cfe"
            }
          }
        ],
        "category": [
          {
            "coding": [
              {
                "code": "26436-6",
                "system": "http://loinc.org",
                "display": "Laboratory studies (set)"
              }
            ]
          }
        ],
        "specimen": [
          {
            "reference": "urn:uuid:4b3f0fbf-2fb2-42be-895a-872ddefe63c7"
          }
        ],
        "result": [
          {
            "reference": "urn:uuid:d14db022-d7eb-43fb-bdf9-a7537de0a371"
          }
        ],
        "status": "registered",
        "code": {
          "coding": [
            {
              "code": "11502-2",
              "system": "http://loinc.org",
              "display": "Laboratory report"
            }
          ]
        },
        "subject": {
          "reference": "urn:uuid:62bbd8bb-1972-41b8-96de-3c2523e3fe08",
          "display": "Russell Khan"
        }
      }
    },
    {
      "fullUrl": "urn:uuid:62bbd8bb-1972-41b8-96de-3c2523e3fe08",
      "resource": {
        "resourceType": "Patient",
        "id": "62bbd8bb-1972-41b8-96de-3c2523e3fe08",
        "meta": {
          "security": [
            {
              "system": "http://terminology.hl7.org/CodeSystem/v3-ActReason",
              "code": "HTEST"
            },
            {
              "system": "http://terminology.hl7.org/CodeSystem/v3-ActReason",
              "code": "TRAIN"
            }
          ],
          "tag": [
            {
              "system": "https://synderai.net/fhir/CodeSystem/tags",
              "code": "synthetic",
              "display": "SYNDERAI Synthetic data"
            }
          ],
          "profile": [
            "http://hl7.eu/fhir/base/StructureDefinition/patient-eu-core"
          ]
        },
        "identifier": [
          {
            "type": {
              "coding": [
                {
                  "code": "PT",
                  "system": "http://terminology.hl7.org/CodeSystem/v2-0203"
                }
              ]
            },
            "system": "http://ec.europa.eu/identifier/eci",
            "value": "7982-255119-2"
          },
          {
            "type": {
              "coding": [
                {
                  "code": "MR",
                  "system": "http://terminology.hl7.org/CodeSystem/v2-0203"
                }
              ]
            },
            "system": "http://local.setting.eu/identifier",
            "value": "7070b0e2-4aa2-c981-d552-92289a13285c"
          }
        ],
        "name": [
          {
            "family": "Khan"
          },
          {
            "given": [
              "Russell"
            ]
          },
          {
            "text": "Russell Khan"
          }
        ],
        "address": [
          {
            "line": [
              "1 Holly well"
            ],
            "use": "home",
            "type": "physical",
            "postalCode": "B9",
            "city": "Allantown",
            "country": "United Kingdom"
          }
        ],
        "telecom": [
          {
            "system": "phone",
            "value": "0115 4960345"
          }
        ],
        "extension": [
          {
            "url": "http://hl7.org/fhir/StructureDefinition/patient-nationality",
            "valueCodeableConcept": {
              "coding": [
                {
                  "code": "GB",
                  "system": "http://hl7.org/fhir/ValueSet/country"
                }
              ]
            }
          }
        ],
        "text": {
          "status": "generated",
          "div": "<div xmlns=\"http://www.w3.org/1999/xhtml\"><table class=\"hl7__ips\"><tr><td>Russell Khan</td><td>male</td><td>29-Aug-1980</td></tr></table></div>"
        },
        "gender": "male",
        "birthDate": "1980-08-29"
      }
    },
    {
      "fullUrl": "urn:uuid:64f3e77d-72f3-4bcc-8eb4-c70119f0bd03",
      "resource": {
        "resourceType": "ServiceRequest",
        "id": "64f3e77d-72f3-4bcc-8eb4-c70119f0bd03",
        "meta": {
          "profile": [
            "http://hl7.eu/fhir/laboratory/StructureDefinition/ServiceRequest-eu-lab"
          ]
        },
        "identifier": [
          {
            "system": "http://example.org",
            "value": "6b5874fe-771e-47a0-aa22-167b78aa3d19"
          }
        ],
        "specimen": [
          {
            "reference": "urn:uuid:4b3f0fbf-2fb2-42be-895a-872ddefe63c7"
          }
        ],
        "reasonCode": [
          {
            "coding": [
              {
                "code": "59621000",
                "system": "http://snomed.info/sct",
                "display": "Essential hypertension"
              }
            ]
          }
        ],
        "status": "active",
        "intent": "order",
        "code": {
          "coding": [
            {
              "code": "108252007",
              "system": "http://snomed.info/sct",
              "display": "Laboratory procedure"
            }
          ]
        },
        "subject": {
          "reference": "urn:uuid:62bbd8bb-1972-41b8-96de-3c2523e3fe08",
          "display": "Russell Khan"
        },
        "requester": {
          "reference": "urn:uuid:bb288fb2-ddd5-4c2d-afda-c141040867fe"
        }
      }
    },
    {
      "fullUrl": "urn:uuid:bb288fb2-ddd5-4c2d-afda-c141040867fe",
      "resource": {
        "resourceType": "PractitionerRole",
        "id": "bb288fb2-ddd5-4c2d-afda-c141040867fe",
        "meta": {
          "profile": [
            "http://hl7.eu/fhir/base/StructureDefinition/practitionerRole-eu"
          ]
        },
        "text": {
          "status": "generated",
          "div": "<div xmlns=\"http://www.w3.org/1999/xhtml\">Provider Role Id: bb288fb2-ddd5-4c2d-afda-c141040867fe</div>"
        },
        "organization": {
          "reference": "urn:uuid:3fa68245-d494-4410-986b-9e154e91be41"
        }
      }
    },
    {
      "fullUrl": "urn:uuid:3fa68245-d494-4410-986b-9e154e91be41",
      "resource": {
        "resourceType": "Organization",
        "id": "3fa68245-d494-4410-986b-9e154e91be41",
        "meta": {
          "profile": [
            "http://hl7.eu/fhir/base/StructureDefinition/organization-eu"
          ]
        },
        "identifier": [
          {
            "assigner": {
              "display": "HL7 Europe"
            },
            "system": "urn:oid:2.16.840.1.113883.2.51.999",
            "value": "d381934b-4002-449b-b0e3-7f19585eb9ef"
          }
        ],
        "address": [
          {
            "city": "Birmingham",
            "postalCode": "B4 6",
            "country": "United Kingdom"
          }
        ],
        "text": {
          "status": "generated",
          "div": "<div xmlns=\"http://www.w3.org/1999/xhtml\">Provider Organization: Birmingham Children&#039;s Hospital</div>"
        },
        "name": "Birmingham Children&#039;s Hospital"
      }
    },
    {
      "fullUrl": "urn:uuid:4b3f0fbf-2fb2-42be-895a-872ddefe63c7",
      "resource": {
        "resourceType": "Specimen",
        "id": "4b3f0fbf-2fb2-42be-895a-872ddefe63c7",
        "meta": {
          "profile": [
            "http://hl7.eu/fhir/laboratory/StructureDefinition/Specimen-eu-lab"
          ]
        },
        "collection": {
          "collectedDateTime": "2021-11-02"
        },
        "text": {
          "status": "generated",
          "div": "<div xmlns=\"http://www.w3.org/1999/xhtml\"><table class=\"hl7__eu__lab__report\"><tr><th>Specimen</th><th>Collection Date</th></tr><tr><td>Urine specimen</td><td><span class=\"nb\">02-Nov-2021</span></td></tr></table></div>"
        },
        "type": {
          "coding": [
            {
              "code": "122575003",
              "system": "http://snomed.info/sct",
              "display": "Urine specimen"
            }
          ]
        }
      }
    },
    {
      "fullUrl": "urn:uuid:d14db022-d7eb-43fb-bdf9-a7537de0a371",
      "resource": {
        "resourceType": "Observation",
        "id": "d14db022-d7eb-43fb-bdf9-a7537de0a371",
        "meta": {
          "profile": [
            "http://hl7.eu/fhir/laboratory/StructureDefinition/Observation-resultslab-eu-lab"
          ]
        },
        "performer": [
          {
            "display": "The Central European Lab"
          }
        ],
        "category": [
          {
            "coding": [
              {
                "system": "http://terminology.hl7.org/CodeSystem/observation-category",
                "code": "laboratory"
              }
            ]
          }
        ],
        "code": {
          "coding": [
            {
              "code": "2106-3",
              "system": "http://loinc.org",
              "display": "Choriogonadotropin (pregnancy test) [Presence] in Urine"
            }
          ],
          "text": "Choriogonadotropin (pregnancy test) [Presence] in Urine"
        },
        "text": {
          "status": "generated",
          "div": "<div xmlns=\"http://www.w3.org/1999/xhtml\"><table class=\"hl7__eu__lab__report\"><tr><th>Test</th><th>02-Nov-2021</th><th>Reference&#xA0;Range</th><th>Unit</th></tr><tr><td>Choriogonadotropin (pregnancy test) [Presence] in Urine</td></tr></table></div>"
        },
        "status": "final",
        "subject": {
          "reference": "urn:uuid:62bbd8bb-1972-41b8-96de-3c2523e3fe08",
          "display": "Russell Khan"
        },
        "effectiveDateTime": "2021-11-02T06:12:15Z",
        "specimen": {
          "reference": "urn:uuid:4b3f0fbf-2fb2-42be-895a-872ddefe63c7"
        }
      }
    },
    {
      "fullUrl": "urn:uuid:78e76e6c-f29f-44db-a497-5bc063ef35a8",
      "resource": {
        "resourceType": "Device",
        "id": "78e76e6c-f29f-44db-a497-5bc063ef35a8",
        "deviceName": [
          {
            "name": "SYNDERAI Synthetic Generator",
            "type": "manufacturer-name"
          }
        ],
        "version": [
          {
            "value": "5.0"
          }
        ],
        "text": {
          "status": "generated",
          "div": "<div xmlns=\"http://www.w3.org/1999/xhtml\">SYNDERAI Synthetic Generator v5.0</div>"
        },
        "status": "active\"",
        "distinctIdentifier": "synderai-generator-50",
        "manufacturer": "SYNDERAI Project"
      }
    },
    {
      "fullUrl": "urn:uuid:53d6db36-0289-45a7-a30e-bd67a8c0e7a9",
      "resource": {
        "resourceType": "Provenance",
        "id": "53d6db36-0289-45a7-a30e-bd67a8c0e7a9",
        "target": [
          {
            "reference": "Patient/62bbd8bb-1972-41b8-96de-3c2523e3fe08"
          },
          {
            "reference": "Bundle/bbce9f14-62d1-4a2e-8de1-dc0906d8e84c"
          },
          {
            "reference": "Composition/c5227abf-6fdc-4aab-98d5-7a92bbcbcae5"
          },
          {
            "reference": "PractitionerRole/af3770e8-34f6-4373-bbf3-263d125cc6e1"
          },
          {
            "reference": "Practitioner/61ee2e2d-50ef-45c1-adc4-72154de6907d"
          },
          {
            "reference": "PractitionerRole/bb288fb2-ddd5-4c2d-afda-c141040867fe"
          },
          {
            "reference": "Organization/3fa68245-d494-4410-986b-9e154e91be41"
          }
        ],
        "activity": {
          "text": "Synthetic Example Data Generation"
        },
        "policy": [
          "https://synderai.net/synderai-synthetic-data-policy"
        ],
        "agent": [
          {
            "type": {
              "text": "author"
            },
            "who": {
              "reference": "Device/78e76e6c-f29f-44db-a497-5bc063ef35a8"
            }
          }
        ],
        "reason": [
          {
            "text": "Interoperability Testing and Training (non-clinical use)"
          }
        ],
        "text": {
          "status": "generated",
          "div": "<div xmlns=\"http://www.w3.org/1999/xhtml\">Provenance for SYNDERAI Synthetic Example Data Resource</div>"
        },
        "recorded": "2021-11-02T07:12:15Z"
      }
    },
    {
      "fullUrl": "urn:uuid:af3770e8-34f6-4373-bbf3-263d125cc6e1",
      "resource": {
        "resourceType": "PractitionerRole",
        "id": "af3770e8-34f6-4373-bbf3-263d125cc6e1",
        "meta": {
          "profile": [
            "http://hl7.eu/fhir/base/StructureDefinition/practitionerRole-eu"
          ]
        },
        "text": {
          "status": "generated",
          "div": "<div xmlns=\"http://www.w3.org/1999/xhtml\">Laboratory Role Id: af3770e8-34f6-4373-bbf3-263d125cc6e1</div>"
        },
        "practitioner": {
          "reference": "urn:uuid:61ee2e2d-50ef-45c1-adc4-72154de6907d"
        }
      }
    },
    {
      "fullUrl": "urn:uuid:61ee2e2d-50ef-45c1-adc4-72154de6907d",
      "resource": {
        "resourceType": "Practitioner",
        "id": "61ee2e2d-50ef-45c1-adc4-72154de6907d",
        "meta": {
          "profile": [
            "http://hl7.eu/fhir/base/StructureDefinition/practitioner-eu"
          ]
        },
        "identifier": [
          {
            "assigner": {
              "display": "HL7 Europe"
            },
            "system": "urn:oid:2.16.840.1.113883.2.51.999",
            "value": "62dbc0a7-bbb2-4214-a492-a268a63e6cdb"
          }
        ],
        "name": [
          {
            "prefix": [
              "dr"
            ],
            "given": [
              "Ex"
            ],
            "family": "Ample"
          }
        ],
        "address": [
          {
            "line": [
              "Laboratoire Central Européenne",
              "Boulevard du Jardin Botanique 32"
            ],
            "postalCode": "1000",
            "city": "Brussels",
            "country": "Belgium"
          }
        ],
        "text": {
          "status": "generated",
          "div": "<div xmlns=\"http://www.w3.org/1999/xhtml\">Laboratory: Laboratoire Central Européenne, 1000 Brussels, Belgium</div>"
        }
      }
    }
  ],
  "type": "document",
  "timestamp": "2021-11-02T07:12:15Z"
}
