{
  "resourceType": "Bundle",
  "id": "c4e327bd-077d-4ea9-a89c-56960080a80a",
  "meta": {
    "profile": [
      "http://hl7.eu/fhir/laboratory/StructureDefinition/Bundle-eu-lab"
    ]
  },
  "identifier": {
    "assigner": {
      "display": "HL7 Europe"
    },
    "system": "urn:oid:2.16.840.1.113883.2.51.999",
    "value": "c01c0346-83da-48c9-8c9b-a86549f06b83"
  },
  "entry": [
    {
      "fullUrl": "urn:uuid:0ce5e378-a86a-4210-8778-5850f8c03148",
      "resource": {
        "resourceType": "Composition",
        "id": "0ce5e378-a86a-4210-8778-5850f8c03148",
        "meta": {
          "profile": [
            "http://hl7.eu/fhir/laboratory/StructureDefinition/Composition-eu-lab"
          ]
        },
        "identifier": {
          "assigner": {
            "display": "HL7 Europe"
          },
          "system": "urn:oid:2.16.840.1.113883.2.51.999",
          "value": "8ffdbdf1-f5d0-4d09-b1eb-afa1ac33708c"
        },
        "author": [
          {
            "reference": "urn:uuid:97f2e966-96ab-41ac-b242-0f27559564f2"
          }
        ],
        "category": [
          {
            "coding": [
              {
                "code": "26436-6",
                "system": "http://loinc.org",
                "display": "Laboratory studies (set)"
              }
            ]
          }
        ],
        "type": {
          "coding": [
            {
              "code": "11502-2",
              "system": "http://loinc.org",
              "display": "Laboratory report"
            }
          ],
          "text": "Laboratory Report"
        },
        "section": [
          {
            "code": {
              "coding": [
                {
                  "code": "26436-6",
                  "system": "http://loinc.org",
                  "display": "Laboratory studies (set)"
                }
              ],
              "text": "Laboratory studies"
            },
            "section": [
              {
                "code": {
                  "coding": [
                    {
                      "code": "$18719-5",
                      "system": "http://loinc.org",
                      "display": "Chemistry studies (set)"
                    }
                  ],
                  "text": "Chemistry"
                },
                "entry": [
                  {
                    "reference": "urn:uuid:c2424d8e-3e9c-4b34-b9cb-c1f5589a1779"
                  },
                  {
                    "reference": "urn:uuid:3984a120-22dc-4504-9708-49d2209f93fb"
                  },
                  {
                    "reference": "urn:uuid:bfb6c496-55cf-40dc-9305-bc19f8f5e428"
                  },
                  {
                    "reference": "urn:uuid:29fbb2fc-b79e-4c10-8cee-0e144cc69175"
                  },
                  {
                    "reference": "urn:uuid:3f5d867b-ea34-4192-a80b-d0dc260f1f07"
                  },
                  {
                    "reference": "urn:uuid:f6aa65d5-5513-47bf-9264-ef33ab3796d9"
                  },
                  {
                    "reference": "urn:uuid:1e0df7cc-8e0d-4447-b377-c2ba70102cd1"
                  },
                  {
                    "reference": "urn:uuid:de8b955d-fa56-4bd6-8e4d-a82a089c31d9"
                  },
                  {
                    "reference": "urn:uuid:6977cb90-6d42-4643-aed8-99303d5d7cfe"
                  }
                ],
                "text": {
                  "status": "generated",
                  "div": "<div xmlns=\"http://www.w3.org/1999/xhtml\"><h3>Chemistry</h3><table class=\"hl7__eu__lab__report\"><thead><tr><th>Test</th><th>18-NOV-2023</th><th>Reference&#xA0;Range</th><th>Unit</th></tr></thead><tbody><tr><td>Hemoglobin A1c/Hemoglobin.total in Blood</td><td>6.0</td><td>4.5 - 6.4</td><td>%</td></tr><tr><td>Glucose [Mass/volume] in Blood</td><td>96.9</td><td>70 - 140</td><td>mg/dL</td></tr><tr><td>Urea nitrogen [Mass/volume] in Blood</td><td>10.7</td><td>7 - 25</td><td>mg/dL</td></tr><tr><td>Creatinine [Mass/volume] in Blood</td><td><strong>0.5 L</strong></td><td>0.6 - 1.1</td><td>mg/dL</td></tr><tr><td>Calcium [Mass/volume] in Blood</td><td>9.0</td><td>8.6 - 10.4</td><td>mg/dL</td></tr><tr><td>Sodium [Moles/volume] in Blood</td><td>137.3</td><td>135 - 145</td><td>mmol/L</td></tr><tr><td>Potassium [Moles/volume] in Blood</td><td>5.0</td><td>3.5 - 5.3</td><td>mmol/L</td></tr><tr><td>Chloride [Moles/volume] in Blood</td><td>101.4</td><td>98 - 108</td><td>mmol/L</td></tr><tr><td>Carbon dioxide, total [Moles/volume] in Blood</td><td>28.1</td><td>22 - 32</td><td>mmol/L</td></tr></tbody></table></div>"
                },
                "title": "Chemistry"
              }
            ],
            "title": "Laboratory Report"
          },
          {
            "text": {
              "status": "generated",
              "div": "<div xmlns=\"http://www.w3.org/1999/xhtml\"><h3>Annotation</h3><table class=\"hl7__eu__lab__report\"><tr><th>Conclusion and Recommendations based on this report and previous findings known to us</th></tr><tr><td>All measured parameters are within normal limits except for a mildly decreased creatinine, which is not clinically significant and may reflect low muscle mass in an elderly female. No evidence of acute metabolic, renal, or electrolyte disturbances. Overall, laboratory results are unremarkable.</td></tr></table></div>"
            },
            "code": {
              "coding": [
                {
                  "system": "http://loinc.org",
                  "code": "48767-8",
                  "display": "Annotation comment"
                }
              ]
            },
            "title": "Annotation comment"
          }
        ],
        "status": "final",
        "subject": {
          "reference": "urn:uuid:4c83467a-b0c8-4bc7-a172-f77f56e97ac0",
          "display": "Helene Andresen"
        },
        "date": "2023-11-18T23:53:36Z",
        "title": "Laboratory Report",
        "confidentiality": "N"
      }
    },
    {
      "fullUrl": "urn:uuid:7b426b6f-0c5f-4136-8ff0-61b4b031a93b",
      "resource": {
        "resourceType": "DiagnosticReport",
        "id": "7b426b6f-0c5f-4136-8ff0-61b4b031a93b",
        "meta": {
          "profile": [
            "http://hl7.eu/fhir/laboratory/StructureDefinition/DiagnosticReport-eu-lab"
          ]
        },
        "identifier": [
          {
            "assigner": {
              "display": "HL7 Europe"
            },
            "system": "urn:oid:2.16.840.1.113883.2.51.999",
            "value": "30fc174b-fd9f-4eac-a33a-e51ae7085672"
          }
        ],
        "extension": [
          {
            "url": "http://hl7.org/fhir/5.0/StructureDefinition/extension-DiagnosticReport.composition",
            "valueReference": {
              "reference": "urn:uuid:8ffdbdf1-f5d0-4d09-b1eb-afa1ac33708c"
            }
          }
        ],
        "category": [
          {
            "coding": [
              {
                "code": "26436-6",
                "system": "http://loinc.org",
                "display": "Laboratory studies (set)"
              }
            ]
          }
        ],
        "specimen": [
          {
            "reference": "urn:uuid:c9ed592e-103d-482b-9f34-000814f806ae"
          }
        ],
        "result": [
          {
            "reference": "urn:uuid:c2424d8e-3e9c-4b34-b9cb-c1f5589a1779"
          },
          {
            "reference": "urn:uuid:3984a120-22dc-4504-9708-49d2209f93fb"
          },
          {
            "reference": "urn:uuid:bfb6c496-55cf-40dc-9305-bc19f8f5e428"
          },
          {
            "reference": "urn:uuid:29fbb2fc-b79e-4c10-8cee-0e144cc69175"
          },
          {
            "reference": "urn:uuid:3f5d867b-ea34-4192-a80b-d0dc260f1f07"
          },
          {
            "reference": "urn:uuid:f6aa65d5-5513-47bf-9264-ef33ab3796d9"
          },
          {
            "reference": "urn:uuid:1e0df7cc-8e0d-4447-b377-c2ba70102cd1"
          },
          {
            "reference": "urn:uuid:de8b955d-fa56-4bd6-8e4d-a82a089c31d9"
          },
          {
            "reference": "urn:uuid:6977cb90-6d42-4643-aed8-99303d5d7cfe"
          }
        ],
        "status": "registered",
        "code": {
          "coding": [
            {
              "code": "11502-2",
              "system": "http://loinc.org",
              "display": "Laboratory report"
            }
          ]
        },
        "subject": {
          "reference": "urn:uuid:4c83467a-b0c8-4bc7-a172-f77f56e97ac0",
          "display": "Helene Andresen"
        }
      }
    },
    {
      "fullUrl": "urn:uuid:4c83467a-b0c8-4bc7-a172-f77f56e97ac0",
      "resource": {
        "resourceType": "Patient",
        "id": "4c83467a-b0c8-4bc7-a172-f77f56e97ac0",
        "meta": {
          "security": [
            {
              "system": "http://terminology.hl7.org/CodeSystem/v3-ActReason",
              "code": "HTEST"
            },
            {
              "system": "http://terminology.hl7.org/CodeSystem/v3-ActReason",
              "code": "TRAIN"
            }
          ],
          "tag": [
            {
              "system": "https://synderai.net/fhir/CodeSystem/tags",
              "code": "synthetic",
              "display": "SYNDERAI Synthetic data"
            }
          ],
          "profile": [
            "http://hl7.eu/fhir/base/StructureDefinition/patient-eu-core"
          ]
        },
        "identifier": [
          {
            "type": {
              "coding": [
                {
                  "code": "PT",
                  "system": "http://terminology.hl7.org/CodeSystem/v2-0203"
                }
              ]
            },
            "system": "http://ec.europa.eu/identifier/eci",
            "value": "3450-170343-2"
          },
          {
            "type": {
              "coding": [
                {
                  "code": "MR",
                  "system": "http://terminology.hl7.org/CodeSystem/v2-0203"
                }
              ]
            },
            "system": "http://local.setting.eu/identifier",
            "value": "72e91c9c-0b01-42b0-a6a0-6dcc70aeec49"
          }
        ],
        "name": [
          {
            "family": "Andresen"
          },
          {
            "given": [
              "Helene"
            ]
          },
          {
            "text": "Helene Andresen"
          }
        ],
        "address": [
          {
            "line": [
              "Kristiansenberget 2"
            ],
            "use": "home",
            "type": "physical",
            "postalCode": "0172",
            "city": "Sørensen",
            "country": "Norway"
          }
        ],
        "telecom": [
          {
            "system": "phone",
            "value": "53 98 86 24"
          }
        ],
        "extension": [
          {
            "url": "http://hl7.org/fhir/StructureDefinition/patient-nationality",
            "valueCodeableConcept": {
              "coding": [
                {
                  "code": "NO",
                  "system": "http://hl7.org/fhir/ValueSet/country"
                }
              ]
            }
          }
        ],
        "text": {
          "status": "generated",
          "div": "<div xmlns=\"http://www.w3.org/1999/xhtml\"><table class=\"hl7__ips\"><tr><td>Helene Andresen</td><td>female</td><td>17-Oct-1939</td></tr></table></div>"
        },
        "gender": "female",
        "birthDate": "1939-10-17"
      }
    },
    {
      "fullUrl": "urn:uuid:bf1c9b45-1701-4208-9ac1-5ff203da41b0",
      "resource": {
        "resourceType": "ServiceRequest",
        "id": "bf1c9b45-1701-4208-9ac1-5ff203da41b0",
        "meta": {
          "profile": [
            "http://hl7.eu/fhir/laboratory/StructureDefinition/ServiceRequest-eu-lab"
          ]
        },
        "identifier": [
          {
            "system": "http://example.org",
            "value": "d8fd84cb-1cf2-440a-ba08-60a55fc55cf5"
          }
        ],
        "specimen": [
          {
            "reference": "urn:uuid:c9ed592e-103d-482b-9f34-000814f806ae"
          }
        ],
        "reasonCode": [
          {
            "coding": [
              {
                "code": "64859006",
                "system": "http://snomed.info/sct",
                "display": "Osteoporosis"
              }
            ]
          },
          {
            "coding": [
              {
                "code": "40055000",
                "system": "http://snomed.info/sct",
                "display": "Chronic sinusitis"
              }
            ]
          },
          {
            "coding": [
              {
                "code": "55822004",
                "system": "http://snomed.info/sct",
                "display": "Hyperlipidemia"
              }
            ]
          },
          {
            "coding": [
              {
                "code": "271737000",
                "system": "http://snomed.info/sct",
                "display": "Anemia"
              }
            ]
          },
          {
            "coding": [
              {
                "code": "15777000",
                "system": "http://snomed.info/sct",
                "display": "Prediabetes"
              }
            ]
          },
          {
            "coding": [
              {
                "code": "128613002",
                "system": "http://snomed.info/sct",
                "display": "Seizure disorder"
              }
            ]
          }
        ],
        "status": "active",
        "intent": "order",
        "code": {
          "coding": [
            {
              "code": "108252007",
              "system": "http://snomed.info/sct",
              "display": "Laboratory procedure"
            }
          ]
        },
        "subject": {
          "reference": "urn:uuid:4c83467a-b0c8-4bc7-a172-f77f56e97ac0",
          "display": "Helene Andresen"
        },
        "requester": {
          "reference": "urn:uuid:81d2f78b-8bb4-483b-9d2e-b6c7a2f17735"
        }
      }
    },
    {
      "fullUrl": "urn:uuid:81d2f78b-8bb4-483b-9d2e-b6c7a2f17735",
      "resource": {
        "resourceType": "PractitionerRole",
        "id": "81d2f78b-8bb4-483b-9d2e-b6c7a2f17735",
        "meta": {
          "profile": [
            "http://hl7.eu/fhir/base/StructureDefinition/practitionerRole-eu"
          ]
        },
        "text": {
          "status": "generated",
          "div": "<div xmlns=\"http://www.w3.org/1999/xhtml\">Provider Role Id: 81d2f78b-8bb4-483b-9d2e-b6c7a2f17735</div>"
        },
        "organization": {
          "reference": "urn:uuid:242928d0-303d-43e3-aadf-e52522e057b2"
        }
      }
    },
    {
      "fullUrl": "urn:uuid:242928d0-303d-43e3-aadf-e52522e057b2",
      "resource": {
        "resourceType": "Organization",
        "id": "242928d0-303d-43e3-aadf-e52522e057b2",
        "meta": {
          "profile": [
            "http://hl7.eu/fhir/base/StructureDefinition/organization-eu"
          ]
        },
        "identifier": [
          {
            "assigner": {
              "display": "HL7 Europe"
            },
            "system": "urn:oid:2.16.840.1.113883.2.51.999",
            "value": "46cc5710-b75e-449e-8d43-9cd59f2cb9b2"
          }
        ],
        "address": [
          {
            "city": "Oslo",
            "postalCode": "0155",
            "country": "Norway"
          }
        ],
        "text": {
          "status": "generated",
          "div": "<div xmlns=\"http://www.w3.org/1999/xhtml\">Provider Organization: Oslo universitetssykehus (Ullevål)</div>"
        },
        "name": "Oslo universitetssykehus (Ullevål)"
      }
    },
    {
      "fullUrl": "urn:uuid:c9ed592e-103d-482b-9f34-000814f806ae",
      "resource": {
        "resourceType": "Specimen",
        "id": "c9ed592e-103d-482b-9f34-000814f806ae",
        "meta": {
          "profile": [
            "http://hl7.eu/fhir/laboratory/StructureDefinition/Specimen-eu-lab"
          ]
        },
        "collection": {
          "collectedDateTime": "2023-11-18"
        },
        "text": {
          "status": "generated",
          "div": "<div xmlns=\"http://www.w3.org/1999/xhtml\"><table class=\"hl7__eu__lab__report\"><tr><th>Specimen</th><th>Collection Date</th></tr><tr><td>Whole blood specimen (specimen)</td><td><span class=\"nb\">18-Nov-2023</span></td></tr></table></div>"
        },
        "type": {
          "coding": [
            {
              "code": "258580003",
              "system": "http://snomed.info/sct",
              "display": "Whole blood specimen (specimen)"
            }
          ]
        }
      }
    },
    {
      "fullUrl": "urn:uuid:c2424d8e-3e9c-4b34-b9cb-c1f5589a1779",
      "resource": {
        "resourceType": "Observation",
        "id": "c2424d8e-3e9c-4b34-b9cb-c1f5589a1779",
        "meta": {
          "profile": [
            "http://hl7.eu/fhir/laboratory/StructureDefinition/Observation-resultslab-eu-lab"
          ]
        },
        "performer": [
          {
            "display": "The Central European Lab"
          }
        ],
        "category": [
          {
            "coding": [
              {
                "system": "http://terminology.hl7.org/CodeSystem/observation-category",
                "code": "laboratory"
              }
            ]
          }
        ],
        "code": {
          "coding": [
            {
              "code": "4548-4",
              "system": "http://loinc.org",
              "display": "Hemoglobin A1c/Hemoglobin.total in Blood"
            }
          ],
          "text": "Hemoglobin A1c/Hemoglobin.total in Blood"
        },
        "valueQuantity": {
          "system": "http://unitsofmeasure.org",
          "value": 6,
          "unit": "%",
          "code": "%"
        },
        "referenceRange": [
          {
            "low": {
              "value": 4.5,
              "code": "%",
              "system": "http://unitsofmeasure.org"
            }
          },
          {
            "high": {
              "value": 6.4,
              "code": "%",
              "system": "http://unitsofmeasure.org"
            }
          }
        ],
        "text": {
          "status": "generated",
          "div": "<div xmlns=\"http://www.w3.org/1999/xhtml\"><table class=\"hl7__eu__lab__report\"><tr><th>Test</th><th>18-Nov-2023</th><th>Reference&#xA0;Range</th><th>Unit</th></tr><tr><td>Hemoglobin A1c/Hemoglobin.total in Blood</td><td>6.0</td><td>4.5 - 6.4</td><td></td><td>%</td></tr></table></div>"
        },
        "status": "final",
        "subject": {
          "reference": "urn:uuid:4c83467a-b0c8-4bc7-a172-f77f56e97ac0",
          "display": "Helene Andresen"
        },
        "effectiveDateTime": "2023-11-18T22:53:36Z",
        "specimen": {
          "reference": "urn:uuid:c9ed592e-103d-482b-9f34-000814f806ae"
        }
      }
    },
    {
      "fullUrl": "urn:uuid:3984a120-22dc-4504-9708-49d2209f93fb",
      "resource": {
        "resourceType": "Observation",
        "id": "3984a120-22dc-4504-9708-49d2209f93fb",
        "meta": {
          "profile": [
            "http://hl7.eu/fhir/laboratory/StructureDefinition/Observation-resultslab-eu-lab"
          ]
        },
        "performer": [
          {
            "display": "The Central European Lab"
          }
        ],
        "category": [
          {
            "coding": [
              {
                "system": "http://terminology.hl7.org/CodeSystem/observation-category",
                "code": "laboratory"
              }
            ]
          }
        ],
        "code": {
          "coding": [
            {
              "code": "2339-0",
              "system": "http://loinc.org",
              "display": "Glucose [Mass/volume] in Blood"
            }
          ],
          "text": "Glucose [Mass/volume] in Blood"
        },
        "valueQuantity": {
          "system": "http://unitsofmeasure.org",
          "value": 96.9,
          "unit": "mg/dL",
          "code": "mg/dL"
        },
        "referenceRange": [
          {
            "low": {
              "value": 70,
              "code": "mg/dL",
              "system": "http://unitsofmeasure.org"
            }
          },
          {
            "high": {
              "value": 140,
              "code": "mg/dL",
              "system": "http://unitsofmeasure.org"
            }
          }
        ],
        "text": {
          "status": "generated",
          "div": "<div xmlns=\"http://www.w3.org/1999/xhtml\"><table class=\"hl7__eu__lab__report\"><tr><th>Test</th><th>18-Nov-2023</th><th>Reference&#xA0;Range</th><th>Unit</th></tr><tr><td>Glucose [Mass/volume] in Blood</td><td>96.9</td><td>70 - 140</td><td></td><td>mg/dL</td></tr></table></div>"
        },
        "status": "final",
        "subject": {
          "reference": "urn:uuid:4c83467a-b0c8-4bc7-a172-f77f56e97ac0",
          "display": "Helene Andresen"
        },
        "effectiveDateTime": "2023-11-18T22:53:36Z",
        "specimen": {
          "reference": "urn:uuid:c9ed592e-103d-482b-9f34-000814f806ae"
        }
      }
    },
    {
      "fullUrl": "urn:uuid:bfb6c496-55cf-40dc-9305-bc19f8f5e428",
      "resource": {
        "resourceType": "Observation",
        "id": "bfb6c496-55cf-40dc-9305-bc19f8f5e428",
        "meta": {
          "profile": [
            "http://hl7.eu/fhir/laboratory/StructureDefinition/Observation-resultslab-eu-lab"
          ]
        },
        "performer": [
          {
            "display": "The Central European Lab"
          }
        ],
        "category": [
          {
            "coding": [
              {
                "system": "http://terminology.hl7.org/CodeSystem/observation-category",
                "code": "laboratory"
              }
            ]
          }
        ],
        "code": {
          "coding": [
            {
              "code": "6299-2",
              "system": "http://loinc.org",
              "display": "Urea nitrogen [Mass/volume] in Blood"
            }
          ],
          "text": "Urea nitrogen [Mass/volume] in Blood"
        },
        "valueQuantity": {
          "system": "http://unitsofmeasure.org",
          "value": 10.7,
          "unit": "mg/dL",
          "code": "mg/dL"
        },
        "referenceRange": [
          {
            "low": {
              "value": 7,
              "code": "mg/dL",
              "system": "http://unitsofmeasure.org"
            }
          },
          {
            "high": {
              "value": 25,
              "code": "mg/dL",
              "system": "http://unitsofmeasure.org"
            }
          }
        ],
        "text": {
          "status": "generated",
          "div": "<div xmlns=\"http://www.w3.org/1999/xhtml\"><table class=\"hl7__eu__lab__report\"><tr><th>Test</th><th>18-Nov-2023</th><th>Reference&#xA0;Range</th><th>Unit</th></tr><tr><td>Urea nitrogen [Mass/volume] in Blood</td><td>10.7</td><td>7 - 25</td><td></td><td>mg/dL</td></tr></table></div>"
        },
        "status": "final",
        "subject": {
          "reference": "urn:uuid:4c83467a-b0c8-4bc7-a172-f77f56e97ac0",
          "display": "Helene Andresen"
        },
        "effectiveDateTime": "2023-11-18T22:53:36Z",
        "specimen": {
          "reference": "urn:uuid:c9ed592e-103d-482b-9f34-000814f806ae"
        }
      }
    },
    {
      "fullUrl": "urn:uuid:29fbb2fc-b79e-4c10-8cee-0e144cc69175",
      "resource": {
        "resourceType": "Observation",
        "id": "29fbb2fc-b79e-4c10-8cee-0e144cc69175",
        "meta": {
          "profile": [
            "http://hl7.eu/fhir/laboratory/StructureDefinition/Observation-resultslab-eu-lab"
          ]
        },
        "performer": [
          {
            "display": "The Central European Lab"
          }
        ],
        "category": [
          {
            "coding": [
              {
                "system": "http://terminology.hl7.org/CodeSystem/observation-category",
                "code": "laboratory"
              }
            ]
          }
        ],
        "code": {
          "coding": [
            {
              "code": "38483-4",
              "system": "http://loinc.org",
              "display": "Creatinine [Mass/volume] in Blood"
            }
          ],
          "text": "Creatinine [Mass/volume] in Blood"
        },
        "valueQuantity": {
          "system": "http://unitsofmeasure.org",
          "value": 0.5,
          "unit": "mg/dL",
          "code": "mg/dL"
        },
        "referenceRange": [
          {
            "low": {
              "value": 0.6,
              "code": "mg/dL",
              "system": "http://unitsofmeasure.org"
            }
          },
          {
            "high": {
              "value": 1.1,
              "code": "mg/dL",
              "system": "http://unitsofmeasure.org"
            }
          }
        ],
        "interpretation": [
          {
            "coding": [
              {
                "code": "L",
                "system": "http://terminology.hl7.org/CodeSystem/v3-ObservationInterpretation",
                "display": "Low"
              }
            ]
          }
        ],
        "text": {
          "status": "generated",
          "div": "<div xmlns=\"http://www.w3.org/1999/xhtml\"><table class=\"hl7__eu__lab__report\"><tr><th>Test</th><th>18-Nov-2023</th><th>Reference&#xA0;Range</th><th>Unit</th></tr><tr><td>Creatinine [Mass/volume] in Blood</td><td>0.5</td><td>0.6 - 1.1</td><td>L</td><td>mg/dL</td></tr></table></div>"
        },
        "status": "final",
        "subject": {
          "reference": "urn:uuid:4c83467a-b0c8-4bc7-a172-f77f56e97ac0",
          "display": "Helene Andresen"
        },
        "effectiveDateTime": "2023-11-18T22:53:36Z",
        "specimen": {
          "reference": "urn:uuid:c9ed592e-103d-482b-9f34-000814f806ae"
        }
      }
    },
    {
      "fullUrl": "urn:uuid:3f5d867b-ea34-4192-a80b-d0dc260f1f07",
      "resource": {
        "resourceType": "Observation",
        "id": "3f5d867b-ea34-4192-a80b-d0dc260f1f07",
        "meta": {
          "profile": [
            "http://hl7.eu/fhir/laboratory/StructureDefinition/Observation-resultslab-eu-lab"
          ]
        },
        "performer": [
          {
            "display": "The Central European Lab"
          }
        ],
        "category": [
          {
            "coding": [
              {
                "system": "http://terminology.hl7.org/CodeSystem/observation-category",
                "code": "laboratory"
              }
            ]
          }
        ],
        "code": {
          "coding": [
            {
              "code": "49765-1",
              "system": "http://loinc.org",
              "display": "Calcium [Mass/volume] in Blood"
            }
          ],
          "text": "Calcium [Mass/volume] in Blood"
        },
        "valueQuantity": {
          "system": "http://unitsofmeasure.org",
          "value": 9,
          "unit": "mg/dL",
          "code": "mg/dL"
        },
        "referenceRange": [
          {
            "low": {
              "value": 8.6,
              "code": "mg/dL",
              "system": "http://unitsofmeasure.org"
            }
          },
          {
            "high": {
              "value": 10.4,
              "code": "mg/dL",
              "system": "http://unitsofmeasure.org"
            }
          }
        ],
        "text": {
          "status": "generated",
          "div": "<div xmlns=\"http://www.w3.org/1999/xhtml\"><table class=\"hl7__eu__lab__report\"><tr><th>Test</th><th>18-Nov-2023</th><th>Reference&#xA0;Range</th><th>Unit</th></tr><tr><td>Calcium [Mass/volume] in Blood</td><td>9.0</td><td>8.6 - 10.4</td><td></td><td>mg/dL</td></tr></table></div>"
        },
        "status": "final",
        "subject": {
          "reference": "urn:uuid:4c83467a-b0c8-4bc7-a172-f77f56e97ac0",
          "display": "Helene Andresen"
        },
        "effectiveDateTime": "2023-11-18T22:53:36Z",
        "specimen": {
          "reference": "urn:uuid:c9ed592e-103d-482b-9f34-000814f806ae"
        }
      }
    },
    {
      "fullUrl": "urn:uuid:f6aa65d5-5513-47bf-9264-ef33ab3796d9",
      "resource": {
        "resourceType": "Observation",
        "id": "f6aa65d5-5513-47bf-9264-ef33ab3796d9",
        "meta": {
          "profile": [
            "http://hl7.eu/fhir/laboratory/StructureDefinition/Observation-resultslab-eu-lab"
          ]
        },
        "performer": [
          {
            "display": "The Central European Lab"
          }
        ],
        "category": [
          {
            "coding": [
              {
                "system": "http://terminology.hl7.org/CodeSystem/observation-category",
                "code": "laboratory"
              }
            ]
          }
        ],
        "code": {
          "coding": [
            {
              "code": "2947-0",
              "system": "http://loinc.org",
              "display": "Sodium [Moles/volume] in Blood"
            }
          ],
          "text": "Sodium [Moles/volume] in Blood"
        },
        "valueQuantity": {
          "system": "http://unitsofmeasure.org",
          "value": 137.3,
          "unit": "mmol/L",
          "code": "mmol/L"
        },
        "referenceRange": [
          {
            "low": {
              "value": 135,
              "code": "mmol/L",
              "system": "http://unitsofmeasure.org"
            }
          },
          {
            "high": {
              "value": 145,
              "code": "mmol/L",
              "system": "http://unitsofmeasure.org"
            }
          }
        ],
        "text": {
          "status": "generated",
          "div": "<div xmlns=\"http://www.w3.org/1999/xhtml\"><table class=\"hl7__eu__lab__report\"><tr><th>Test</th><th>18-Nov-2023</th><th>Reference&#xA0;Range</th><th>Unit</th></tr><tr><td>Sodium [Moles/volume] in Blood</td><td>137.3</td><td>135 - 145</td><td></td><td>mmol/L</td></tr></table></div>"
        },
        "status": "final",
        "subject": {
          "reference": "urn:uuid:4c83467a-b0c8-4bc7-a172-f77f56e97ac0",
          "display": "Helene Andresen"
        },
        "effectiveDateTime": "2023-11-18T22:53:36Z",
        "specimen": {
          "reference": "urn:uuid:c9ed592e-103d-482b-9f34-000814f806ae"
        }
      }
    },
    {
      "fullUrl": "urn:uuid:1e0df7cc-8e0d-4447-b377-c2ba70102cd1",
      "resource": {
        "resourceType": "Observation",
        "id": "1e0df7cc-8e0d-4447-b377-c2ba70102cd1",
        "meta": {
          "profile": [
            "http://hl7.eu/fhir/laboratory/StructureDefinition/Observation-resultslab-eu-lab"
          ]
        },
        "performer": [
          {
            "display": "The Central European Lab"
          }
        ],
        "category": [
          {
            "coding": [
              {
                "system": "http://terminology.hl7.org/CodeSystem/observation-category",
                "code": "laboratory"
              }
            ]
          }
        ],
        "code": {
          "coding": [
            {
              "code": "6298-4",
              "system": "http://loinc.org",
              "display": "Potassium [Moles/volume] in Blood"
            }
          ],
          "text": "Potassium [Moles/volume] in Blood"
        },
        "valueQuantity": {
          "system": "http://unitsofmeasure.org",
          "value": 5,
          "unit": "mmol/L",
          "code": "mmol/L"
        },
        "referenceRange": [
          {
            "low": {
              "value": 3.5,
              "code": "mmol/L",
              "system": "http://unitsofmeasure.org"
            }
          },
          {
            "high": {
              "value": 5.3,
              "code": "mmol/L",
              "system": "http://unitsofmeasure.org"
            }
          }
        ],
        "text": {
          "status": "generated",
          "div": "<div xmlns=\"http://www.w3.org/1999/xhtml\"><table class=\"hl7__eu__lab__report\"><tr><th>Test</th><th>18-Nov-2023</th><th>Reference&#xA0;Range</th><th>Unit</th></tr><tr><td>Potassium [Moles/volume] in Blood</td><td>5.0</td><td>3.5 - 5.3</td><td></td><td>mmol/L</td></tr></table></div>"
        },
        "status": "final",
        "subject": {
          "reference": "urn:uuid:4c83467a-b0c8-4bc7-a172-f77f56e97ac0",
          "display": "Helene Andresen"
        },
        "effectiveDateTime": "2023-11-18T22:53:36Z",
        "specimen": {
          "reference": "urn:uuid:c9ed592e-103d-482b-9f34-000814f806ae"
        }
      }
    },
    {
      "fullUrl": "urn:uuid:de8b955d-fa56-4bd6-8e4d-a82a089c31d9",
      "resource": {
        "resourceType": "Observation",
        "id": "de8b955d-fa56-4bd6-8e4d-a82a089c31d9",
        "meta": {
          "profile": [
            "http://hl7.eu/fhir/laboratory/StructureDefinition/Observation-resultslab-eu-lab"
          ]
        },
        "performer": [
          {
            "display": "The Central European Lab"
          }
        ],
        "category": [
          {
            "coding": [
              {
                "system": "http://terminology.hl7.org/CodeSystem/observation-category",
                "code": "laboratory"
              }
            ]
          }
        ],
        "code": {
          "coding": [
            {
              "code": "2069-3",
              "system": "http://loinc.org",
              "display": "Chloride [Moles/volume] in Blood"
            }
          ],
          "text": "Chloride [Moles/volume] in Blood"
        },
        "valueQuantity": {
          "system": "http://unitsofmeasure.org",
          "value": 101.4,
          "unit": "mmol/L",
          "code": "mmol/L"
        },
        "referenceRange": [
          {
            "low": {
              "value": 98,
              "code": "mmol/L",
              "system": "http://unitsofmeasure.org"
            }
          },
          {
            "high": {
              "value": 108,
              "code": "mmol/L",
              "system": "http://unitsofmeasure.org"
            }
          }
        ],
        "text": {
          "status": "generated",
          "div": "<div xmlns=\"http://www.w3.org/1999/xhtml\"><table class=\"hl7__eu__lab__report\"><tr><th>Test</th><th>18-Nov-2023</th><th>Reference&#xA0;Range</th><th>Unit</th></tr><tr><td>Chloride [Moles/volume] in Blood</td><td>101.4</td><td>98 - 108</td><td></td><td>mmol/L</td></tr></table></div>"
        },
        "status": "final",
        "subject": {
          "reference": "urn:uuid:4c83467a-b0c8-4bc7-a172-f77f56e97ac0",
          "display": "Helene Andresen"
        },
        "effectiveDateTime": "2023-11-18T22:53:36Z",
        "specimen": {
          "reference": "urn:uuid:c9ed592e-103d-482b-9f34-000814f806ae"
        }
      }
    },
    {
      "fullUrl": "urn:uuid:6977cb90-6d42-4643-aed8-99303d5d7cfe",
      "resource": {
        "resourceType": "Observation",
        "id": "6977cb90-6d42-4643-aed8-99303d5d7cfe",
        "meta": {
          "profile": [
            "http://hl7.eu/fhir/laboratory/StructureDefinition/Observation-resultslab-eu-lab"
          ]
        },
        "performer": [
          {
            "display": "The Central European Lab"
          }
        ],
        "category": [
          {
            "coding": [
              {
                "system": "http://terminology.hl7.org/CodeSystem/observation-category",
                "code": "laboratory"
              }
            ]
          }
        ],
        "code": {
          "coding": [
            {
              "code": "20565-8",
              "system": "http://loinc.org",
              "display": "Carbon dioxide, total [Moles/volume] in Blood"
            }
          ],
          "text": "Carbon dioxide, total [Moles/volume] in Blood"
        },
        "valueQuantity": {
          "system": "http://unitsofmeasure.org",
          "value": 28.1,
          "unit": "mmol/L",
          "code": "mmol/L"
        },
        "referenceRange": [
          {
            "low": {
              "value": 22,
              "code": "mmol/L",
              "system": "http://unitsofmeasure.org"
            }
          },
          {
            "high": {
              "value": 32,
              "code": "mmol/L",
              "system": "http://unitsofmeasure.org"
            }
          }
        ],
        "text": {
          "status": "generated",
          "div": "<div xmlns=\"http://www.w3.org/1999/xhtml\"><table class=\"hl7__eu__lab__report\"><tr><th>Test</th><th>18-Nov-2023</th><th>Reference&#xA0;Range</th><th>Unit</th></tr><tr><td>Carbon dioxide, total [Moles/volume] in Blood</td><td>28.1</td><td>22 - 32</td><td></td><td>mmol/L</td></tr></table></div>"
        },
        "status": "final",
        "subject": {
          "reference": "urn:uuid:4c83467a-b0c8-4bc7-a172-f77f56e97ac0",
          "display": "Helene Andresen"
        },
        "effectiveDateTime": "2023-11-18T22:53:36Z",
        "specimen": {
          "reference": "urn:uuid:c9ed592e-103d-482b-9f34-000814f806ae"
        }
      }
    },
    {
      "fullUrl": "urn:uuid:f3fcb26d-493c-4a4c-ba6b-2550a589d8c0",
      "resource": {
        "resourceType": "Device",
        "id": "f3fcb26d-493c-4a4c-ba6b-2550a589d8c0",
        "deviceName": [
          {
            "name": "SYNDERAI Synthetic Generator",
            "type": "manufacturer-name"
          }
        ],
        "version": [
          {
            "value": "5.0"
          }
        ],
        "text": {
          "status": "generated",
          "div": "<div xmlns=\"http://www.w3.org/1999/xhtml\">SYNDERAI Synthetic Generator v5.0</div>"
        },
        "status": "active\"",
        "distinctIdentifier": "synderai-generator-50",
        "manufacturer": "SYNDERAI Project"
      }
    },
    {
      "fullUrl": "urn:uuid:8f6e6907-5dfc-4bec-a98b-f763bf403a9c",
      "resource": {
        "resourceType": "Provenance",
        "id": "8f6e6907-5dfc-4bec-a98b-f763bf403a9c",
        "target": [
          {
            "reference": "Patient/4c83467a-b0c8-4bc7-a172-f77f56e97ac0"
          },
          {
            "reference": "Bundle/c4e327bd-077d-4ea9-a89c-56960080a80a"
          },
          {
            "reference": "Composition/0ce5e378-a86a-4210-8778-5850f8c03148"
          },
          {
            "reference": "PractitionerRole/97f2e966-96ab-41ac-b242-0f27559564f2"
          },
          {
            "reference": "Practitioner/5945bdbe-eff3-43fb-95eb-ecd979c58054"
          },
          {
            "reference": "PractitionerRole/81d2f78b-8bb4-483b-9d2e-b6c7a2f17735"
          },
          {
            "reference": "Organization/242928d0-303d-43e3-aadf-e52522e057b2"
          }
        ],
        "activity": {
          "text": "Synthetic Example Data Generation"
        },
        "policy": [
          "https://synderai.net/synderai-synthetic-data-policy"
        ],
        "agent": [
          {
            "type": {
              "text": "author"
            },
            "who": {
              "reference": "Device/f3fcb26d-493c-4a4c-ba6b-2550a589d8c0"
            }
          }
        ],
        "reason": [
          {
            "text": "Interoperability Testing and Training (non-clinical use)"
          }
        ],
        "text": {
          "status": "generated",
          "div": "<div xmlns=\"http://www.w3.org/1999/xhtml\">Provenance for SYNDERAI Synthetic Example Data Resource</div>"
        },
        "recorded": "2023-11-18T23:53:36Z"
      }
    },
    {
      "fullUrl": "urn:uuid:97f2e966-96ab-41ac-b242-0f27559564f2",
      "resource": {
        "resourceType": "PractitionerRole",
        "id": "97f2e966-96ab-41ac-b242-0f27559564f2",
        "meta": {
          "profile": [
            "http://hl7.eu/fhir/base/StructureDefinition/practitionerRole-eu"
          ]
        },
        "text": {
          "status": "generated",
          "div": "<div xmlns=\"http://www.w3.org/1999/xhtml\">Laboratory Role Id: 97f2e966-96ab-41ac-b242-0f27559564f2</div>"
        },
        "practitioner": {
          "reference": "urn:uuid:5945bdbe-eff3-43fb-95eb-ecd979c58054"
        }
      }
    },
    {
      "fullUrl": "urn:uuid:5945bdbe-eff3-43fb-95eb-ecd979c58054",
      "resource": {
        "resourceType": "Practitioner",
        "id": "5945bdbe-eff3-43fb-95eb-ecd979c58054",
        "meta": {
          "profile": [
            "http://hl7.eu/fhir/base/StructureDefinition/practitioner-eu"
          ]
        },
        "identifier": [
          {
            "assigner": {
              "display": "HL7 Europe"
            },
            "system": "urn:oid:2.16.840.1.113883.2.51.999",
            "value": "98606a55-ba15-4e67-8369-95976e5e4b8b"
          }
        ],
        "name": [
          {
            "prefix": [
              "dr"
            ],
            "given": [
              "Ex"
            ],
            "family": "Ample"
          }
        ],
        "address": [
          {
            "line": [
              "Laboratoire Central Européenne",
              "Boulevard du Jardin Botanique 32"
            ],
            "postalCode": "1000",
            "city": "Brussels",
            "country": "Belgium"
          }
        ],
        "text": {
          "status": "generated",
          "div": "<div xmlns=\"http://www.w3.org/1999/xhtml\">Laboratory: Laboratoire Central Européenne, 1000 Brussels, Belgium</div>"
        }
      }
    }
  ],
  "type": "document",
  "timestamp": "2023-11-18T23:53:36Z"
}
