{
  "resourceType": "Bundle",
  "id": "22ae2468-a840-4ea0-ac33-f8b98d8788a8",
  "meta": {
    "profile": [
      "http://hl7.eu/fhir/laboratory/StructureDefinition/Bundle-eu-lab"
    ]
  },
  "identifier": {
    "assigner": {
      "display": "HL7 Europe"
    },
    "system": "urn:oid:2.16.840.1.113883.2.51.999",
    "value": "39c7b4b2-56ab-4e58-baad-eae4c48849f3"
  },
  "entry": [
    {
      "fullUrl": "urn:uuid:bbea9966-9bbb-472a-bd5e-3b506c01b494",
      "resource": {
        "resourceType": "Composition",
        "id": "bbea9966-9bbb-472a-bd5e-3b506c01b494",
        "meta": {
          "profile": [
            "http://hl7.eu/fhir/laboratory/StructureDefinition/Composition-eu-lab"
          ]
        },
        "identifier": {
          "assigner": {
            "display": "HL7 Europe"
          },
          "system": "urn:oid:2.16.840.1.113883.2.51.999",
          "value": "9fdc7075-2a90-4776-9f75-c0cdc6908fd5"
        },
        "author": [
          {
            "reference": "urn:uuid:6b0c0a26-77ed-4382-b312-d55c0ebaa738"
          }
        ],
        "category": [
          {
            "coding": [
              {
                "code": "26436-6",
                "system": "http://loinc.org",
                "display": "Laboratory studies (set)"
              }
            ]
          }
        ],
        "type": {
          "coding": [
            {
              "code": "11502-2",
              "system": "http://loinc.org",
              "display": "Laboratory report"
            }
          ],
          "text": "Laboratory Report"
        },
        "section": [
          {
            "code": {
              "coding": [
                {
                  "code": "26436-6",
                  "system": "http://loinc.org",
                  "display": "Laboratory studies (set)"
                }
              ],
              "text": "Laboratory studies"
            },
            "section": [
              {
                "code": {
                  "coding": [
                    {
                      "code": "$18723-7",
                      "system": "http://loinc.org",
                      "display": "Hematology studies (set)"
                    }
                  ],
                  "text": "Hematology"
                },
                "entry": [
                  {
                    "reference": "urn:uuid:52e38781-cd9e-407f-bd2e-7e43a369d233"
                  },
                  {
                    "reference": "urn:uuid:7e43c963-4e15-4e7e-ba60-93297dcf880f"
                  },
                  {
                    "reference": "urn:uuid:7aa51a54-5e61-4713-aaf4-48891ee3c65b"
                  },
                  {
                    "reference": "urn:uuid:3a2e9bfe-6608-4bfc-9214-f485bdc5405c"
                  },
                  {
                    "reference": "urn:uuid:2d59cac2-9d27-4c4f-870f-ef2446ecf6bb"
                  },
                  {
                    "reference": "urn:uuid:bde7b2b5-6828-46c1-a7ea-3fb9500a6e74"
                  },
                  {
                    "reference": "urn:uuid:e31507de-5eae-4c7b-a483-596ecdd59f61"
                  },
                  {
                    "reference": "urn:uuid:884f6c14-9b80-4e50-9186-fa88c6779e84"
                  },
                  {
                    "reference": "urn:uuid:95e01098-dbf4-46bf-8d99-f46c4e0da035"
                  },
                  {
                    "reference": "urn:uuid:f5cd42ba-2803-4f7d-8065-a312d082d221"
                  },
                  {
                    "reference": "urn:uuid:c391f719-1a8f-45e1-9bc7-c9e4c4f26397"
                  }
                ],
                "text": {
                  "status": "generated",
                  "div": "<div xmlns=\"http://www.w3.org/1999/xhtml\"><h3>Hematology</h3><table class=\"hl7__eu__lab__report\"><thead><tr><th>Test</th><th>21-APR-2024</th><th>Reference Range</th><th>Unit</th></tr></thead><tbody><tr><td>Hemoglobin [Mass/volume] in Blood</td><td><strong>8.5 L</strong></td><td>12 - 16</td><td>g/dL</td></tr><tr><td>Hematocrit [Volume Fraction] of Blood</td><td><strong>30.9 L</strong></td><td>37 - 46</td><td>%</td></tr><tr><td>Leukocytes [#/volume] in Blood by Automated count</td><td>9.3</td><td>3.5 - 10.5</td><td>10*3/uL</td></tr><tr><td>Erythrocytes [#/volume] in Blood by Automated count</td><td><strong>5.4 H</strong></td><td>4 - 5</td><td>10*6/uL</td></tr><tr><td>MCV [Entitic volume] by Automated count</td><td>82.0</td><td>82 - 98</td><td>fL</td></tr><tr><td>MCH [Entitic mass] by Automated count</td><td>31.0</td><td>27 - 33</td><td>pg</td></tr><tr><td>MCHC [Mass/volume] by Automated count</td><td>33.1</td><td>31 - 35</td><td>g/dL</td></tr><tr><td>Erythrocyte distribution width [Entitic volume] by Automated count</td><td>40.9</td><td>36 - 55</td><td>fL</td></tr><tr><td>Platelets [#/volume] in Blood by Automated count</td><td>297.0</td><td>150 - 450</td><td>10*3/uL</td></tr><tr><td>Platelet distribution width [Entitic volume] in Blood by Automated count</td><td><strong>506.5 H</strong></td><td>11.6 - 17.4</td><td>fL</td></tr><tr><td>Platelet mean volume [Entitic volume] in Blood by Automated count</td><td>12.0</td><td>9.6 - 13.8</td><td>fL</td></tr></tbody></table></div>"
                },
                "title": "Hematology"
              }
            ],
            "title": "Laboratory Report"
          },
          {
            "text": {
              "status": "generated",
              "div": "<div xmlns=\"http://www.w3.org/1999/xhtml\"><h3>Annotation</h3><table class=\"hl7__eu__lab__report\"><tr><th>Conclusion and Recommendations based on this report and previous findings known to us</th></tr><tr><td>The patient shows significant anemia (low hemoglobin and hematocrit) with a high erythrocyte count and normal MCV/MCH, suggesting possible early iron deficiency or thalassemia trait. Platelet count is normal, but platelet distribution width is markedly elevated, which may indicate increased platelet size variability, possibly due to reactive changes. Further clinical correlation and iron studies are recommended.</td></tr></table></div>"
            },
            "code": {
              "coding": [
                {
                  "system": "http://loinc.org",
                  "code": "48767-8",
                  "display": "Annotation comment"
                }
              ]
            },
            "title": "Annotation comment"
          }
        ],
        "status": "final",
        "subject": {
          "reference": "urn:uuid:a9eb4eb1-7a01-4d62-9b32-3625b54c898d",
          "display": "Olga Bąbel"
        },
        "date": "2024-04-21T05:55:50Z",
        "title": "Laboratory Report",
        "confidentiality": "N"
      }
    },
    {
      "fullUrl": "urn:uuid:3999b906-6cfc-468b-a57e-6305b65b79d3",
      "resource": {
        "resourceType": "DiagnosticReport",
        "id": "3999b906-6cfc-468b-a57e-6305b65b79d3",
        "meta": {
          "profile": [
            "http://hl7.eu/fhir/laboratory/StructureDefinition/DiagnosticReport-eu-lab"
          ]
        },
        "identifier": [
          {
            "assigner": {
              "display": "HL7 Europe"
            },
            "system": "urn:oid:2.16.840.1.113883.2.51.999",
            "value": "a9e7774b-7f34-421e-b166-ace986248235"
          }
        ],
        "extension": [
          {
            "url": "http://hl7.org/fhir/5.0/StructureDefinition/extension-DiagnosticReport.composition",
            "valueReference": {
              "reference": "urn:uuid:9fdc7075-2a90-4776-9f75-c0cdc6908fd5"
            }
          }
        ],
        "category": [
          {
            "coding": [
              {
                "code": "26436-6",
                "system": "http://loinc.org",
                "display": "Laboratory studies (set)"
              }
            ]
          }
        ],
        "specimen": [
          {
            "reference": "urn:uuid:8a7b560c-bdc5-4392-b04c-390039f624bb"
          },
          {
            "reference": "urn:uuid:8a7b560c-bdc5-4392-b04c-390039f624bb"
          }
        ],
        "result": [
          {
            "reference": "urn:uuid:52e38781-cd9e-407f-bd2e-7e43a369d233"
          },
          {
            "reference": "urn:uuid:7e43c963-4e15-4e7e-ba60-93297dcf880f"
          },
          {
            "reference": "urn:uuid:7aa51a54-5e61-4713-aaf4-48891ee3c65b"
          },
          {
            "reference": "urn:uuid:3a2e9bfe-6608-4bfc-9214-f485bdc5405c"
          },
          {
            "reference": "urn:uuid:2d59cac2-9d27-4c4f-870f-ef2446ecf6bb"
          },
          {
            "reference": "urn:uuid:bde7b2b5-6828-46c1-a7ea-3fb9500a6e74"
          },
          {
            "reference": "urn:uuid:e31507de-5eae-4c7b-a483-596ecdd59f61"
          },
          {
            "reference": "urn:uuid:884f6c14-9b80-4e50-9186-fa88c6779e84"
          },
          {
            "reference": "urn:uuid:95e01098-dbf4-46bf-8d99-f46c4e0da035"
          },
          {
            "reference": "urn:uuid:f5cd42ba-2803-4f7d-8065-a312d082d221"
          },
          {
            "reference": "urn:uuid:c391f719-1a8f-45e1-9bc7-c9e4c4f26397"
          }
        ],
        "status": "registered",
        "code": {
          "coding": [
            {
              "code": "11502-2",
              "system": "http://loinc.org",
              "display": "Laboratory report"
            }
          ]
        },
        "subject": {
          "reference": "urn:uuid:a9eb4eb1-7a01-4d62-9b32-3625b54c898d",
          "display": "Olga Bąbel"
        }
      }
    },
    {
      "fullUrl": "urn:uuid:a9eb4eb1-7a01-4d62-9b32-3625b54c898d",
      "resource": {
        "resourceType": "Patient",
        "id": "a9eb4eb1-7a01-4d62-9b32-3625b54c898d",
        "meta": {
          "security": [
            {
              "system": "http://terminology.hl7.org/CodeSystem/v3-ActReason",
              "code": "HTEST"
            },
            {
              "system": "http://terminology.hl7.org/CodeSystem/v3-ActReason",
              "code": "TRAIN"
            }
          ],
          "tag": [
            {
              "system": "https://synderai.net/fhir/CodeSystem/tags",
              "code": "synthetic",
              "display": "SYNDERAI Synthetic data"
            }
          ],
          "profile": [
            "http://hl7.eu/fhir/base/StructureDefinition/patient-eu-core"
          ]
        },
        "identifier": [
          {
            "type": {
              "coding": [
                {
                  "code": "PT",
                  "system": "http://terminology.hl7.org/CodeSystem/v2-0203"
                }
              ]
            },
            "system": "http://ec.europa.eu/identifier/eci",
            "value": "5030-866518-6"
          },
          {
            "type": {
              "coding": [
                {
                  "code": "MR",
                  "system": "http://terminology.hl7.org/CodeSystem/v2-0203"
                }
              ]
            },
            "system": "http://local.setting.eu/identifier",
            "value": "90f4ce41-5cb2-20e8-d5ac-80001edd2b41"
          }
        ],
        "name": [
          {
            "family": "Bąbel"
          },
          {
            "given": [
              "Olga"
            ]
          },
          {
            "text": "Olga Bąbel"
          }
        ],
        "address": [
          {
            "line": [
              "ul. Podleśna 13/38"
            ],
            "use": "home",
            "type": "physical",
            "postalCode": "05-200",
            "city": "Wołomin",
            "country": "Poland"
          }
        ],
        "telecom": [
          {
            "system": "phone",
            "value": "+48 506 354 073"
          }
        ],
        "extension": [
          {
            "url": "http://hl7.org/fhir/StructureDefinition/patient-nationality",
            "valueCodeableConcept": {
              "coding": [
                {
                  "code": "PL",
                  "system": "http://hl7.org/fhir/ValueSet/country"
                }
              ]
            }
          }
        ],
        "text": {
          "status": "generated",
          "div": "<div xmlns=\"http://www.w3.org/1999/xhtml\"><table class=\"hl7__ips\"><tr><td>Olga Bąbel</td><td>female</td><td>05-Jun-1993</td></tr></table></div>"
        },
        "gender": "female",
        "birthDate": "1993-06-05"
      }
    },
    {
      "fullUrl": "urn:uuid:ede38e00-76a1-4240-abf7-4095013ecae2",
      "resource": {
        "resourceType": "ServiceRequest",
        "id": "ede38e00-76a1-4240-abf7-4095013ecae2",
        "meta": {
          "profile": [
            "http://hl7.eu/fhir/laboratory/StructureDefinition/ServiceRequest-eu-lab"
          ]
        },
        "identifier": [
          {
            "system": "http://example.org",
            "value": "fcbfcbd4-e4a9-4891-b5f4-fbb527a5d49f"
          }
        ],
        "specimen": [
          {
            "reference": "urn:uuid:8a7b560c-bdc5-4392-b04c-390039f624bb"
          }
        ],
        "reasonCode": [
          {
            "coding": [
              {
                "code": "15777000",
                "system": "http://snomed.info/sct",
                "display": "Prediabetes"
              }
            ]
          },
          {
            "coding": [
              {
                "code": "271737000",
                "system": "http://snomed.info/sct",
                "display": "Anemia"
              }
            ]
          }
        ],
        "status": "active",
        "intent": "order",
        "code": {
          "coding": [
            {
              "code": "108252007",
              "system": "http://snomed.info/sct",
              "display": "Laboratory procedure"
            }
          ]
        },
        "subject": {
          "reference": "urn:uuid:a9eb4eb1-7a01-4d62-9b32-3625b54c898d",
          "display": "Olga Bąbel"
        },
        "requester": {
          "reference": "urn:uuid:8c308d3f-630b-4269-a887-6c22906e6f86"
        }
      }
    },
    {
      "fullUrl": "urn:uuid:8c308d3f-630b-4269-a887-6c22906e6f86",
      "resource": {
        "resourceType": "PractitionerRole",
        "id": "8c308d3f-630b-4269-a887-6c22906e6f86",
        "meta": {
          "profile": [
            "http://hl7.eu/fhir/base/StructureDefinition/practitionerRole-eu"
          ]
        },
        "text": {
          "status": "generated",
          "div": "<div xmlns=\"http://www.w3.org/1999/xhtml\">Provider Role Id: 8c308d3f-630b-4269-a887-6c22906e6f86</div>"
        },
        "organization": {
          "reference": "urn:uuid:d302e501-ff17-4b5d-be3a-54a7f08a0d62"
        }
      }
    },
    {
      "fullUrl": "urn:uuid:d302e501-ff17-4b5d-be3a-54a7f08a0d62",
      "resource": {
        "resourceType": "Organization",
        "id": "d302e501-ff17-4b5d-be3a-54a7f08a0d62",
        "meta": {
          "profile": [
            "http://hl7.eu/fhir/base/StructureDefinition/organization-eu"
          ]
        },
        "identifier": [
          {
            "assigner": {
              "display": "HL7 Europe"
            },
            "system": "urn:oid:2.16.840.1.113883.2.51.999",
            "value": "eebb0da9-9c99-4171-955d-bbda03b0694a"
          }
        ],
        "address": [
          {
            "line": [
              "Ignacego Prądzyńskiego 11"
            ],
            "city": "Wołomin",
            "postalCode": "05-200",
            "country": "Poland"
          }
        ],
        "text": {
          "status": "generated",
          "div": "<div xmlns=\"http://www.w3.org/1999/xhtml\">Provider Organization: Miejski Samodzielny Publiczny Zakład Opieki Zdrowotnej Nr 1</div>"
        },
        "name": "Miejski Samodzielny Publiczny Zakład Opieki Zdrowotnej Nr 1"
      }
    },
    {
      "fullUrl": "urn:uuid:8a7b560c-bdc5-4392-b04c-390039f624bb",
      "resource": {
        "resourceType": "Specimen",
        "id": "8a7b560c-bdc5-4392-b04c-390039f624bb",
        "meta": {
          "profile": [
            "http://hl7.eu/fhir/laboratory/StructureDefinition/Specimen-eu-lab"
          ]
        },
        "collection": {
          "collectedDateTime": "2024-04-21"
        },
        "text": {
          "status": "generated",
          "div": "<div xmlns=\"http://www.w3.org/1999/xhtml\"><table class=\"hl7__eu__lab__report\"><tr><th>Specimen</th><th>Collection Date</th></tr><tr><td>Whole blood specimen (specimen)</td><td><span class=\"nb\">21-Apr-2024</span></td></tr></table></div>"
        },
        "type": {
          "coding": [
            {
              "code": "258580003",
              "system": "http://snomed.info/sct",
              "display": "Whole blood specimen (specimen)"
            }
          ]
        }
      }
    },
    {
      "fullUrl": "urn:uuid:8a7b560c-bdc5-4392-b04c-390039f624bb",
      "resource": {
        "resourceType": "Specimen",
        "id": "8a7b560c-bdc5-4392-b04c-390039f624bb",
        "meta": {
          "profile": [
            "http://hl7.eu/fhir/laboratory/StructureDefinition/Specimen-eu-lab"
          ]
        },
        "collection": {
          "collectedDateTime": "2024-04-21"
        },
        "text": {
          "status": "generated",
          "div": "<div xmlns=\"http://www.w3.org/1999/xhtml\"><table class=\"hl7__eu__lab__report\"><tr><th>Specimen</th><th>Collection Date</th></tr><tr><td>Whole blood specimen (specimen)</td><td><span class=\"nb\">21-Apr-2024</span></td></tr></table></div>"
        },
        "type": {
          "coding": [
            {
              "code": "258580003",
              "system": "http://snomed.info/sct",
              "display": "Whole blood specimen (specimen)"
            }
          ]
        }
      }
    },
    {
      "fullUrl": "urn:uuid:52e38781-cd9e-407f-bd2e-7e43a369d233",
      "resource": {
        "resourceType": "Observation",
        "id": "52e38781-cd9e-407f-bd2e-7e43a369d233",
        "meta": {
          "profile": [
            "http://hl7.eu/fhir/laboratory/StructureDefinition/Observation-resultslab-eu-lab"
          ]
        },
        "performer": [
          {
            "display": "The Central European Lab"
          }
        ],
        "category": [
          {
            "coding": [
              {
                "system": "http://terminology.hl7.org/CodeSystem/observation-category",
                "code": "laboratory"
              }
            ]
          }
        ],
        "code": {
          "coding": [
            {
              "code": "718-7",
              "system": "http://loinc.org",
              "display": "Hemoglobin [Mass/volume] in Blood"
            }
          ],
          "text": "Hemoglobin [Mass/volume] in Blood"
        },
        "valueQuantity": {
          "system": "http://unitsofmeasure.org",
          "value": 8.5,
          "unit": "g/dL",
          "code": "g/dL"
        },
        "referenceRange": [
          {
            "low": {
              "value": 12,
              "code": "g/dL",
              "system": "http://unitsofmeasure.org"
            }
          },
          {
            "high": {
              "value": 16,
              "code": "g/dL",
              "system": "http://unitsofmeasure.org"
            }
          }
        ],
        "interpretation": [
          {
            "coding": [
              {
                "code": "L",
                "system": "http://terminology.hl7.org/CodeSystem/v3-ObservationInterpretation",
                "display": "Low"
              }
            ]
          }
        ],
        "text": {
          "status": "generated",
          "div": "<div xmlns=\"http://www.w3.org/1999/xhtml\"><table class=\"hl7__eu__lab__report\"><tr><th>Test</th><th>21-Apr-2024</th><th>Reference Range</th><th>Unit</th></tr><tr><td>Hemoglobin [Mass/volume] in Blood</td><td>8.5</td><td>12 - 16</td><td>L</td><td>g/dL</td></tr></table></div>"
        },
        "status": "final",
        "subject": {
          "reference": "urn:uuid:a9eb4eb1-7a01-4d62-9b32-3625b54c898d",
          "display": "Olga Bąbel"
        },
        "effectiveDateTime": "2024-04-21T03:55:50Z",
        "specimen": {
          "reference": "urn:uuid:8a7b560c-bdc5-4392-b04c-390039f624bb"
        }
      }
    },
    {
      "fullUrl": "urn:uuid:7e43c963-4e15-4e7e-ba60-93297dcf880f",
      "resource": {
        "resourceType": "Observation",
        "id": "7e43c963-4e15-4e7e-ba60-93297dcf880f",
        "meta": {
          "profile": [
            "http://hl7.eu/fhir/laboratory/StructureDefinition/Observation-resultslab-eu-lab"
          ]
        },
        "performer": [
          {
            "display": "The Central European Lab"
          }
        ],
        "category": [
          {
            "coding": [
              {
                "system": "http://terminology.hl7.org/CodeSystem/observation-category",
                "code": "laboratory"
              }
            ]
          }
        ],
        "code": {
          "coding": [
            {
              "code": "20570-8",
              "system": "http://loinc.org",
              "display": "Hematocrit [Volume Fraction] of Blood"
            }
          ],
          "text": "Hematocrit [Volume Fraction] of Blood"
        },
        "valueQuantity": {
          "system": "http://unitsofmeasure.org",
          "value": 30.9,
          "unit": "%",
          "code": "%"
        },
        "referenceRange": [
          {
            "low": {
              "value": 37,
              "code": "%",
              "system": "http://unitsofmeasure.org"
            }
          },
          {
            "high": {
              "value": 46,
              "code": "%",
              "system": "http://unitsofmeasure.org"
            }
          }
        ],
        "interpretation": [
          {
            "coding": [
              {
                "code": "L",
                "system": "http://terminology.hl7.org/CodeSystem/v3-ObservationInterpretation",
                "display": "Low"
              }
            ]
          }
        ],
        "text": {
          "status": "generated",
          "div": "<div xmlns=\"http://www.w3.org/1999/xhtml\"><table class=\"hl7__eu__lab__report\"><tr><th>Test</th><th>21-Apr-2024</th><th>Reference Range</th><th>Unit</th></tr><tr><td>Hematocrit [Volume Fraction] of Blood</td><td>30.9</td><td>37 - 46</td><td>L</td><td>%</td></tr></table></div>"
        },
        "status": "final",
        "subject": {
          "reference": "urn:uuid:a9eb4eb1-7a01-4d62-9b32-3625b54c898d",
          "display": "Olga Bąbel"
        },
        "effectiveDateTime": "2024-04-21T03:55:50Z",
        "specimen": {
          "reference": "urn:uuid:8a7b560c-bdc5-4392-b04c-390039f624bb"
        }
      }
    },
    {
      "fullUrl": "urn:uuid:7aa51a54-5e61-4713-aaf4-48891ee3c65b",
      "resource": {
        "resourceType": "Observation",
        "id": "7aa51a54-5e61-4713-aaf4-48891ee3c65b",
        "meta": {
          "profile": [
            "http://hl7.eu/fhir/laboratory/StructureDefinition/Observation-resultslab-eu-lab"
          ]
        },
        "performer": [
          {
            "display": "The Central European Lab"
          }
        ],
        "category": [
          {
            "coding": [
              {
                "system": "http://terminology.hl7.org/CodeSystem/observation-category",
                "code": "laboratory"
              }
            ]
          }
        ],
        "code": {
          "coding": [
            {
              "code": "6690-2",
              "system": "http://loinc.org",
              "display": "Leukocytes [#/volume] in Blood by Automated count"
            }
          ],
          "text": "Leukocytes [#/volume] in Blood by Automated count"
        },
        "valueQuantity": {
          "system": "http://unitsofmeasure.org",
          "value": 9.3,
          "unit": "10*3/uL",
          "code": "10*3/uL"
        },
        "referenceRange": [
          {
            "low": {
              "value": 3.5,
              "code": "10*3/uL",
              "system": "http://unitsofmeasure.org"
            }
          },
          {
            "high": {
              "value": 10.5,
              "code": "10*3/uL",
              "system": "http://unitsofmeasure.org"
            }
          }
        ],
        "text": {
          "status": "generated",
          "div": "<div xmlns=\"http://www.w3.org/1999/xhtml\"><table class=\"hl7__eu__lab__report\"><tr><th>Test</th><th>21-Apr-2024</th><th>Reference Range</th><th>Unit</th></tr><tr><td>Leukocytes [#/volume] in Blood by Automated count</td><td>9.3</td><td>3.5 - 10.5</td><td></td><td>10*3/uL</td></tr></table></div>"
        },
        "status": "final",
        "subject": {
          "reference": "urn:uuid:a9eb4eb1-7a01-4d62-9b32-3625b54c898d",
          "display": "Olga Bąbel"
        },
        "effectiveDateTime": "2024-04-21T03:55:50Z",
        "specimen": {
          "reference": "urn:uuid:8a7b560c-bdc5-4392-b04c-390039f624bb"
        }
      }
    },
    {
      "fullUrl": "urn:uuid:3a2e9bfe-6608-4bfc-9214-f485bdc5405c",
      "resource": {
        "resourceType": "Observation",
        "id": "3a2e9bfe-6608-4bfc-9214-f485bdc5405c",
        "meta": {
          "profile": [
            "http://hl7.eu/fhir/laboratory/StructureDefinition/Observation-resultslab-eu-lab"
          ]
        },
        "performer": [
          {
            "display": "The Central European Lab"
          }
        ],
        "category": [
          {
            "coding": [
              {
                "system": "http://terminology.hl7.org/CodeSystem/observation-category",
                "code": "laboratory"
              }
            ]
          }
        ],
        "code": {
          "coding": [
            {
              "code": "789-8",
              "system": "http://loinc.org",
              "display": "Erythrocytes [#/volume] in Blood by Automated count"
            }
          ],
          "text": "Erythrocytes [#/volume] in Blood by Automated count"
        },
        "valueQuantity": {
          "system": "http://unitsofmeasure.org",
          "value": 5.4,
          "unit": "10*6/uL",
          "code": "10*6/uL"
        },
        "referenceRange": [
          {
            "low": {
              "value": 4,
              "code": "10*6/uL",
              "system": "http://unitsofmeasure.org"
            }
          },
          {
            "high": {
              "value": 5,
              "code": "10*6/uL",
              "system": "http://unitsofmeasure.org"
            }
          }
        ],
        "interpretation": [
          {
            "coding": [
              {
                "code": "H",
                "system": "http://terminology.hl7.org/CodeSystem/v3-ObservationInterpretation",
                "display": "High"
              }
            ]
          }
        ],
        "text": {
          "status": "generated",
          "div": "<div xmlns=\"http://www.w3.org/1999/xhtml\"><table class=\"hl7__eu__lab__report\"><tr><th>Test</th><th>21-Apr-2024</th><th>Reference Range</th><th>Unit</th></tr><tr><td>Erythrocytes [#/volume] in Blood by Automated count</td><td>5.4</td><td>4 - 5</td><td>H</td><td>10*6/uL</td></tr></table></div>"
        },
        "status": "final",
        "subject": {
          "reference": "urn:uuid:a9eb4eb1-7a01-4d62-9b32-3625b54c898d",
          "display": "Olga Bąbel"
        },
        "effectiveDateTime": "2024-04-21T03:55:50Z",
        "specimen": {
          "reference": "urn:uuid:8a7b560c-bdc5-4392-b04c-390039f624bb"
        }
      }
    },
    {
      "fullUrl": "urn:uuid:2d59cac2-9d27-4c4f-870f-ef2446ecf6bb",
      "resource": {
        "resourceType": "Observation",
        "id": "2d59cac2-9d27-4c4f-870f-ef2446ecf6bb",
        "meta": {
          "profile": [
            "http://hl7.eu/fhir/laboratory/StructureDefinition/Observation-resultslab-eu-lab"
          ]
        },
        "performer": [
          {
            "display": "The Central European Lab"
          }
        ],
        "category": [
          {
            "coding": [
              {
                "system": "http://terminology.hl7.org/CodeSystem/observation-category",
                "code": "laboratory"
              }
            ]
          }
        ],
        "code": {
          "coding": [
            {
              "code": "787-2",
              "system": "http://loinc.org",
              "display": "MCV [Entitic volume] by Automated count"
            }
          ],
          "text": "MCV [Entitic volume] by Automated count"
        },
        "valueQuantity": {
          "system": "http://unitsofmeasure.org",
          "value": 82,
          "unit": "fL",
          "code": "fL"
        },
        "referenceRange": [
          {
            "low": {
              "value": 82,
              "code": "fL",
              "system": "http://unitsofmeasure.org"
            }
          },
          {
            "high": {
              "value": 98,
              "code": "fL",
              "system": "http://unitsofmeasure.org"
            }
          }
        ],
        "text": {
          "status": "generated",
          "div": "<div xmlns=\"http://www.w3.org/1999/xhtml\"><table class=\"hl7__eu__lab__report\"><tr><th>Test</th><th>21-Apr-2024</th><th>Reference Range</th><th>Unit</th></tr><tr><td>MCV [Entitic volume] by Automated count</td><td>82.0</td><td>82 - 98</td><td></td><td>fL</td></tr></table></div>"
        },
        "status": "final",
        "subject": {
          "reference": "urn:uuid:a9eb4eb1-7a01-4d62-9b32-3625b54c898d",
          "display": "Olga Bąbel"
        },
        "effectiveDateTime": "2024-04-21T03:55:50Z",
        "specimen": {
          "reference": "urn:uuid:8a7b560c-bdc5-4392-b04c-390039f624bb"
        }
      }
    },
    {
      "fullUrl": "urn:uuid:bde7b2b5-6828-46c1-a7ea-3fb9500a6e74",
      "resource": {
        "resourceType": "Observation",
        "id": "bde7b2b5-6828-46c1-a7ea-3fb9500a6e74",
        "meta": {
          "profile": [
            "http://hl7.eu/fhir/laboratory/StructureDefinition/Observation-resultslab-eu-lab"
          ]
        },
        "performer": [
          {
            "display": "The Central European Lab"
          }
        ],
        "category": [
          {
            "coding": [
              {
                "system": "http://terminology.hl7.org/CodeSystem/observation-category",
                "code": "laboratory"
              }
            ]
          }
        ],
        "code": {
          "coding": [
            {
              "code": "785-6",
              "system": "http://loinc.org",
              "display": "MCH [Entitic mass] by Automated count"
            }
          ],
          "text": "MCH [Entitic mass] by Automated count"
        },
        "valueQuantity": {
          "system": "http://unitsofmeasure.org",
          "value": 31,
          "unit": "pg",
          "code": "pg"
        },
        "referenceRange": [
          {
            "low": {
              "value": 27,
              "code": "pg",
              "system": "http://unitsofmeasure.org"
            }
          },
          {
            "high": {
              "value": 33,
              "code": "pg",
              "system": "http://unitsofmeasure.org"
            }
          }
        ],
        "text": {
          "status": "generated",
          "div": "<div xmlns=\"http://www.w3.org/1999/xhtml\"><table class=\"hl7__eu__lab__report\"><tr><th>Test</th><th>21-Apr-2024</th><th>Reference Range</th><th>Unit</th></tr><tr><td>MCH [Entitic mass] by Automated count</td><td>31.0</td><td>27 - 33</td><td></td><td>pg</td></tr></table></div>"
        },
        "status": "final",
        "subject": {
          "reference": "urn:uuid:a9eb4eb1-7a01-4d62-9b32-3625b54c898d",
          "display": "Olga Bąbel"
        },
        "effectiveDateTime": "2024-04-21T03:55:50Z",
        "specimen": {
          "reference": "urn:uuid:8a7b560c-bdc5-4392-b04c-390039f624bb"
        }
      }
    },
    {
      "fullUrl": "urn:uuid:e31507de-5eae-4c7b-a483-596ecdd59f61",
      "resource": {
        "resourceType": "Observation",
        "id": "e31507de-5eae-4c7b-a483-596ecdd59f61",
        "meta": {
          "profile": [
            "http://hl7.eu/fhir/laboratory/StructureDefinition/Observation-resultslab-eu-lab"
          ]
        },
        "performer": [
          {
            "display": "The Central European Lab"
          }
        ],
        "category": [
          {
            "coding": [
              {
                "system": "http://terminology.hl7.org/CodeSystem/observation-category",
                "code": "laboratory"
              }
            ]
          }
        ],
        "code": {
          "coding": [
            {
              "code": "786-4",
              "system": "http://loinc.org",
              "display": "MCHC [Mass/volume] by Automated count"
            }
          ],
          "text": "MCHC [Mass/volume] by Automated count"
        },
        "valueQuantity": {
          "system": "http://unitsofmeasure.org",
          "value": 33.1,
          "unit": "g/dL",
          "code": "g/dL"
        },
        "referenceRange": [
          {
            "low": {
              "value": 31,
              "code": "g/dL",
              "system": "http://unitsofmeasure.org"
            }
          },
          {
            "high": {
              "value": 35,
              "code": "g/dL",
              "system": "http://unitsofmeasure.org"
            }
          }
        ],
        "text": {
          "status": "generated",
          "div": "<div xmlns=\"http://www.w3.org/1999/xhtml\"><table class=\"hl7__eu__lab__report\"><tr><th>Test</th><th>21-Apr-2024</th><th>Reference Range</th><th>Unit</th></tr><tr><td>MCHC [Mass/volume] by Automated count</td><td>33.1</td><td>31 - 35</td><td></td><td>g/dL</td></tr></table></div>"
        },
        "status": "final",
        "subject": {
          "reference": "urn:uuid:a9eb4eb1-7a01-4d62-9b32-3625b54c898d",
          "display": "Olga Bąbel"
        },
        "effectiveDateTime": "2024-04-21T03:55:50Z",
        "specimen": {
          "reference": "urn:uuid:8a7b560c-bdc5-4392-b04c-390039f624bb"
        }
      }
    },
    {
      "fullUrl": "urn:uuid:884f6c14-9b80-4e50-9186-fa88c6779e84",
      "resource": {
        "resourceType": "Observation",
        "id": "884f6c14-9b80-4e50-9186-fa88c6779e84",
        "meta": {
          "profile": [
            "http://hl7.eu/fhir/laboratory/StructureDefinition/Observation-resultslab-eu-lab"
          ]
        },
        "performer": [
          {
            "display": "The Central European Lab"
          }
        ],
        "category": [
          {
            "coding": [
              {
                "system": "http://terminology.hl7.org/CodeSystem/observation-category",
                "code": "laboratory"
              }
            ]
          }
        ],
        "code": {
          "coding": [
            {
              "code": "21000-5",
              "system": "http://loinc.org",
              "display": "Erythrocyte distribution width [Entitic volume] by Automated count"
            }
          ],
          "text": "Erythrocyte distribution width [Entitic volume] by Automated count"
        },
        "valueQuantity": {
          "system": "http://unitsofmeasure.org",
          "value": 40.9,
          "unit": "fL",
          "code": "fL"
        },
        "referenceRange": [
          {
            "low": {
              "value": 36,
              "code": "fL",
              "system": "http://unitsofmeasure.org"
            }
          },
          {
            "high": {
              "value": 55,
              "code": "fL",
              "system": "http://unitsofmeasure.org"
            }
          }
        ],
        "text": {
          "status": "generated",
          "div": "<div xmlns=\"http://www.w3.org/1999/xhtml\"><table class=\"hl7__eu__lab__report\"><tr><th>Test</th><th>21-Apr-2024</th><th>Reference Range</th><th>Unit</th></tr><tr><td>Erythrocyte distribution width [Entitic volume] by Automated count</td><td>40.9</td><td>36 - 55</td><td></td><td>fL</td></tr></table></div>"
        },
        "status": "final",
        "subject": {
          "reference": "urn:uuid:a9eb4eb1-7a01-4d62-9b32-3625b54c898d",
          "display": "Olga Bąbel"
        },
        "effectiveDateTime": "2024-04-21T03:55:50Z",
        "specimen": {
          "reference": "urn:uuid:8a7b560c-bdc5-4392-b04c-390039f624bb"
        }
      }
    },
    {
      "fullUrl": "urn:uuid:95e01098-dbf4-46bf-8d99-f46c4e0da035",
      "resource": {
        "resourceType": "Observation",
        "id": "95e01098-dbf4-46bf-8d99-f46c4e0da035",
        "meta": {
          "profile": [
            "http://hl7.eu/fhir/laboratory/StructureDefinition/Observation-resultslab-eu-lab"
          ]
        },
        "performer": [
          {
            "display": "The Central European Lab"
          }
        ],
        "category": [
          {
            "coding": [
              {
                "system": "http://terminology.hl7.org/CodeSystem/observation-category",
                "code": "laboratory"
              }
            ]
          }
        ],
        "code": {
          "coding": [
            {
              "code": "777-3",
              "system": "http://loinc.org",
              "display": "Platelets [#/volume] in Blood by Automated count"
            }
          ],
          "text": "Platelets [#/volume] in Blood by Automated count"
        },
        "valueQuantity": {
          "system": "http://unitsofmeasure.org",
          "value": 297,
          "unit": "10*3/uL",
          "code": "10*3/uL"
        },
        "referenceRange": [
          {
            "low": {
              "value": 150,
              "code": "10*3/uL",
              "system": "http://unitsofmeasure.org"
            }
          },
          {
            "high": {
              "value": 450,
              "code": "10*3/uL",
              "system": "http://unitsofmeasure.org"
            }
          }
        ],
        "text": {
          "status": "generated",
          "div": "<div xmlns=\"http://www.w3.org/1999/xhtml\"><table class=\"hl7__eu__lab__report\"><tr><th>Test</th><th>21-Apr-2024</th><th>Reference Range</th><th>Unit</th></tr><tr><td>Platelets [#/volume] in Blood by Automated count</td><td>297.0</td><td>150 - 450</td><td></td><td>10*3/uL</td></tr></table></div>"
        },
        "status": "final",
        "subject": {
          "reference": "urn:uuid:a9eb4eb1-7a01-4d62-9b32-3625b54c898d",
          "display": "Olga Bąbel"
        },
        "effectiveDateTime": "2024-04-21T03:55:50Z",
        "specimen": {
          "reference": "urn:uuid:8a7b560c-bdc5-4392-b04c-390039f624bb"
        }
      }
    },
    {
      "fullUrl": "urn:uuid:f5cd42ba-2803-4f7d-8065-a312d082d221",
      "resource": {
        "resourceType": "Observation",
        "id": "f5cd42ba-2803-4f7d-8065-a312d082d221",
        "meta": {
          "profile": [
            "http://hl7.eu/fhir/laboratory/StructureDefinition/Observation-resultslab-eu-lab"
          ]
        },
        "performer": [
          {
            "display": "The Central European Lab"
          }
        ],
        "category": [
          {
            "coding": [
              {
                "system": "http://terminology.hl7.org/CodeSystem/observation-category",
                "code": "laboratory"
              }
            ]
          }
        ],
        "code": {
          "coding": [
            {
              "code": "32207-3",
              "system": "http://loinc.org",
              "display": "Platelet distribution width [Entitic volume] in Blood by Automated count"
            }
          ],
          "text": "Platelet distribution width [Entitic volume] in Blood by Automated count"
        },
        "valueQuantity": {
          "system": "http://unitsofmeasure.org",
          "value": 506.5,
          "unit": "fL",
          "code": "fL"
        },
        "referenceRange": [
          {
            "low": {
              "value": 11.6,
              "code": "fL",
              "system": "http://unitsofmeasure.org"
            }
          },
          {
            "high": {
              "value": 17.4,
              "code": "fL",
              "system": "http://unitsofmeasure.org"
            }
          }
        ],
        "interpretation": [
          {
            "coding": [
              {
                "code": "H",
                "system": "http://terminology.hl7.org/CodeSystem/v3-ObservationInterpretation",
                "display": "High"
              }
            ]
          }
        ],
        "text": {
          "status": "generated",
          "div": "<div xmlns=\"http://www.w3.org/1999/xhtml\"><table class=\"hl7__eu__lab__report\"><tr><th>Test</th><th>21-Apr-2024</th><th>Reference Range</th><th>Unit</th></tr><tr><td>Platelet distribution width [Entitic volume] in Blood by Automated count</td><td>506.5</td><td>11.6 - 17.4</td><td>H</td><td>fL</td></tr></table></div>"
        },
        "status": "final",
        "subject": {
          "reference": "urn:uuid:a9eb4eb1-7a01-4d62-9b32-3625b54c898d",
          "display": "Olga Bąbel"
        },
        "effectiveDateTime": "2024-04-21T03:55:50Z",
        "specimen": {
          "reference": "urn:uuid:8a7b560c-bdc5-4392-b04c-390039f624bb"
        }
      }
    },
    {
      "fullUrl": "urn:uuid:c391f719-1a8f-45e1-9bc7-c9e4c4f26397",
      "resource": {
        "resourceType": "Observation",
        "id": "c391f719-1a8f-45e1-9bc7-c9e4c4f26397",
        "meta": {
          "profile": [
            "http://hl7.eu/fhir/laboratory/StructureDefinition/Observation-resultslab-eu-lab"
          ]
        },
        "performer": [
          {
            "display": "The Central European Lab"
          }
        ],
        "category": [
          {
            "coding": [
              {
                "system": "http://terminology.hl7.org/CodeSystem/observation-category",
                "code": "laboratory"
              }
            ]
          }
        ],
        "code": {
          "coding": [
            {
              "code": "32623-1",
              "system": "http://loinc.org",
              "display": "Platelet mean volume [Entitic volume] in Blood by Automated count"
            }
          ],
          "text": "Platelet mean volume [Entitic volume] in Blood by Automated count"
        },
        "valueQuantity": {
          "system": "http://unitsofmeasure.org",
          "value": 12,
          "unit": "fL",
          "code": "fL"
        },
        "referenceRange": [
          {
            "low": {
              "value": 9.6,
              "code": "fL",
              "system": "http://unitsofmeasure.org"
            }
          },
          {
            "high": {
              "value": 13.8,
              "code": "fL",
              "system": "http://unitsofmeasure.org"
            }
          }
        ],
        "text": {
          "status": "generated",
          "div": "<div xmlns=\"http://www.w3.org/1999/xhtml\"><table class=\"hl7__eu__lab__report\"><tr><th>Test</th><th>21-Apr-2024</th><th>Reference Range</th><th>Unit</th></tr><tr><td>Platelet mean volume [Entitic volume] in Blood by Automated count</td><td>12.0</td><td>9.6 - 13.8</td><td></td><td>fL</td></tr></table></div>"
        },
        "status": "final",
        "subject": {
          "reference": "urn:uuid:a9eb4eb1-7a01-4d62-9b32-3625b54c898d",
          "display": "Olga Bąbel"
        },
        "effectiveDateTime": "2024-04-21T03:55:50Z",
        "specimen": {
          "reference": "urn:uuid:8a7b560c-bdc5-4392-b04c-390039f624bb"
        }
      }
    },
    {
      "fullUrl": "urn:uuid:68b021ae-3e59-48fc-8b7a-2cc498ee2d9c",
      "resource": {
        "resourceType": "Device",
        "id": "68b021ae-3e59-48fc-8b7a-2cc498ee2d9c",
        "deviceName": [
          {
            "name": "SYNDERAI Synthetic Generator",
            "type": "manufacturer-name"
          }
        ],
        "version": [
          {
            "value": "5.0"
          }
        ],
        "text": {
          "status": "generated",
          "div": "<div xmlns=\"http://www.w3.org/1999/xhtml\">SYNDERAI Synthetic Generator v5.0</div>"
        },
        "status": "active\"",
        "distinctIdentifier": "synderai-generator-50",
        "manufacturer": "SYNDERAI Project"
      }
    },
    {
      "fullUrl": "urn:uuid:eae5a4bd-bb12-41a6-9e26-5d97ac2e231e",
      "resource": {
        "resourceType": "Provenance",
        "id": "eae5a4bd-bb12-41a6-9e26-5d97ac2e231e",
        "target": [
          {
            "reference": "Patient/a9eb4eb1-7a01-4d62-9b32-3625b54c898d"
          },
          {
            "reference": "Bundle/22ae2468-a840-4ea0-ac33-f8b98d8788a8"
          },
          {
            "reference": "Composition/bbea9966-9bbb-472a-bd5e-3b506c01b494"
          },
          {
            "reference": "PractitionerRole/6b0c0a26-77ed-4382-b312-d55c0ebaa738"
          },
          {
            "reference": "Practitioner/b0b63571-28e1-4189-89e5-1e3b4bed9fe7"
          },
          {
            "reference": "PractitionerRole/8c308d3f-630b-4269-a887-6c22906e6f86"
          },
          {
            "reference": "Organization/d302e501-ff17-4b5d-be3a-54a7f08a0d62"
          }
        ],
        "activity": {
          "text": "Synthetic Example Data Generation"
        },
        "policy": [
          "https://synderai.net/synderai-synthetic-data-policy"
        ],
        "agent": [
          {
            "type": {
              "text": "author"
            },
            "who": {
              "reference": "Device/68b021ae-3e59-48fc-8b7a-2cc498ee2d9c"
            }
          }
        ],
        "reason": [
          {
            "text": "Interoperability Testing and Training (non-clinical use)"
          }
        ],
        "text": {
          "status": "generated",
          "div": "<div xmlns=\"http://www.w3.org/1999/xhtml\">Provenance for SYNDERAI Synthetic Example Data Resource</div>"
        },
        "recorded": "2024-04-21T05:55:50Z"
      }
    },
    {
      "fullUrl": "urn:uuid:6b0c0a26-77ed-4382-b312-d55c0ebaa738",
      "resource": {
        "resourceType": "PractitionerRole",
        "id": "6b0c0a26-77ed-4382-b312-d55c0ebaa738",
        "meta": {
          "profile": [
            "http://hl7.eu/fhir/base/StructureDefinition/practitionerRole-eu"
          ]
        },
        "text": {
          "status": "generated",
          "div": "<div xmlns=\"http://www.w3.org/1999/xhtml\">Laboratory Role Id: 6b0c0a26-77ed-4382-b312-d55c0ebaa738</div>"
        },
        "practitioner": {
          "reference": "urn:uuid:b0b63571-28e1-4189-89e5-1e3b4bed9fe7"
        }
      }
    },
    {
      "fullUrl": "urn:uuid:b0b63571-28e1-4189-89e5-1e3b4bed9fe7",
      "resource": {
        "resourceType": "Practitioner",
        "id": "b0b63571-28e1-4189-89e5-1e3b4bed9fe7",
        "meta": {
          "profile": [
            "http://hl7.eu/fhir/base/StructureDefinition/practitioner-eu"
          ]
        },
        "identifier": [
          {
            "assigner": {
              "display": "HL7 Europe"
            },
            "system": "urn:oid:2.16.840.1.113883.2.51.999",
            "value": "988ca1a7-e40b-4ea7-9842-fedb5eda07ac"
          }
        ],
        "name": [
          {
            "prefix": [
              "dr"
            ],
            "given": [
              "Ex"
            ],
            "family": "Ample"
          }
        ],
        "address": [
          {
            "line": [
              "Laboratoire Central Européenne",
              "Boulevard du Jardin Botanique 32"
            ],
            "postalCode": "1000",
            "city": "Brussels",
            "country": "Belgium"
          }
        ],
        "text": {
          "status": "generated",
          "div": "<div xmlns=\"http://www.w3.org/1999/xhtml\">Laboratory: Laboratoire Central Européenne, 1000 Brussels, Belgium</div>"
        }
      }
    }
  ],
  "type": "document",
  "timestamp": "2024-04-21T05:55:50Z"
}
