{
  "resourceType": "Bundle",
  "id": "fdae0ecb-b2f0-489d-8d21-083886e91ba9",
  "meta": {
    "profile": [
      "http://hl7.eu/fhir/laboratory/StructureDefinition/Bundle-eu-lab"
    ]
  },
  "identifier": {
    "assigner": {
      "display": "HL7 Europe"
    },
    "system": "urn:oid:2.16.840.1.113883.2.51.999",
    "value": "697d2c89-cedd-4ae9-83a8-81e995c81c4a"
  },
  "entry": [
    {
      "fullUrl": "urn:uuid:e92cff81-e8f4-4389-9caa-a72c5969d3f5",
      "resource": {
        "resourceType": "Composition",
        "id": "e92cff81-e8f4-4389-9caa-a72c5969d3f5",
        "meta": {
          "profile": [
            "http://hl7.eu/fhir/laboratory/StructureDefinition/Composition-eu-lab"
          ]
        },
        "identifier": {
          "assigner": {
            "display": "HL7 Europe"
          },
          "system": "urn:oid:2.16.840.1.113883.2.51.999",
          "value": "286b104b-b273-457e-96ce-30deca13e996"
        },
        "author": [
          {
            "reference": "urn:uuid:9e2cebdd-6440-4eb1-a064-4e218420fa18"
          }
        ],
        "category": [
          {
            "coding": [
              {
                "code": "26436-6",
                "system": "http://loinc.org",
                "display": "Laboratory studies (set)"
              }
            ]
          }
        ],
        "type": {
          "coding": [
            {
              "code": "11502-2",
              "system": "http://loinc.org",
              "display": "Laboratory report"
            }
          ],
          "text": "Laboratory Report"
        },
        "section": [
          {
            "code": {
              "coding": [
                {
                  "code": "26436-6",
                  "system": "http://loinc.org",
                  "display": "Laboratory studies (set)"
                }
              ],
              "text": "Laboratory studies"
            },
            "section": [
              {
                "code": {
                  "coding": [
                    {
                      "code": "$18719-5",
                      "system": "http://loinc.org",
                      "display": "Chemistry studies (set)"
                    }
                  ],
                  "text": "Chemistry"
                },
                "entry": [
                  {
                    "reference": "urn:uuid:ef7863cf-4723-43cb-b464-b21a4318b18d"
                  },
                  {
                    "reference": "urn:uuid:193f76ba-b9f0-408f-a710-1c0192a6e48d"
                  },
                  {
                    "reference": "urn:uuid:1648a41f-a071-4912-8378-d7ddbfb48fd3"
                  },
                  {
                    "reference": "urn:uuid:7b5fcee5-da8b-4655-9b95-e68b65e1b39b"
                  },
                  {
                    "reference": "urn:uuid:fd08d46d-93cd-42ef-80cb-5c8192f935b2"
                  },
                  {
                    "reference": "urn:uuid:eb749daf-31ca-47ba-854f-05d6cba20308"
                  },
                  {
                    "reference": "urn:uuid:419eb8dc-77d3-436c-bd53-22dcbd5c27ca"
                  },
                  {
                    "reference": "urn:uuid:7e2f9e56-59b8-4429-93a6-53ccbb07ef8a"
                  },
                  {
                    "reference": "urn:uuid:3dbbcd92-cfa5-436f-a0b6-6ac75e455548"
                  }
                ],
                "text": {
                  "status": "generated",
                  "div": "<div xmlns=\"http://www.w3.org/1999/xhtml\"><h3>Chemistry</h3><table class=\"hl7__eu__lab__report\"><thead><tr><th>Test</th><th>01-OCT-2024</th><th>Reference&#xA0;Range</th><th>Unit</th></tr></thead><tbody><tr><td>Hemoglobin A1c/Hemoglobin.total in Blood</td><td>6.2</td><td>4.5 - 6.4</td><td>%</td></tr><tr><td>Glucose [Mass/volume] in Blood</td><td>84.0</td><td>70 - 99</td><td>mg/dL</td></tr><tr><td>Urea nitrogen [Mass/volume] in Blood</td><td>7.9</td><td>7 - 20</td><td>mg/dL</td></tr><tr><td>Creatinine [Mass/volume] in Blood</td><td>0.9</td><td>0.9 - 1.3</td><td>mg/dL</td></tr><tr><td>Calcium [Mass/volume] in Blood</td><td>9.3</td><td>8.6 - 10.2</td><td>mg/dL</td></tr><tr><td>Sodium [Moles/volume] in Blood</td><td>140.1</td><td>135 - 145</td><td>mmol/L</td></tr><tr><td>Potassium [Moles/volume] in Blood</td><td>4.3</td><td>3.5 - 5.1</td><td>mmol/L</td></tr><tr><td>Chloride [Moles/volume] in Blood</td><td>104.3</td><td>98 - 108</td><td>mmol/L</td></tr><tr><td>Carbon dioxide, total [Moles/volume] in Blood</td><td><strong>20.8 L</strong></td><td>22 - 29</td><td>mmol/L</td></tr></tbody></table></div>"
                },
                "title": "Chemistry"
              }
            ],
            "title": "Laboratory Report"
          },
          {
            "text": {
              "status": "generated",
              "div": "<div xmlns=\"http://www.w3.org/1999/xhtml\"><h3>Annotation</h3><table class=\"hl7__eu__lab__report\"><tr><th>Conclusion and Recommendations based on this report and previous findings known to us</th></tr><tr><td>All measured parameters are within or close to normal ranges, except for a mildly decreased total CO₂, which may suggest mild metabolic acidosis or compensated respiratory alkalosis. Renal function, glucose control, and electrolytes are stable. Clinical correlation is recommended if symptoms are present.</td></tr></table></div>"
            },
            "code": {
              "coding": [
                {
                  "system": "http://loinc.org",
                  "code": "48767-8",
                  "display": "Annotation comment"
                }
              ]
            },
            "title": "Annotation comment"
          }
        ],
        "status": "final",
        "subject": {
          "reference": "urn:uuid:3666fbd7-6f3a-4019-83c3-8dc7fb597d0c",
          "display": "Khalid Nilsson"
        },
        "date": "2024-10-01T01:04:23Z",
        "title": "Laboratory Report",
        "confidentiality": "N"
      }
    },
    {
      "fullUrl": "urn:uuid:80e38bf7-ebd4-4da2-97cc-9caa417c0415",
      "resource": {
        "resourceType": "DiagnosticReport",
        "id": "80e38bf7-ebd4-4da2-97cc-9caa417c0415",
        "meta": {
          "profile": [
            "http://hl7.eu/fhir/laboratory/StructureDefinition/DiagnosticReport-eu-lab"
          ]
        },
        "identifier": [
          {
            "assigner": {
              "display": "HL7 Europe"
            },
            "system": "urn:oid:2.16.840.1.113883.2.51.999",
            "value": "8e21c7d7-82f9-45d0-a3e5-30c474033972"
          }
        ],
        "extension": [
          {
            "url": "http://hl7.org/fhir/5.0/StructureDefinition/extension-DiagnosticReport.composition",
            "valueReference": {
              "reference": "urn:uuid:286b104b-b273-457e-96ce-30deca13e996"
            }
          }
        ],
        "category": [
          {
            "coding": [
              {
                "code": "26436-6",
                "system": "http://loinc.org",
                "display": "Laboratory studies (set)"
              }
            ]
          }
        ],
        "specimen": [
          {
            "reference": "urn:uuid:b4d09b94-b058-44ed-b86a-a50044eb2dbc"
          }
        ],
        "result": [
          {
            "reference": "urn:uuid:ef7863cf-4723-43cb-b464-b21a4318b18d"
          },
          {
            "reference": "urn:uuid:193f76ba-b9f0-408f-a710-1c0192a6e48d"
          },
          {
            "reference": "urn:uuid:1648a41f-a071-4912-8378-d7ddbfb48fd3"
          },
          {
            "reference": "urn:uuid:7b5fcee5-da8b-4655-9b95-e68b65e1b39b"
          },
          {
            "reference": "urn:uuid:fd08d46d-93cd-42ef-80cb-5c8192f935b2"
          },
          {
            "reference": "urn:uuid:eb749daf-31ca-47ba-854f-05d6cba20308"
          },
          {
            "reference": "urn:uuid:419eb8dc-77d3-436c-bd53-22dcbd5c27ca"
          },
          {
            "reference": "urn:uuid:7e2f9e56-59b8-4429-93a6-53ccbb07ef8a"
          },
          {
            "reference": "urn:uuid:3dbbcd92-cfa5-436f-a0b6-6ac75e455548"
          }
        ],
        "status": "registered",
        "code": {
          "coding": [
            {
              "code": "11502-2",
              "system": "http://loinc.org",
              "display": "Laboratory report"
            }
          ]
        },
        "subject": {
          "reference": "urn:uuid:3666fbd7-6f3a-4019-83c3-8dc7fb597d0c",
          "display": "Khalid Nilsson"
        }
      }
    },
    {
      "fullUrl": "urn:uuid:3666fbd7-6f3a-4019-83c3-8dc7fb597d0c",
      "resource": {
        "resourceType": "Patient",
        "id": "3666fbd7-6f3a-4019-83c3-8dc7fb597d0c",
        "meta": {
          "security": [
            {
              "system": "http://terminology.hl7.org/CodeSystem/v3-ActReason",
              "code": "HTEST"
            },
            {
              "system": "http://terminology.hl7.org/CodeSystem/v3-ActReason",
              "code": "TRAIN"
            }
          ],
          "tag": [
            {
              "system": "https://synderai.net/fhir/CodeSystem/tags",
              "code": "synthetic",
              "display": "SYNDERAI Synthetic data"
            }
          ],
          "profile": [
            "http://hl7.eu/fhir/base/StructureDefinition/patient-eu-core"
          ]
        },
        "identifier": [
          {
            "type": {
              "coding": [
                {
                  "code": "PT",
                  "system": "http://terminology.hl7.org/CodeSystem/v2-0203"
                }
              ]
            },
            "system": "http://ec.europa.eu/identifier/eci",
            "value": "8339-594203-6"
          },
          {
            "type": {
              "coding": [
                {
                  "code": "MR",
                  "system": "http://terminology.hl7.org/CodeSystem/v2-0203"
                }
              ]
            },
            "system": "http://local.setting.eu/identifier",
            "value": "db9680f4-3d2c-0551-cb1c-61573f88f405"
          }
        ],
        "name": [
          {
            "family": "Nilsson"
          },
          {
            "given": [
              "Khalid"
            ]
          },
          {
            "text": "Khalid Nilsson"
          }
        ],
        "address": [
          {
            "line": [
              "Gengränd 482"
            ],
            "use": "home",
            "type": "physical",
            "postalCode": "691 31",
            "city": "Karlskoga",
            "country": "Sweden"
          }
        ],
        "telecom": [
          {
            "system": "phone",
            "value": "+46 (0)8 888 657 95"
          }
        ],
        "extension": [
          {
            "url": "http://hl7.org/fhir/StructureDefinition/patient-nationality",
            "valueCodeableConcept": {
              "coding": [
                {
                  "code": "SE",
                  "system": "http://hl7.org/fhir/ValueSet/country"
                }
              ]
            }
          }
        ],
        "text": {
          "status": "generated",
          "div": "<div xmlns=\"http://www.w3.org/1999/xhtml\"><table class=\"hl7__ips\"><tr><td>Khalid Nilsson</td><td>male</td><td>10-Apr-1952</td></tr></table></div>"
        },
        "gender": "male",
        "birthDate": "1952-04-10"
      }
    },
    {
      "fullUrl": "urn:uuid:4bb61959-937a-4b19-9bb0-e1bd19831c5f",
      "resource": {
        "resourceType": "ServiceRequest",
        "id": "4bb61959-937a-4b19-9bb0-e1bd19831c5f",
        "meta": {
          "profile": [
            "http://hl7.eu/fhir/laboratory/StructureDefinition/ServiceRequest-eu-lab"
          ]
        },
        "identifier": [
          {
            "system": "http://example.org",
            "value": "2aa736a4-fbc1-4fbb-8f03-545b08e56633"
          }
        ],
        "specimen": [
          {
            "reference": "urn:uuid:b4d09b94-b058-44ed-b86a-a50044eb2dbc"
          }
        ],
        "reasonCode": [
          {
            "coding": [
              {
                "code": "64859006",
                "system": "http://snomed.info/sct",
                "display": "Osteoporosis"
              }
            ]
          },
          {
            "coding": [
              {
                "code": "196416002",
                "system": "http://snomed.info/sct",
                "display": "Impacted molars"
              }
            ]
          },
          {
            "coding": [
              {
                "code": "414545008",
                "system": "http://snomed.info/sct",
                "display": "Ischemic heart disease"
              }
            ]
          },
          {
            "coding": [
              {
                "code": "40055000",
                "system": "http://snomed.info/sct",
                "display": "Chronic sinusitis"
              }
            ]
          },
          {
            "coding": [
              {
                "code": "197927001",
                "system": "http://snomed.info/sct",
                "display": "Recurrent urinary tract infection"
              }
            ]
          },
          {
            "coding": [
              {
                "code": "15777000",
                "system": "http://snomed.info/sct",
                "display": "Prediabetes"
              }
            ]
          },
          {
            "coding": [
              {
                "code": "271737000",
                "system": "http://snomed.info/sct",
                "display": "Anemia"
              }
            ]
          }
        ],
        "status": "active",
        "intent": "order",
        "code": {
          "coding": [
            {
              "code": "108252007",
              "system": "http://snomed.info/sct",
              "display": "Laboratory procedure"
            }
          ]
        },
        "subject": {
          "reference": "urn:uuid:3666fbd7-6f3a-4019-83c3-8dc7fb597d0c",
          "display": "Khalid Nilsson"
        },
        "requester": {
          "reference": "urn:uuid:267f706b-5e31-4300-b4b8-3201b949e912"
        }
      }
    },
    {
      "fullUrl": "urn:uuid:267f706b-5e31-4300-b4b8-3201b949e912",
      "resource": {
        "resourceType": "PractitionerRole",
        "id": "267f706b-5e31-4300-b4b8-3201b949e912",
        "meta": {
          "profile": [
            "http://hl7.eu/fhir/base/StructureDefinition/practitionerRole-eu"
          ]
        },
        "text": {
          "status": "generated",
          "div": "<div xmlns=\"http://www.w3.org/1999/xhtml\">Provider Role Id: 267f706b-5e31-4300-b4b8-3201b949e912</div>"
        },
        "organization": {
          "reference": "urn:uuid:586bd70b-6b3b-4de2-8b66-14fc0620b2de"
        }
      }
    },
    {
      "fullUrl": "urn:uuid:586bd70b-6b3b-4de2-8b66-14fc0620b2de",
      "resource": {
        "resourceType": "Organization",
        "id": "586bd70b-6b3b-4de2-8b66-14fc0620b2de",
        "meta": {
          "profile": [
            "http://hl7.eu/fhir/base/StructureDefinition/organization-eu"
          ]
        },
        "identifier": [
          {
            "assigner": {
              "display": "HL7 Europe"
            },
            "system": "urn:oid:2.16.840.1.113883.2.51.999",
            "value": "3cd76b4e-859d-40c5-bb11-cbdfbe4e9380"
          }
        ],
        "address": [
          {
            "city": "Karlskoga",
            "postalCode": "691 31",
            "country": "Sweden"
          }
        ],
        "text": {
          "status": "generated",
          "div": "<div xmlns=\"http://www.w3.org/1999/xhtml\">Provider Organization: Karlskoga Lasarett</div>"
        },
        "name": "Karlskoga Lasarett"
      }
    },
    {
      "fullUrl": "urn:uuid:b4d09b94-b058-44ed-b86a-a50044eb2dbc",
      "resource": {
        "resourceType": "Specimen",
        "id": "b4d09b94-b058-44ed-b86a-a50044eb2dbc",
        "meta": {
          "profile": [
            "http://hl7.eu/fhir/laboratory/StructureDefinition/Specimen-eu-lab"
          ]
        },
        "collection": {
          "collectedDateTime": "2024-09-30"
        },
        "text": {
          "status": "generated",
          "div": "<div xmlns=\"http://www.w3.org/1999/xhtml\"><table class=\"hl7__eu__lab__report\"><tr><th>Specimen</th><th>Collection Date</th></tr><tr><td>Whole blood specimen (specimen)</td><td><span class=\"nb\">30-Sep-2024</span></td></tr></table></div>"
        },
        "type": {
          "coding": [
            {
              "code": "258580003",
              "system": "http://snomed.info/sct",
              "display": "Whole blood specimen (specimen)"
            }
          ]
        }
      }
    },
    {
      "fullUrl": "urn:uuid:ef7863cf-4723-43cb-b464-b21a4318b18d",
      "resource": {
        "resourceType": "Observation",
        "id": "ef7863cf-4723-43cb-b464-b21a4318b18d",
        "meta": {
          "profile": [
            "http://hl7.eu/fhir/laboratory/StructureDefinition/Observation-resultslab-eu-lab"
          ]
        },
        "performer": [
          {
            "display": "The Central European Lab"
          }
        ],
        "category": [
          {
            "coding": [
              {
                "system": "http://terminology.hl7.org/CodeSystem/observation-category",
                "code": "laboratory"
              }
            ]
          }
        ],
        "code": {
          "coding": [
            {
              "code": "4548-4",
              "system": "http://loinc.org",
              "display": "Hemoglobin A1c/Hemoglobin.total in Blood"
            }
          ],
          "text": "Hemoglobin A1c/Hemoglobin.total in Blood"
        },
        "valueQuantity": {
          "system": "http://unitsofmeasure.org",
          "value": 6.2,
          "unit": "%",
          "code": "%"
        },
        "referenceRange": [
          {
            "low": {
              "value": 4.5,
              "code": "%",
              "system": "http://unitsofmeasure.org"
            }
          },
          {
            "high": {
              "value": 6.4,
              "code": "%",
              "system": "http://unitsofmeasure.org"
            }
          }
        ],
        "text": {
          "status": "generated",
          "div": "<div xmlns=\"http://www.w3.org/1999/xhtml\"><table class=\"hl7__eu__lab__report\"><tr><th>Test</th><th>01-Oct-2024</th><th>Reference&#xA0;Range</th><th>Unit</th></tr><tr><td>Hemoglobin A1c/Hemoglobin.total in Blood</td><td>6.2</td><td>4.5 - 6.4</td><td></td><td>%</td></tr></table></div>"
        },
        "status": "final",
        "subject": {
          "reference": "urn:uuid:3666fbd7-6f3a-4019-83c3-8dc7fb597d0c",
          "display": "Khalid Nilsson"
        },
        "effectiveDateTime": "2024-09-30T23:04:23Z",
        "specimen": {
          "reference": "urn:uuid:b4d09b94-b058-44ed-b86a-a50044eb2dbc"
        }
      }
    },
    {
      "fullUrl": "urn:uuid:193f76ba-b9f0-408f-a710-1c0192a6e48d",
      "resource": {
        "resourceType": "Observation",
        "id": "193f76ba-b9f0-408f-a710-1c0192a6e48d",
        "meta": {
          "profile": [
            "http://hl7.eu/fhir/laboratory/StructureDefinition/Observation-resultslab-eu-lab"
          ]
        },
        "performer": [
          {
            "display": "The Central European Lab"
          }
        ],
        "category": [
          {
            "coding": [
              {
                "system": "http://terminology.hl7.org/CodeSystem/observation-category",
                "code": "laboratory"
              }
            ]
          }
        ],
        "code": {
          "coding": [
            {
              "code": "2339-0",
              "system": "http://loinc.org",
              "display": "Glucose [Mass/volume] in Blood"
            }
          ],
          "text": "Glucose [Mass/volume] in Blood"
        },
        "valueQuantity": {
          "system": "http://unitsofmeasure.org",
          "value": 84,
          "unit": "mg/dL",
          "code": "mg/dL"
        },
        "referenceRange": [
          {
            "low": {
              "value": 70,
              "code": "mg/dL",
              "system": "http://unitsofmeasure.org"
            }
          },
          {
            "high": {
              "value": 99,
              "code": "mg/dL",
              "system": "http://unitsofmeasure.org"
            }
          }
        ],
        "text": {
          "status": "generated",
          "div": "<div xmlns=\"http://www.w3.org/1999/xhtml\"><table class=\"hl7__eu__lab__report\"><tr><th>Test</th><th>01-Oct-2024</th><th>Reference&#xA0;Range</th><th>Unit</th></tr><tr><td>Glucose [Mass/volume] in Blood</td><td>84.0</td><td>70 - 99</td><td></td><td>mg/dL</td></tr></table></div>"
        },
        "status": "final",
        "subject": {
          "reference": "urn:uuid:3666fbd7-6f3a-4019-83c3-8dc7fb597d0c",
          "display": "Khalid Nilsson"
        },
        "effectiveDateTime": "2024-09-30T23:04:23Z",
        "specimen": {
          "reference": "urn:uuid:b4d09b94-b058-44ed-b86a-a50044eb2dbc"
        }
      }
    },
    {
      "fullUrl": "urn:uuid:1648a41f-a071-4912-8378-d7ddbfb48fd3",
      "resource": {
        "resourceType": "Observation",
        "id": "1648a41f-a071-4912-8378-d7ddbfb48fd3",
        "meta": {
          "profile": [
            "http://hl7.eu/fhir/laboratory/StructureDefinition/Observation-resultslab-eu-lab"
          ]
        },
        "performer": [
          {
            "display": "The Central European Lab"
          }
        ],
        "category": [
          {
            "coding": [
              {
                "system": "http://terminology.hl7.org/CodeSystem/observation-category",
                "code": "laboratory"
              }
            ]
          }
        ],
        "code": {
          "coding": [
            {
              "code": "6299-2",
              "system": "http://loinc.org",
              "display": "Urea nitrogen [Mass/volume] in Blood"
            }
          ],
          "text": "Urea nitrogen [Mass/volume] in Blood"
        },
        "valueQuantity": {
          "system": "http://unitsofmeasure.org",
          "value": 7.9,
          "unit": "mg/dL",
          "code": "mg/dL"
        },
        "referenceRange": [
          {
            "low": {
              "value": 7,
              "code": "mg/dL",
              "system": "http://unitsofmeasure.org"
            }
          },
          {
            "high": {
              "value": 20,
              "code": "mg/dL",
              "system": "http://unitsofmeasure.org"
            }
          }
        ],
        "text": {
          "status": "generated",
          "div": "<div xmlns=\"http://www.w3.org/1999/xhtml\"><table class=\"hl7__eu__lab__report\"><tr><th>Test</th><th>01-Oct-2024</th><th>Reference&#xA0;Range</th><th>Unit</th></tr><tr><td>Urea nitrogen [Mass/volume] in Blood</td><td>7.9</td><td>7 - 20</td><td></td><td>mg/dL</td></tr></table></div>"
        },
        "status": "final",
        "subject": {
          "reference": "urn:uuid:3666fbd7-6f3a-4019-83c3-8dc7fb597d0c",
          "display": "Khalid Nilsson"
        },
        "effectiveDateTime": "2024-09-30T23:04:23Z",
        "specimen": {
          "reference": "urn:uuid:b4d09b94-b058-44ed-b86a-a50044eb2dbc"
        }
      }
    },
    {
      "fullUrl": "urn:uuid:7b5fcee5-da8b-4655-9b95-e68b65e1b39b",
      "resource": {
        "resourceType": "Observation",
        "id": "7b5fcee5-da8b-4655-9b95-e68b65e1b39b",
        "meta": {
          "profile": [
            "http://hl7.eu/fhir/laboratory/StructureDefinition/Observation-resultslab-eu-lab"
          ]
        },
        "performer": [
          {
            "display": "The Central European Lab"
          }
        ],
        "category": [
          {
            "coding": [
              {
                "system": "http://terminology.hl7.org/CodeSystem/observation-category",
                "code": "laboratory"
              }
            ]
          }
        ],
        "code": {
          "coding": [
            {
              "code": "38483-4",
              "system": "http://loinc.org",
              "display": "Creatinine [Mass/volume] in Blood"
            }
          ],
          "text": "Creatinine [Mass/volume] in Blood"
        },
        "valueQuantity": {
          "system": "http://unitsofmeasure.org",
          "value": 0.9,
          "unit": "mg/dL",
          "code": "mg/dL"
        },
        "referenceRange": [
          {
            "low": {
              "value": 0.9,
              "code": "mg/dL",
              "system": "http://unitsofmeasure.org"
            }
          },
          {
            "high": {
              "value": 1.3,
              "code": "mg/dL",
              "system": "http://unitsofmeasure.org"
            }
          }
        ],
        "text": {
          "status": "generated",
          "div": "<div xmlns=\"http://www.w3.org/1999/xhtml\"><table class=\"hl7__eu__lab__report\"><tr><th>Test</th><th>01-Oct-2024</th><th>Reference&#xA0;Range</th><th>Unit</th></tr><tr><td>Creatinine [Mass/volume] in Blood</td><td>0.9</td><td>0.9 - 1.3</td><td></td><td>mg/dL</td></tr></table></div>"
        },
        "status": "final",
        "subject": {
          "reference": "urn:uuid:3666fbd7-6f3a-4019-83c3-8dc7fb597d0c",
          "display": "Khalid Nilsson"
        },
        "effectiveDateTime": "2024-09-30T23:04:23Z",
        "specimen": {
          "reference": "urn:uuid:b4d09b94-b058-44ed-b86a-a50044eb2dbc"
        }
      }
    },
    {
      "fullUrl": "urn:uuid:fd08d46d-93cd-42ef-80cb-5c8192f935b2",
      "resource": {
        "resourceType": "Observation",
        "id": "fd08d46d-93cd-42ef-80cb-5c8192f935b2",
        "meta": {
          "profile": [
            "http://hl7.eu/fhir/laboratory/StructureDefinition/Observation-resultslab-eu-lab"
          ]
        },
        "performer": [
          {
            "display": "The Central European Lab"
          }
        ],
        "category": [
          {
            "coding": [
              {
                "system": "http://terminology.hl7.org/CodeSystem/observation-category",
                "code": "laboratory"
              }
            ]
          }
        ],
        "code": {
          "coding": [
            {
              "code": "49765-1",
              "system": "http://loinc.org",
              "display": "Calcium [Mass/volume] in Blood"
            }
          ],
          "text": "Calcium [Mass/volume] in Blood"
        },
        "valueQuantity": {
          "system": "http://unitsofmeasure.org",
          "value": 9.3,
          "unit": "mg/dL",
          "code": "mg/dL"
        },
        "referenceRange": [
          {
            "low": {
              "value": 8.6,
              "code": "mg/dL",
              "system": "http://unitsofmeasure.org"
            }
          },
          {
            "high": {
              "value": 10.2,
              "code": "mg/dL",
              "system": "http://unitsofmeasure.org"
            }
          }
        ],
        "text": {
          "status": "generated",
          "div": "<div xmlns=\"http://www.w3.org/1999/xhtml\"><table class=\"hl7__eu__lab__report\"><tr><th>Test</th><th>01-Oct-2024</th><th>Reference&#xA0;Range</th><th>Unit</th></tr><tr><td>Calcium [Mass/volume] in Blood</td><td>9.3</td><td>8.6 - 10.2</td><td></td><td>mg/dL</td></tr></table></div>"
        },
        "status": "final",
        "subject": {
          "reference": "urn:uuid:3666fbd7-6f3a-4019-83c3-8dc7fb597d0c",
          "display": "Khalid Nilsson"
        },
        "effectiveDateTime": "2024-09-30T23:04:23Z",
        "specimen": {
          "reference": "urn:uuid:b4d09b94-b058-44ed-b86a-a50044eb2dbc"
        }
      }
    },
    {
      "fullUrl": "urn:uuid:eb749daf-31ca-47ba-854f-05d6cba20308",
      "resource": {
        "resourceType": "Observation",
        "id": "eb749daf-31ca-47ba-854f-05d6cba20308",
        "meta": {
          "profile": [
            "http://hl7.eu/fhir/laboratory/StructureDefinition/Observation-resultslab-eu-lab"
          ]
        },
        "performer": [
          {
            "display": "The Central European Lab"
          }
        ],
        "category": [
          {
            "coding": [
              {
                "system": "http://terminology.hl7.org/CodeSystem/observation-category",
                "code": "laboratory"
              }
            ]
          }
        ],
        "code": {
          "coding": [
            {
              "code": "2947-0",
              "system": "http://loinc.org",
              "display": "Sodium [Moles/volume] in Blood"
            }
          ],
          "text": "Sodium [Moles/volume] in Blood"
        },
        "valueQuantity": {
          "system": "http://unitsofmeasure.org",
          "value": 140.1,
          "unit": "mmol/L",
          "code": "mmol/L"
        },
        "referenceRange": [
          {
            "low": {
              "value": 135,
              "code": "mmol/L",
              "system": "http://unitsofmeasure.org"
            }
          },
          {
            "high": {
              "value": 145,
              "code": "mmol/L",
              "system": "http://unitsofmeasure.org"
            }
          }
        ],
        "text": {
          "status": "generated",
          "div": "<div xmlns=\"http://www.w3.org/1999/xhtml\"><table class=\"hl7__eu__lab__report\"><tr><th>Test</th><th>01-Oct-2024</th><th>Reference&#xA0;Range</th><th>Unit</th></tr><tr><td>Sodium [Moles/volume] in Blood</td><td>140.1</td><td>135 - 145</td><td></td><td>mmol/L</td></tr></table></div>"
        },
        "status": "final",
        "subject": {
          "reference": "urn:uuid:3666fbd7-6f3a-4019-83c3-8dc7fb597d0c",
          "display": "Khalid Nilsson"
        },
        "effectiveDateTime": "2024-09-30T23:04:23Z",
        "specimen": {
          "reference": "urn:uuid:b4d09b94-b058-44ed-b86a-a50044eb2dbc"
        }
      }
    },
    {
      "fullUrl": "urn:uuid:419eb8dc-77d3-436c-bd53-22dcbd5c27ca",
      "resource": {
        "resourceType": "Observation",
        "id": "419eb8dc-77d3-436c-bd53-22dcbd5c27ca",
        "meta": {
          "profile": [
            "http://hl7.eu/fhir/laboratory/StructureDefinition/Observation-resultslab-eu-lab"
          ]
        },
        "performer": [
          {
            "display": "The Central European Lab"
          }
        ],
        "category": [
          {
            "coding": [
              {
                "system": "http://terminology.hl7.org/CodeSystem/observation-category",
                "code": "laboratory"
              }
            ]
          }
        ],
        "code": {
          "coding": [
            {
              "code": "6298-4",
              "system": "http://loinc.org",
              "display": "Potassium [Moles/volume] in Blood"
            }
          ],
          "text": "Potassium [Moles/volume] in Blood"
        },
        "valueQuantity": {
          "system": "http://unitsofmeasure.org",
          "value": 4.3,
          "unit": "mmol/L",
          "code": "mmol/L"
        },
        "referenceRange": [
          {
            "low": {
              "value": 3.5,
              "code": "mmol/L",
              "system": "http://unitsofmeasure.org"
            }
          },
          {
            "high": {
              "value": 5.1,
              "code": "mmol/L",
              "system": "http://unitsofmeasure.org"
            }
          }
        ],
        "text": {
          "status": "generated",
          "div": "<div xmlns=\"http://www.w3.org/1999/xhtml\"><table class=\"hl7__eu__lab__report\"><tr><th>Test</th><th>01-Oct-2024</th><th>Reference&#xA0;Range</th><th>Unit</th></tr><tr><td>Potassium [Moles/volume] in Blood</td><td>4.3</td><td>3.5 - 5.1</td><td></td><td>mmol/L</td></tr></table></div>"
        },
        "status": "final",
        "subject": {
          "reference": "urn:uuid:3666fbd7-6f3a-4019-83c3-8dc7fb597d0c",
          "display": "Khalid Nilsson"
        },
        "effectiveDateTime": "2024-09-30T23:04:23Z",
        "specimen": {
          "reference": "urn:uuid:b4d09b94-b058-44ed-b86a-a50044eb2dbc"
        }
      }
    },
    {
      "fullUrl": "urn:uuid:7e2f9e56-59b8-4429-93a6-53ccbb07ef8a",
      "resource": {
        "resourceType": "Observation",
        "id": "7e2f9e56-59b8-4429-93a6-53ccbb07ef8a",
        "meta": {
          "profile": [
            "http://hl7.eu/fhir/laboratory/StructureDefinition/Observation-resultslab-eu-lab"
          ]
        },
        "performer": [
          {
            "display": "The Central European Lab"
          }
        ],
        "category": [
          {
            "coding": [
              {
                "system": "http://terminology.hl7.org/CodeSystem/observation-category",
                "code": "laboratory"
              }
            ]
          }
        ],
        "code": {
          "coding": [
            {
              "code": "2069-3",
              "system": "http://loinc.org",
              "display": "Chloride [Moles/volume] in Blood"
            }
          ],
          "text": "Chloride [Moles/volume] in Blood"
        },
        "valueQuantity": {
          "system": "http://unitsofmeasure.org",
          "value": 104.3,
          "unit": "mmol/L",
          "code": "mmol/L"
        },
        "referenceRange": [
          {
            "low": {
              "value": 98,
              "code": "mmol/L",
              "system": "http://unitsofmeasure.org"
            }
          },
          {
            "high": {
              "value": 108,
              "code": "mmol/L",
              "system": "http://unitsofmeasure.org"
            }
          }
        ],
        "text": {
          "status": "generated",
          "div": "<div xmlns=\"http://www.w3.org/1999/xhtml\"><table class=\"hl7__eu__lab__report\"><tr><th>Test</th><th>01-Oct-2024</th><th>Reference&#xA0;Range</th><th>Unit</th></tr><tr><td>Chloride [Moles/volume] in Blood</td><td>104.3</td><td>98 - 108</td><td></td><td>mmol/L</td></tr></table></div>"
        },
        "status": "final",
        "subject": {
          "reference": "urn:uuid:3666fbd7-6f3a-4019-83c3-8dc7fb597d0c",
          "display": "Khalid Nilsson"
        },
        "effectiveDateTime": "2024-09-30T23:04:23Z",
        "specimen": {
          "reference": "urn:uuid:b4d09b94-b058-44ed-b86a-a50044eb2dbc"
        }
      }
    },
    {
      "fullUrl": "urn:uuid:3dbbcd92-cfa5-436f-a0b6-6ac75e455548",
      "resource": {
        "resourceType": "Observation",
        "id": "3dbbcd92-cfa5-436f-a0b6-6ac75e455548",
        "meta": {
          "profile": [
            "http://hl7.eu/fhir/laboratory/StructureDefinition/Observation-resultslab-eu-lab"
          ]
        },
        "performer": [
          {
            "display": "The Central European Lab"
          }
        ],
        "category": [
          {
            "coding": [
              {
                "system": "http://terminology.hl7.org/CodeSystem/observation-category",
                "code": "laboratory"
              }
            ]
          }
        ],
        "code": {
          "coding": [
            {
              "code": "20565-8",
              "system": "http://loinc.org",
              "display": "Carbon dioxide, total [Moles/volume] in Blood"
            }
          ],
          "text": "Carbon dioxide, total [Moles/volume] in Blood"
        },
        "valueQuantity": {
          "system": "http://unitsofmeasure.org",
          "value": 20.8,
          "unit": "mmol/L",
          "code": "mmol/L"
        },
        "referenceRange": [
          {
            "low": {
              "value": 22,
              "code": "mmol/L",
              "system": "http://unitsofmeasure.org"
            }
          },
          {
            "high": {
              "value": 29,
              "code": "mmol/L",
              "system": "http://unitsofmeasure.org"
            }
          }
        ],
        "interpretation": [
          {
            "coding": [
              {
                "code": "L",
                "system": "http://terminology.hl7.org/CodeSystem/v3-ObservationInterpretation",
                "display": "Low"
              }
            ]
          }
        ],
        "text": {
          "status": "generated",
          "div": "<div xmlns=\"http://www.w3.org/1999/xhtml\"><table class=\"hl7__eu__lab__report\"><tr><th>Test</th><th>01-Oct-2024</th><th>Reference&#xA0;Range</th><th>Unit</th></tr><tr><td>Carbon dioxide, total [Moles/volume] in Blood</td><td>20.8</td><td>22 - 29</td><td>L</td><td>mmol/L</td></tr></table></div>"
        },
        "status": "final",
        "subject": {
          "reference": "urn:uuid:3666fbd7-6f3a-4019-83c3-8dc7fb597d0c",
          "display": "Khalid Nilsson"
        },
        "effectiveDateTime": "2024-09-30T23:04:23Z",
        "specimen": {
          "reference": "urn:uuid:b4d09b94-b058-44ed-b86a-a50044eb2dbc"
        }
      }
    },
    {
      "fullUrl": "urn:uuid:d5049a03-8763-4846-859a-425994943200",
      "resource": {
        "resourceType": "Device",
        "id": "d5049a03-8763-4846-859a-425994943200",
        "deviceName": [
          {
            "name": "SYNDERAI Synthetic Generator",
            "type": "manufacturer-name"
          }
        ],
        "version": [
          {
            "value": "5.0"
          }
        ],
        "text": {
          "status": "generated",
          "div": "<div xmlns=\"http://www.w3.org/1999/xhtml\">SYNDERAI Synthetic Generator v5.0</div>"
        },
        "status": "active\"",
        "distinctIdentifier": "synderai-generator-50",
        "manufacturer": "SYNDERAI Project"
      }
    },
    {
      "fullUrl": "urn:uuid:8faf6164-cb23-420e-9a17-b94d8f2e1bd8",
      "resource": {
        "resourceType": "Provenance",
        "id": "8faf6164-cb23-420e-9a17-b94d8f2e1bd8",
        "target": [
          {
            "reference": "Patient/3666fbd7-6f3a-4019-83c3-8dc7fb597d0c"
          },
          {
            "reference": "Bundle/fdae0ecb-b2f0-489d-8d21-083886e91ba9"
          },
          {
            "reference": "Composition/e92cff81-e8f4-4389-9caa-a72c5969d3f5"
          },
          {
            "reference": "PractitionerRole/9e2cebdd-6440-4eb1-a064-4e218420fa18"
          },
          {
            "reference": "Practitioner/917246dd-27c5-412c-ab03-cbd3bd03d400"
          },
          {
            "reference": "PractitionerRole/267f706b-5e31-4300-b4b8-3201b949e912"
          },
          {
            "reference": "Organization/586bd70b-6b3b-4de2-8b66-14fc0620b2de"
          }
        ],
        "activity": {
          "text": "Synthetic Example Data Generation"
        },
        "policy": [
          "https://synderai.net/synderai-synthetic-data-policy"
        ],
        "agent": [
          {
            "type": {
              "text": "author"
            },
            "who": {
              "reference": "Device/d5049a03-8763-4846-859a-425994943200"
            }
          }
        ],
        "reason": [
          {
            "text": "Interoperability Testing and Training (non-clinical use)"
          }
        ],
        "text": {
          "status": "generated",
          "div": "<div xmlns=\"http://www.w3.org/1999/xhtml\">Provenance for SYNDERAI Synthetic Example Data Resource</div>"
        },
        "recorded": "2024-10-01T01:04:23Z"
      }
    },
    {
      "fullUrl": "urn:uuid:9e2cebdd-6440-4eb1-a064-4e218420fa18",
      "resource": {
        "resourceType": "PractitionerRole",
        "id": "9e2cebdd-6440-4eb1-a064-4e218420fa18",
        "meta": {
          "profile": [
            "http://hl7.eu/fhir/base/StructureDefinition/practitionerRole-eu"
          ]
        },
        "text": {
          "status": "generated",
          "div": "<div xmlns=\"http://www.w3.org/1999/xhtml\">Laboratory Role Id: 9e2cebdd-6440-4eb1-a064-4e218420fa18</div>"
        },
        "practitioner": {
          "reference": "urn:uuid:917246dd-27c5-412c-ab03-cbd3bd03d400"
        }
      }
    },
    {
      "fullUrl": "urn:uuid:917246dd-27c5-412c-ab03-cbd3bd03d400",
      "resource": {
        "resourceType": "Practitioner",
        "id": "917246dd-27c5-412c-ab03-cbd3bd03d400",
        "meta": {
          "profile": [
            "http://hl7.eu/fhir/base/StructureDefinition/practitioner-eu"
          ]
        },
        "identifier": [
          {
            "assigner": {
              "display": "HL7 Europe"
            },
            "system": "urn:oid:2.16.840.1.113883.2.51.999",
            "value": "47eed30f-a724-429f-a9b9-453ce9f9ba03"
          }
        ],
        "name": [
          {
            "prefix": [
              "dr"
            ],
            "given": [
              "Ex"
            ],
            "family": "Ample"
          }
        ],
        "address": [
          {
            "line": [
              "Laboratoire Central Européenne",
              "Boulevard du Jardin Botanique 32"
            ],
            "postalCode": "1000",
            "city": "Brussels",
            "country": "Belgium"
          }
        ],
        "text": {
          "status": "generated",
          "div": "<div xmlns=\"http://www.w3.org/1999/xhtml\">Laboratory: Laboratoire Central Européenne, 1000 Brussels, Belgium</div>"
        }
      }
    }
  ],
  "type": "document",
  "timestamp": "2024-10-01T01:04:23Z"
}
