{
  "resourceType": "Bundle",
  "id": "7839d428-e4d8-4f51-955e-dd4a3599dddc",
  "meta": {
    "profile": [
      "http://hl7.eu/fhir/laboratory/StructureDefinition/Bundle-eu-lab"
    ]
  },
  "identifier": {
    "assigner": {
      "display": "HL7 Europe"
    },
    "system": "urn:oid:2.16.840.1.113883.2.51.999",
    "value": "df83cee2-bc0d-4621-9495-167498b1ba1a"
  },
  "entry": [
    {
      "fullUrl": "urn:uuid:bf0afa72-7e88-4c77-a91a-edb5dd225791",
      "resource": {
        "resourceType": "Composition",
        "id": "bf0afa72-7e88-4c77-a91a-edb5dd225791",
        "meta": {
          "profile": [
            "http://hl7.eu/fhir/laboratory/StructureDefinition/Composition-eu-lab"
          ]
        },
        "identifier": {
          "assigner": {
            "display": "HL7 Europe"
          },
          "system": "urn:oid:2.16.840.1.113883.2.51.999",
          "value": "75ef4b54-ed98-46c6-9781-670a9c9ffcd6"
        },
        "author": [
          {
            "reference": "urn:uuid:3946a548-6a75-4d09-9f29-ee13ca6a1297"
          }
        ],
        "category": [
          {
            "coding": [
              {
                "code": "26436-6",
                "system": "http://loinc.org",
                "display": "Laboratory studies (set)"
              }
            ]
          }
        ],
        "type": {
          "coding": [
            {
              "code": "11502-2",
              "system": "http://loinc.org",
              "display": "Laboratory report"
            }
          ],
          "text": "Laboratory Report"
        },
        "section": [
          {
            "code": {
              "coding": [
                {
                  "code": "26436-6",
                  "system": "http://loinc.org",
                  "display": "Laboratory studies (set)"
                }
              ],
              "text": "Laboratory studies"
            },
            "section": [
              {
                "code": {
                  "coding": [
                    {
                      "code": "$18723-7",
                      "system": "http://loinc.org",
                      "display": "Hematology studies (set)"
                    }
                  ],
                  "text": "Hematology"
                },
                "entry": [
                  {
                    "reference": "urn:uuid:9d8c8195-7a8d-483a-a214-5a7ce93d46fc"
                  },
                  {
                    "reference": "urn:uuid:104ae930-9e53-4e21-a66b-498f8d74d241"
                  },
                  {
                    "reference": "urn:uuid:d8150665-d119-4444-af95-b21ba43e813e"
                  },
                  {
                    "reference": "urn:uuid:eb41aa15-77ae-4c2f-b338-5be171d49e2d"
                  },
                  {
                    "reference": "urn:uuid:fe017333-0202-49af-bb62-72232d945b05"
                  },
                  {
                    "reference": "urn:uuid:57624b43-e48c-4d5c-a608-a6743009b1c8"
                  },
                  {
                    "reference": "urn:uuid:703ef999-22d5-45c0-bc33-921c6e2f4694"
                  },
                  {
                    "reference": "urn:uuid:62b02da1-df29-4483-8ff1-f7c26c4bdf35"
                  },
                  {
                    "reference": "urn:uuid:ec14d95d-515a-406e-ab06-fd986e6f40cc"
                  },
                  {
                    "reference": "urn:uuid:8ad84ec9-872a-4c80-9df4-f5f7dd7a559d"
                  },
                  {
                    "reference": "urn:uuid:37f1a53d-8a18-4b61-a124-19ce3239151d"
                  }
                ],
                "text": {
                  "status": "generated",
                  "div": "<div xmlns=\"http://www.w3.org/1999/xhtml\"><h3>Hematology</h3><table class=\"hl7__eu__lab__report\"><thead><tr><th>Test</th><th>16-MAR-2021</th><th>Reference&#xA0;Range</th><th>Unit</th></tr></thead><tbody><tr><td>Leukocytes [#/volume] in Blood by Automated count</td><td>10.3</td><td>3.6 - 10.5</td><td>10*3/uL</td></tr><tr><td>Erythrocytes [#/volume] in Blood by Automated count</td><td>4.0</td><td>4 - 6.2</td><td>10*6/uL</td></tr><tr><td>Hemoglobin [Mass/volume] in Blood</td><td><strong>12.1 L</strong></td><td>13.5 - 17.5</td><td>g/dL</td></tr><tr><td>Hematocrit [Volume Fraction] of Blood by Automated count</td><td>37.5</td><td>37 - 52</td><td>%</td></tr><tr><td>MCV [Entitic volume] by Automated count</td><td>86.6</td><td>82 - 98</td><td>fL</td></tr><tr><td>MCH [Entitic mass] by Automated count</td><td>28.1</td><td>27 - 33</td><td>pg</td></tr><tr><td>MCHC [Mass/volume] by Automated count</td><td>35.9</td><td>31 - 36</td><td>g/dL</td></tr><tr><td>Erythrocyte distribution width [Entitic volume] by Automated count</td><td>43.1</td><td>36.2 - 56.6</td><td>fL</td></tr><tr><td>Platelets [#/volume] in Blood by Automated count</td><td>305.8</td><td>150 - 450</td><td>10*3/uL</td></tr><tr><td>Platelet distribution width [Entitic volume] in Blood by Automated count</td><td><strong>275.9 H</strong></td><td>13.4 - 17.4</td><td>fL</td></tr><tr><td>Platelet mean volume [Entitic volume] in Blood by Automated count</td><td>11.6</td><td>7.4 - 12</td><td>fL</td></tr></tbody></table></div>"
                },
                "title": "Hematology"
              },
              {
                "code": {
                  "coding": [
                    {
                      "code": "$18719-5",
                      "system": "http://loinc.org",
                      "display": "Chemistry studies (set)"
                    }
                  ],
                  "text": "Chemistry"
                },
                "entry": [
                  {
                    "reference": "urn:uuid:9e3f9fec-e0f2-4659-abc0-0a074ba879ff"
                  },
                  {
                    "reference": "urn:uuid:af515024-efc1-491f-8bab-e556c068ecba"
                  },
                  {
                    "reference": "urn:uuid:e9672020-2352-4eb3-9046-4289989095d0"
                  },
                  {
                    "reference": "urn:uuid:0877bdbc-bdac-499a-835b-aa3c0c2f7dd5"
                  },
                  {
                    "reference": "urn:uuid:1dce6aa0-20d7-4c66-b07f-fc5a2ca15de1"
                  },
                  {
                    "reference": "urn:uuid:5798ef04-fe9e-43d0-9cfb-f27e8b3fe5a9"
                  },
                  {
                    "reference": "urn:uuid:76d99978-159a-4d41-9548-4067ed73ce51"
                  },
                  {
                    "reference": "urn:uuid:f2d4a331-0b9d-4832-a5be-df5bec562c2f"
                  },
                  {
                    "reference": "urn:uuid:7baf9c3c-6232-4ad9-be1e-64a6d9e73207"
                  },
                  {
                    "reference": "urn:uuid:a2545d15-64eb-468c-a600-e055c460d659"
                  },
                  {
                    "reference": "urn:uuid:4897e69e-ab48-41de-9f9b-a212923d844e"
                  },
                  {
                    "reference": "urn:uuid:17d7d343-57e9-4f73-8714-e73892f89e46"
                  },
                  {
                    "reference": "urn:uuid:68487a35-f675-409e-8e18-9ab1cf669902"
                  },
                  {
                    "reference": "urn:uuid:2e57eaa6-c2a8-4916-ae5b-2f154c9232f7"
                  }
                ],
                "text": {
                  "status": "generated",
                  "div": "<div xmlns=\"http://www.w3.org/1999/xhtml\"><h3>Chemistry</h3><table class=\"hl7__eu__lab__report\"><thead><tr><th>Test</th><th>16-MAR-2021</th><th>Reference&#xA0;Range</th><th>Unit</th></tr></thead><tbody><tr><td>Hemoglobin A1c/Hemoglobin.total in Blood</td><td>5.4</td><td>4.5 - 6.4</td><td>%</td></tr><tr><td>Glucose [Mass/volume] in Blood</td><td>84.9</td><td>70 - 140</td><td>mg/dL</td></tr><tr><td>Urea nitrogen [Mass/volume] in Blood</td><td>12.0</td><td>7 - 25</td><td>mg/dL</td></tr><tr><td>Creatinine [Mass/volume] in Blood</td><td><strong>0.6 L</strong></td><td>0.9 - 1.3</td><td>mg/dL</td></tr><tr><td>Calcium [Mass/volume] in Blood</td><td>9.0</td><td>8.5 - 10.5</td><td>mg/dL</td></tr><tr><td>Sodium [Moles/volume] in Blood</td><td>140.8</td><td>135 - 145</td><td>mmol/L</td></tr><tr><td>Potassium [Moles/volume] in Blood</td><td>4.1</td><td>3.5 - 5.1</td><td>mmol/L</td></tr><tr><td>Chloride [Moles/volume] in Blood</td><td>109.0</td><td>98 - 110</td><td>mmol/L</td></tr><tr><td>Carbon dioxide, total [Moles/volume] in Blood</td><td><strong>21.9 L</strong></td><td>22 - 29</td><td>mmol/L</td></tr><tr><td>Cholesterol [Mass/volume] in Serum or Plasma</td><td><strong>308.7 H</strong></td><td>100 - 200</td><td>mg/dL</td></tr><tr><td>Triglyceride [Mass/volume] in Serum or Plasma</td><td>132.9</td><td>45 - 175</td><td>mg/dL</td></tr><tr><td>Cholesterol in LDL [Mass/volume] in Serum or Plasma by Direct assay</td><td><strong>242.3 H</strong></td><td>0 - 190</td><td>mg/dL</td></tr><tr><td>Cholesterol in HDL [Mass/volume] in Serum or Plasma</td><td><strong>39.7 L</strong></td><td>40 - 100</td><td>mg/dL</td></tr><tr><td>Microalbumin/Creatinine [Mass Ratio] in Urine</td><td>13.0</td><td>0 - 30</td><td>mg/g</td></tr></tbody></table></div>"
                },
                "title": "Chemistry"
              }
            ],
            "title": "Laboratory Report"
          },
          {
            "text": {
              "status": "generated",
              "div": "<div xmlns=\"http://www.w3.org/1999/xhtml\"><h3>Annotation</h3><table class=\"hl7__eu__lab__report\"><tr><th>Conclusion and Recommendations based on this report and previous findings known to us</th></tr><tr><td>The patient shows dyslipidemia with markedly elevated total and LDL cholesterol and low HDL, increasing cardiovascular risk. Mild normocytic anemia is present. Creatinine is slightly below normal, likely not clinically significant. Total CO₂ is marginally low, possibly reflecting mild metabolic acidosis. Other parameters, including glucose, renal function (urea), and electrolytes, are within normal limits. Recommend clinical correlation for anemia and aggressive management of lipid abnormalities.</td></tr></table></div>"
            },
            "code": {
              "coding": [
                {
                  "system": "http://loinc.org",
                  "code": "48767-8",
                  "display": "Annotation comment"
                }
              ]
            },
            "title": "Annotation comment"
          }
        ],
        "status": "final",
        "subject": {
          "reference": "urn:uuid:205bfe65-2b10-4a73-9018-54a87c321bca",
          "display": "Urbano Cantón"
        },
        "date": "2021-03-16T18:07:13Z",
        "title": "Laboratory Report",
        "confidentiality": "N"
      }
    },
    {
      "fullUrl": "urn:uuid:56999fb3-b8a3-40f0-ba66-5d17f9dc606a",
      "resource": {
        "resourceType": "DiagnosticReport",
        "id": "56999fb3-b8a3-40f0-ba66-5d17f9dc606a",
        "meta": {
          "profile": [
            "http://hl7.eu/fhir/laboratory/StructureDefinition/DiagnosticReport-eu-lab"
          ]
        },
        "identifier": [
          {
            "assigner": {
              "display": "HL7 Europe"
            },
            "system": "urn:oid:2.16.840.1.113883.2.51.999",
            "value": "6b036b8a-cf01-4317-829b-328eadbca2e3"
          }
        ],
        "extension": [
          {
            "url": "http://hl7.org/fhir/5.0/StructureDefinition/extension-DiagnosticReport.composition",
            "valueReference": {
              "reference": "urn:uuid:75ef4b54-ed98-46c6-9781-670a9c9ffcd6"
            }
          }
        ],
        "category": [
          {
            "coding": [
              {
                "code": "26436-6",
                "system": "http://loinc.org",
                "display": "Laboratory studies (set)"
              }
            ]
          }
        ],
        "specimen": [
          {
            "reference": "urn:uuid:28efc71c-b4db-4d2f-b789-e74ae9fd15e9"
          },
          {
            "reference": "urn:uuid:a5fccb7e-c76d-44d7-ac35-62de27c7a03d"
          },
          {
            "reference": "urn:uuid:56f2b1b1-dc1c-4516-9236-a979f4a320fd"
          },
          {
            "reference": "urn:uuid:28efc71c-b4db-4d2f-b789-e74ae9fd15e9"
          }
        ],
        "result": [
          {
            "reference": "urn:uuid:9e3f9fec-e0f2-4659-abc0-0a074ba879ff"
          },
          {
            "reference": "urn:uuid:af515024-efc1-491f-8bab-e556c068ecba"
          },
          {
            "reference": "urn:uuid:e9672020-2352-4eb3-9046-4289989095d0"
          },
          {
            "reference": "urn:uuid:0877bdbc-bdac-499a-835b-aa3c0c2f7dd5"
          },
          {
            "reference": "urn:uuid:1dce6aa0-20d7-4c66-b07f-fc5a2ca15de1"
          },
          {
            "reference": "urn:uuid:5798ef04-fe9e-43d0-9cfb-f27e8b3fe5a9"
          },
          {
            "reference": "urn:uuid:76d99978-159a-4d41-9548-4067ed73ce51"
          },
          {
            "reference": "urn:uuid:f2d4a331-0b9d-4832-a5be-df5bec562c2f"
          },
          {
            "reference": "urn:uuid:7baf9c3c-6232-4ad9-be1e-64a6d9e73207"
          },
          {
            "reference": "urn:uuid:a2545d15-64eb-468c-a600-e055c460d659"
          },
          {
            "reference": "urn:uuid:4897e69e-ab48-41de-9f9b-a212923d844e"
          },
          {
            "reference": "urn:uuid:17d7d343-57e9-4f73-8714-e73892f89e46"
          },
          {
            "reference": "urn:uuid:68487a35-f675-409e-8e18-9ab1cf669902"
          },
          {
            "reference": "urn:uuid:2e57eaa6-c2a8-4916-ae5b-2f154c9232f7"
          },
          {
            "reference": "urn:uuid:9d8c8195-7a8d-483a-a214-5a7ce93d46fc"
          },
          {
            "reference": "urn:uuid:104ae930-9e53-4e21-a66b-498f8d74d241"
          },
          {
            "reference": "urn:uuid:d8150665-d119-4444-af95-b21ba43e813e"
          },
          {
            "reference": "urn:uuid:eb41aa15-77ae-4c2f-b338-5be171d49e2d"
          },
          {
            "reference": "urn:uuid:fe017333-0202-49af-bb62-72232d945b05"
          },
          {
            "reference": "urn:uuid:57624b43-e48c-4d5c-a608-a6743009b1c8"
          },
          {
            "reference": "urn:uuid:703ef999-22d5-45c0-bc33-921c6e2f4694"
          },
          {
            "reference": "urn:uuid:62b02da1-df29-4483-8ff1-f7c26c4bdf35"
          },
          {
            "reference": "urn:uuid:ec14d95d-515a-406e-ab06-fd986e6f40cc"
          },
          {
            "reference": "urn:uuid:8ad84ec9-872a-4c80-9df4-f5f7dd7a559d"
          },
          {
            "reference": "urn:uuid:37f1a53d-8a18-4b61-a124-19ce3239151d"
          }
        ],
        "status": "registered",
        "code": {
          "coding": [
            {
              "code": "11502-2",
              "system": "http://loinc.org",
              "display": "Laboratory report"
            }
          ]
        },
        "subject": {
          "reference": "urn:uuid:205bfe65-2b10-4a73-9018-54a87c321bca",
          "display": "Urbano Cantón"
        }
      }
    },
    {
      "fullUrl": "urn:uuid:205bfe65-2b10-4a73-9018-54a87c321bca",
      "resource": {
        "resourceType": "Patient",
        "id": "205bfe65-2b10-4a73-9018-54a87c321bca",
        "meta": {
          "security": [
            {
              "system": "http://terminology.hl7.org/CodeSystem/v3-ActReason",
              "code": "HTEST"
            },
            {
              "system": "http://terminology.hl7.org/CodeSystem/v3-ActReason",
              "code": "TRAIN"
            }
          ],
          "tag": [
            {
              "system": "https://synderai.net/fhir/CodeSystem/tags",
              "code": "synthetic",
              "display": "SYNDERAI Synthetic data"
            }
          ],
          "profile": [
            "http://hl7.eu/fhir/base/StructureDefinition/patient-eu-core"
          ]
        },
        "identifier": [
          {
            "type": {
              "coding": [
                {
                  "code": "PT",
                  "system": "http://terminology.hl7.org/CodeSystem/v2-0203"
                }
              ]
            },
            "system": "http://ec.europa.eu/identifier/eci",
            "value": "8854-480268-4"
          },
          {
            "type": {
              "coding": [
                {
                  "code": "MR",
                  "system": "http://terminology.hl7.org/CodeSystem/v2-0203"
                }
              ]
            },
            "system": "http://local.setting.eu/identifier",
            "value": "91128f5c-658f-cfab-4640-b680ec2e24a1"
          }
        ],
        "name": [
          {
            "family": "Cantón"
          },
          {
            "given": [
              "Urbano"
            ]
          },
          {
            "text": "Urbano Cantón"
          }
        ],
        "address": [
          {
            "line": [
              "Vial Vito Trujillo 29 Piso 2 "
            ],
            "use": "home",
            "type": "physical",
            "postalCode": "38001",
            "city": "Santa Cruz de Tenerife",
            "country": "Spain"
          }
        ],
        "telecom": [
          {
            "system": "phone",
            "value": "+34 740 588 857"
          }
        ],
        "extension": [
          {
            "url": "http://hl7.org/fhir/StructureDefinition/patient-nationality",
            "valueCodeableConcept": {
              "coding": [
                {
                  "code": "ES",
                  "system": "http://hl7.org/fhir/ValueSet/country"
                }
              ]
            }
          }
        ],
        "text": {
          "status": "generated",
          "div": "<div xmlns=\"http://www.w3.org/1999/xhtml\"><table class=\"hl7__ips\"><tr><td>Urbano Cantón</td><td>male</td><td>01-Apr-1945</td></tr></table></div>"
        },
        "gender": "male",
        "birthDate": "1945-04-01"
      }
    },
    {
      "fullUrl": "urn:uuid:2b81600b-48c1-45ef-9e2a-0e81830e65cb",
      "resource": {
        "resourceType": "ServiceRequest",
        "id": "2b81600b-48c1-45ef-9e2a-0e81830e65cb",
        "meta": {
          "profile": [
            "http://hl7.eu/fhir/laboratory/StructureDefinition/ServiceRequest-eu-lab"
          ]
        },
        "identifier": [
          {
            "system": "http://example.org",
            "value": "b99aa407-b50c-4549-b618-0d6b6afc215a"
          }
        ],
        "specimen": [
          {
            "reference": "urn:uuid:28efc71c-b4db-4d2f-b789-e74ae9fd15e9"
          },
          {
            "reference": "urn:uuid:a5fccb7e-c76d-44d7-ac35-62de27c7a03d"
          },
          {
            "reference": "urn:uuid:56f2b1b1-dc1c-4516-9236-a979f4a320fd"
          }
        ],
        "reasonCode": [
          {
            "coding": [
              {
                "code": "55822004",
                "system": "http://snomed.info/sct",
                "display": "Hyperlipidemia"
              }
            ]
          },
          {
            "coding": [
              {
                "code": "401314000",
                "system": "http://snomed.info/sct",
                "display": "Acute non-ST segment elevation myocardial infarction"
              }
            ]
          },
          {
            "coding": [
              {
                "code": "6525002",
                "system": "http://snomed.info/sct",
                "display": "Dependent drug abuse"
              }
            ]
          },
          {
            "coding": [
              {
                "code": "124171000119105",
                "system": "http://snomed.info/sct",
                "display": "Chronic intractable migraine without aura"
              }
            ]
          },
          {
            "coding": [
              {
                "code": "414545008",
                "system": "http://snomed.info/sct",
                "display": "Ischemic heart disease"
              }
            ]
          },
          {
            "coding": [
              {
                "code": "368581000119106",
                "system": "http://snomed.info/sct",
                "display": "Neuropathy due to type 2 diabetes mellitus"
              }
            ]
          },
          {
            "coding": [
              {
                "code": "80394007",
                "system": "http://snomed.info/sct",
                "display": "Hyperglycemia"
              }
            ]
          },
          {
            "coding": [
              {
                "code": "237602007",
                "system": "http://snomed.info/sct",
                "display": "Metabolic syndrome X"
              }
            ]
          },
          {
            "coding": [
              {
                "code": "302870006",
                "system": "http://snomed.info/sct",
                "display": "Hypertriglyceridemia"
              }
            ]
          },
          {
            "coding": [
              {
                "code": "44054006",
                "system": "http://snomed.info/sct",
                "display": "Type 2 diabetes mellitus"
              }
            ]
          },
          {
            "coding": [
              {
                "code": "59621000",
                "system": "http://snomed.info/sct",
                "display": "Essential hypertension"
              }
            ]
          },
          {
            "coding": [
              {
                "code": "271737000",
                "system": "http://snomed.info/sct",
                "display": "Anemia"
              }
            ]
          },
          {
            "coding": [
              {
                "code": "40055000",
                "system": "http://snomed.info/sct",
                "display": "Chronic sinusitis"
              }
            ]
          }
        ],
        "status": "active",
        "intent": "order",
        "code": {
          "coding": [
            {
              "code": "108252007",
              "system": "http://snomed.info/sct",
              "display": "Laboratory procedure"
            }
          ]
        },
        "subject": {
          "reference": "urn:uuid:205bfe65-2b10-4a73-9018-54a87c321bca",
          "display": "Urbano Cantón"
        },
        "requester": {
          "reference": "urn:uuid:b7faea62-298d-4008-8cf3-4ddd66f0dae4"
        }
      }
    },
    {
      "fullUrl": "urn:uuid:b7faea62-298d-4008-8cf3-4ddd66f0dae4",
      "resource": {
        "resourceType": "PractitionerRole",
        "id": "b7faea62-298d-4008-8cf3-4ddd66f0dae4",
        "meta": {
          "profile": [
            "http://hl7.eu/fhir/base/StructureDefinition/practitionerRole-eu"
          ]
        },
        "text": {
          "status": "generated",
          "div": "<div xmlns=\"http://www.w3.org/1999/xhtml\">Provider Role Id: b7faea62-298d-4008-8cf3-4ddd66f0dae4</div>"
        },
        "organization": {
          "reference": "urn:uuid:03d2fe3e-b4a8-4b05-a570-999238e8a2de"
        }
      }
    },
    {
      "fullUrl": "urn:uuid:03d2fe3e-b4a8-4b05-a570-999238e8a2de",
      "resource": {
        "resourceType": "Organization",
        "id": "03d2fe3e-b4a8-4b05-a570-999238e8a2de",
        "meta": {
          "profile": [
            "http://hl7.eu/fhir/base/StructureDefinition/organization-eu"
          ]
        },
        "identifier": [
          {
            "assigner": {
              "display": "HL7 Europe"
            },
            "system": "urn:oid:2.16.840.1.113883.2.51.999",
            "value": "71d8ccf9-51ad-46b8-85ad-9c89c83d960e"
          }
        ],
        "address": [
          {
            "country": "Spain"
          }
        ],
        "text": {
          "status": "generated",
          "div": "<div xmlns=\"http://www.w3.org/1999/xhtml\">Provider Organization: Centro de Salud Ruiz de Padrón</div>"
        },
        "name": "Centro de Salud Ruiz de Padrón"
      }
    },
    {
      "fullUrl": "urn:uuid:28efc71c-b4db-4d2f-b789-e74ae9fd15e9",
      "resource": {
        "resourceType": "Specimen",
        "id": "28efc71c-b4db-4d2f-b789-e74ae9fd15e9",
        "meta": {
          "profile": [
            "http://hl7.eu/fhir/laboratory/StructureDefinition/Specimen-eu-lab"
          ]
        },
        "collection": {
          "collectedDateTime": "2021-03-16"
        },
        "text": {
          "status": "generated",
          "div": "<div xmlns=\"http://www.w3.org/1999/xhtml\"><table class=\"hl7__eu__lab__report\"><tr><th>Specimen</th><th>Collection Date</th></tr><tr><td>Whole blood specimen (specimen)</td><td><span class=\"nb\">16-Mar-2021</span></td></tr></table></div>"
        },
        "type": {
          "coding": [
            {
              "code": "258580003",
              "system": "http://snomed.info/sct",
              "display": "Whole blood specimen (specimen)"
            }
          ]
        }
      }
    },
    {
      "fullUrl": "urn:uuid:a5fccb7e-c76d-44d7-ac35-62de27c7a03d",
      "resource": {
        "resourceType": "Specimen",
        "id": "a5fccb7e-c76d-44d7-ac35-62de27c7a03d",
        "meta": {
          "profile": [
            "http://hl7.eu/fhir/laboratory/StructureDefinition/Specimen-eu-lab"
          ]
        },
        "collection": {
          "collectedDateTime": "2021-03-16"
        },
        "text": {
          "status": "generated",
          "div": "<div xmlns=\"http://www.w3.org/1999/xhtml\"><table class=\"hl7__eu__lab__report\"><tr><th>Specimen</th><th>Collection Date</th></tr><tr><td>Acellular blood (serum or plasma) specimen</td><td><span class=\"nb\">16-Mar-2021</span></td></tr></table></div>"
        },
        "type": {
          "coding": [
            {
              "code": "122592007",
              "system": "http://snomed.info/sct",
              "display": "Acellular blood (serum or plasma) specimen"
            }
          ]
        }
      }
    },
    {
      "fullUrl": "urn:uuid:56f2b1b1-dc1c-4516-9236-a979f4a320fd",
      "resource": {
        "resourceType": "Specimen",
        "id": "56f2b1b1-dc1c-4516-9236-a979f4a320fd",
        "meta": {
          "profile": [
            "http://hl7.eu/fhir/laboratory/StructureDefinition/Specimen-eu-lab"
          ]
        },
        "collection": {
          "collectedDateTime": "2021-03-16"
        },
        "text": {
          "status": "generated",
          "div": "<div xmlns=\"http://www.w3.org/1999/xhtml\"><table class=\"hl7__eu__lab__report\"><tr><th>Specimen</th><th>Collection Date</th></tr><tr><td>Urine specimen</td><td><span class=\"nb\">16-Mar-2021</span></td></tr></table></div>"
        },
        "type": {
          "coding": [
            {
              "code": "122575003",
              "system": "http://snomed.info/sct",
              "display": "Urine specimen"
            }
          ]
        }
      }
    },
    {
      "fullUrl": "urn:uuid:28efc71c-b4db-4d2f-b789-e74ae9fd15e9",
      "resource": {
        "resourceType": "Specimen",
        "id": "28efc71c-b4db-4d2f-b789-e74ae9fd15e9",
        "meta": {
          "profile": [
            "http://hl7.eu/fhir/laboratory/StructureDefinition/Specimen-eu-lab"
          ]
        },
        "collection": {
          "collectedDateTime": "2021-03-16"
        },
        "text": {
          "status": "generated",
          "div": "<div xmlns=\"http://www.w3.org/1999/xhtml\"><table class=\"hl7__eu__lab__report\"><tr><th>Specimen</th><th>Collection Date</th></tr><tr><td>Whole blood specimen (specimen)</td><td><span class=\"nb\">16-Mar-2021</span></td></tr></table></div>"
        },
        "type": {
          "coding": [
            {
              "code": "258580003",
              "system": "http://snomed.info/sct",
              "display": "Whole blood specimen (specimen)"
            }
          ]
        }
      }
    },
    {
      "fullUrl": "urn:uuid:9e3f9fec-e0f2-4659-abc0-0a074ba879ff",
      "resource": {
        "resourceType": "Observation",
        "id": "9e3f9fec-e0f2-4659-abc0-0a074ba879ff",
        "meta": {
          "profile": [
            "http://hl7.eu/fhir/laboratory/StructureDefinition/Observation-resultslab-eu-lab"
          ]
        },
        "performer": [
          {
            "display": "The Central European Lab"
          }
        ],
        "category": [
          {
            "coding": [
              {
                "system": "http://terminology.hl7.org/CodeSystem/observation-category",
                "code": "laboratory"
              }
            ]
          }
        ],
        "code": {
          "coding": [
            {
              "code": "4548-4",
              "system": "http://loinc.org",
              "display": "Hemoglobin A1c/Hemoglobin.total in Blood"
            }
          ],
          "text": "Hemoglobin A1c/Hemoglobin.total in Blood"
        },
        "valueQuantity": {
          "system": "http://unitsofmeasure.org",
          "value": 5.4,
          "unit": "%",
          "code": "%"
        },
        "referenceRange": [
          {
            "low": {
              "value": 4.5,
              "code": "%",
              "system": "http://unitsofmeasure.org"
            }
          },
          {
            "high": {
              "value": 6.4,
              "code": "%",
              "system": "http://unitsofmeasure.org"
            }
          }
        ],
        "text": {
          "status": "generated",
          "div": "<div xmlns=\"http://www.w3.org/1999/xhtml\"><table class=\"hl7__eu__lab__report\"><tr><th>Test</th><th>16-Mar-2021</th><th>Reference&#xA0;Range</th><th>Unit</th></tr><tr><td>Hemoglobin A1c/Hemoglobin.total in Blood</td><td>5.4</td><td>4.5 - 6.4</td><td></td><td>%</td></tr></table></div>"
        },
        "status": "final",
        "subject": {
          "reference": "urn:uuid:205bfe65-2b10-4a73-9018-54a87c321bca",
          "display": "Urbano Cantón"
        },
        "effectiveDateTime": "2021-03-16T17:07:13Z",
        "specimen": {
          "reference": "urn:uuid:28efc71c-b4db-4d2f-b789-e74ae9fd15e9"
        }
      }
    },
    {
      "fullUrl": "urn:uuid:af515024-efc1-491f-8bab-e556c068ecba",
      "resource": {
        "resourceType": "Observation",
        "id": "af515024-efc1-491f-8bab-e556c068ecba",
        "meta": {
          "profile": [
            "http://hl7.eu/fhir/laboratory/StructureDefinition/Observation-resultslab-eu-lab"
          ]
        },
        "performer": [
          {
            "display": "The Central European Lab"
          }
        ],
        "category": [
          {
            "coding": [
              {
                "system": "http://terminology.hl7.org/CodeSystem/observation-category",
                "code": "laboratory"
              }
            ]
          }
        ],
        "code": {
          "coding": [
            {
              "code": "2339-0",
              "system": "http://loinc.org",
              "display": "Glucose [Mass/volume] in Blood"
            }
          ],
          "text": "Glucose [Mass/volume] in Blood"
        },
        "valueQuantity": {
          "system": "http://unitsofmeasure.org",
          "value": 84.9,
          "unit": "mg/dL",
          "code": "mg/dL"
        },
        "referenceRange": [
          {
            "low": {
              "value": 70,
              "code": "mg/dL",
              "system": "http://unitsofmeasure.org"
            }
          },
          {
            "high": {
              "value": 140,
              "code": "mg/dL",
              "system": "http://unitsofmeasure.org"
            }
          }
        ],
        "text": {
          "status": "generated",
          "div": "<div xmlns=\"http://www.w3.org/1999/xhtml\"><table class=\"hl7__eu__lab__report\"><tr><th>Test</th><th>16-Mar-2021</th><th>Reference&#xA0;Range</th><th>Unit</th></tr><tr><td>Glucose [Mass/volume] in Blood</td><td>84.9</td><td>70 - 140</td><td></td><td>mg/dL</td></tr></table></div>"
        },
        "status": "final",
        "subject": {
          "reference": "urn:uuid:205bfe65-2b10-4a73-9018-54a87c321bca",
          "display": "Urbano Cantón"
        },
        "effectiveDateTime": "2021-03-16T17:07:13Z",
        "specimen": {
          "reference": "urn:uuid:28efc71c-b4db-4d2f-b789-e74ae9fd15e9"
        }
      }
    },
    {
      "fullUrl": "urn:uuid:e9672020-2352-4eb3-9046-4289989095d0",
      "resource": {
        "resourceType": "Observation",
        "id": "e9672020-2352-4eb3-9046-4289989095d0",
        "meta": {
          "profile": [
            "http://hl7.eu/fhir/laboratory/StructureDefinition/Observation-resultslab-eu-lab"
          ]
        },
        "performer": [
          {
            "display": "The Central European Lab"
          }
        ],
        "category": [
          {
            "coding": [
              {
                "system": "http://terminology.hl7.org/CodeSystem/observation-category",
                "code": "laboratory"
              }
            ]
          }
        ],
        "code": {
          "coding": [
            {
              "code": "6299-2",
              "system": "http://loinc.org",
              "display": "Urea nitrogen [Mass/volume] in Blood"
            }
          ],
          "text": "Urea nitrogen [Mass/volume] in Blood"
        },
        "valueQuantity": {
          "system": "http://unitsofmeasure.org",
          "value": 12,
          "unit": "mg/dL",
          "code": "mg/dL"
        },
        "referenceRange": [
          {
            "low": {
              "value": 7,
              "code": "mg/dL",
              "system": "http://unitsofmeasure.org"
            }
          },
          {
            "high": {
              "value": 25,
              "code": "mg/dL",
              "system": "http://unitsofmeasure.org"
            }
          }
        ],
        "text": {
          "status": "generated",
          "div": "<div xmlns=\"http://www.w3.org/1999/xhtml\"><table class=\"hl7__eu__lab__report\"><tr><th>Test</th><th>16-Mar-2021</th><th>Reference&#xA0;Range</th><th>Unit</th></tr><tr><td>Urea nitrogen [Mass/volume] in Blood</td><td>12.0</td><td>7 - 25</td><td></td><td>mg/dL</td></tr></table></div>"
        },
        "status": "final",
        "subject": {
          "reference": "urn:uuid:205bfe65-2b10-4a73-9018-54a87c321bca",
          "display": "Urbano Cantón"
        },
        "effectiveDateTime": "2021-03-16T17:07:13Z",
        "specimen": {
          "reference": "urn:uuid:28efc71c-b4db-4d2f-b789-e74ae9fd15e9"
        }
      }
    },
    {
      "fullUrl": "urn:uuid:0877bdbc-bdac-499a-835b-aa3c0c2f7dd5",
      "resource": {
        "resourceType": "Observation",
        "id": "0877bdbc-bdac-499a-835b-aa3c0c2f7dd5",
        "meta": {
          "profile": [
            "http://hl7.eu/fhir/laboratory/StructureDefinition/Observation-resultslab-eu-lab"
          ]
        },
        "performer": [
          {
            "display": "The Central European Lab"
          }
        ],
        "category": [
          {
            "coding": [
              {
                "system": "http://terminology.hl7.org/CodeSystem/observation-category",
                "code": "laboratory"
              }
            ]
          }
        ],
        "code": {
          "coding": [
            {
              "code": "38483-4",
              "system": "http://loinc.org",
              "display": "Creatinine [Mass/volume] in Blood"
            }
          ],
          "text": "Creatinine [Mass/volume] in Blood"
        },
        "valueQuantity": {
          "system": "http://unitsofmeasure.org",
          "value": 0.6,
          "unit": "mg/dL",
          "code": "mg/dL"
        },
        "referenceRange": [
          {
            "low": {
              "value": 0.9,
              "code": "mg/dL",
              "system": "http://unitsofmeasure.org"
            }
          },
          {
            "high": {
              "value": 1.3,
              "code": "mg/dL",
              "system": "http://unitsofmeasure.org"
            }
          }
        ],
        "interpretation": [
          {
            "coding": [
              {
                "code": "L",
                "system": "http://terminology.hl7.org/CodeSystem/v3-ObservationInterpretation",
                "display": "Low"
              }
            ]
          }
        ],
        "text": {
          "status": "generated",
          "div": "<div xmlns=\"http://www.w3.org/1999/xhtml\"><table class=\"hl7__eu__lab__report\"><tr><th>Test</th><th>16-Mar-2021</th><th>Reference&#xA0;Range</th><th>Unit</th></tr><tr><td>Creatinine [Mass/volume] in Blood</td><td>0.6</td><td>0.9 - 1.3</td><td>L</td><td>mg/dL</td></tr></table></div>"
        },
        "status": "final",
        "subject": {
          "reference": "urn:uuid:205bfe65-2b10-4a73-9018-54a87c321bca",
          "display": "Urbano Cantón"
        },
        "effectiveDateTime": "2021-03-16T17:07:13Z",
        "specimen": {
          "reference": "urn:uuid:28efc71c-b4db-4d2f-b789-e74ae9fd15e9"
        }
      }
    },
    {
      "fullUrl": "urn:uuid:1dce6aa0-20d7-4c66-b07f-fc5a2ca15de1",
      "resource": {
        "resourceType": "Observation",
        "id": "1dce6aa0-20d7-4c66-b07f-fc5a2ca15de1",
        "meta": {
          "profile": [
            "http://hl7.eu/fhir/laboratory/StructureDefinition/Observation-resultslab-eu-lab"
          ]
        },
        "performer": [
          {
            "display": "The Central European Lab"
          }
        ],
        "category": [
          {
            "coding": [
              {
                "system": "http://terminology.hl7.org/CodeSystem/observation-category",
                "code": "laboratory"
              }
            ]
          }
        ],
        "code": {
          "coding": [
            {
              "code": "49765-1",
              "system": "http://loinc.org",
              "display": "Calcium [Mass/volume] in Blood"
            }
          ],
          "text": "Calcium [Mass/volume] in Blood"
        },
        "valueQuantity": {
          "system": "http://unitsofmeasure.org",
          "value": 9,
          "unit": "mg/dL",
          "code": "mg/dL"
        },
        "referenceRange": [
          {
            "low": {
              "value": 8.5,
              "code": "mg/dL",
              "system": "http://unitsofmeasure.org"
            }
          },
          {
            "high": {
              "value": 10.5,
              "code": "mg/dL",
              "system": "http://unitsofmeasure.org"
            }
          }
        ],
        "text": {
          "status": "generated",
          "div": "<div xmlns=\"http://www.w3.org/1999/xhtml\"><table class=\"hl7__eu__lab__report\"><tr><th>Test</th><th>16-Mar-2021</th><th>Reference&#xA0;Range</th><th>Unit</th></tr><tr><td>Calcium [Mass/volume] in Blood</td><td>9.0</td><td>8.5 - 10.5</td><td></td><td>mg/dL</td></tr></table></div>"
        },
        "status": "final",
        "subject": {
          "reference": "urn:uuid:205bfe65-2b10-4a73-9018-54a87c321bca",
          "display": "Urbano Cantón"
        },
        "effectiveDateTime": "2021-03-16T17:07:13Z",
        "specimen": {
          "reference": "urn:uuid:28efc71c-b4db-4d2f-b789-e74ae9fd15e9"
        }
      }
    },
    {
      "fullUrl": "urn:uuid:5798ef04-fe9e-43d0-9cfb-f27e8b3fe5a9",
      "resource": {
        "resourceType": "Observation",
        "id": "5798ef04-fe9e-43d0-9cfb-f27e8b3fe5a9",
        "meta": {
          "profile": [
            "http://hl7.eu/fhir/laboratory/StructureDefinition/Observation-resultslab-eu-lab"
          ]
        },
        "performer": [
          {
            "display": "The Central European Lab"
          }
        ],
        "category": [
          {
            "coding": [
              {
                "system": "http://terminology.hl7.org/CodeSystem/observation-category",
                "code": "laboratory"
              }
            ]
          }
        ],
        "code": {
          "coding": [
            {
              "code": "2947-0",
              "system": "http://loinc.org",
              "display": "Sodium [Moles/volume] in Blood"
            }
          ],
          "text": "Sodium [Moles/volume] in Blood"
        },
        "valueQuantity": {
          "system": "http://unitsofmeasure.org",
          "value": 140.8,
          "unit": "mmol/L",
          "code": "mmol/L"
        },
        "referenceRange": [
          {
            "low": {
              "value": 135,
              "code": "mmol/L",
              "system": "http://unitsofmeasure.org"
            }
          },
          {
            "high": {
              "value": 145,
              "code": "mmol/L",
              "system": "http://unitsofmeasure.org"
            }
          }
        ],
        "text": {
          "status": "generated",
          "div": "<div xmlns=\"http://www.w3.org/1999/xhtml\"><table class=\"hl7__eu__lab__report\"><tr><th>Test</th><th>16-Mar-2021</th><th>Reference&#xA0;Range</th><th>Unit</th></tr><tr><td>Sodium [Moles/volume] in Blood</td><td>140.8</td><td>135 - 145</td><td></td><td>mmol/L</td></tr></table></div>"
        },
        "status": "final",
        "subject": {
          "reference": "urn:uuid:205bfe65-2b10-4a73-9018-54a87c321bca",
          "display": "Urbano Cantón"
        },
        "effectiveDateTime": "2021-03-16T17:07:13Z",
        "specimen": {
          "reference": "urn:uuid:28efc71c-b4db-4d2f-b789-e74ae9fd15e9"
        }
      }
    },
    {
      "fullUrl": "urn:uuid:76d99978-159a-4d41-9548-4067ed73ce51",
      "resource": {
        "resourceType": "Observation",
        "id": "76d99978-159a-4d41-9548-4067ed73ce51",
        "meta": {
          "profile": [
            "http://hl7.eu/fhir/laboratory/StructureDefinition/Observation-resultslab-eu-lab"
          ]
        },
        "performer": [
          {
            "display": "The Central European Lab"
          }
        ],
        "category": [
          {
            "coding": [
              {
                "system": "http://terminology.hl7.org/CodeSystem/observation-category",
                "code": "laboratory"
              }
            ]
          }
        ],
        "code": {
          "coding": [
            {
              "code": "6298-4",
              "system": "http://loinc.org",
              "display": "Potassium [Moles/volume] in Blood"
            }
          ],
          "text": "Potassium [Moles/volume] in Blood"
        },
        "valueQuantity": {
          "system": "http://unitsofmeasure.org",
          "value": 4.1,
          "unit": "mmol/L",
          "code": "mmol/L"
        },
        "referenceRange": [
          {
            "low": {
              "value": 3.5,
              "code": "mmol/L",
              "system": "http://unitsofmeasure.org"
            }
          },
          {
            "high": {
              "value": 5.1,
              "code": "mmol/L",
              "system": "http://unitsofmeasure.org"
            }
          }
        ],
        "text": {
          "status": "generated",
          "div": "<div xmlns=\"http://www.w3.org/1999/xhtml\"><table class=\"hl7__eu__lab__report\"><tr><th>Test</th><th>16-Mar-2021</th><th>Reference&#xA0;Range</th><th>Unit</th></tr><tr><td>Potassium [Moles/volume] in Blood</td><td>4.1</td><td>3.5 - 5.1</td><td></td><td>mmol/L</td></tr></table></div>"
        },
        "status": "final",
        "subject": {
          "reference": "urn:uuid:205bfe65-2b10-4a73-9018-54a87c321bca",
          "display": "Urbano Cantón"
        },
        "effectiveDateTime": "2021-03-16T17:07:13Z",
        "specimen": {
          "reference": "urn:uuid:28efc71c-b4db-4d2f-b789-e74ae9fd15e9"
        }
      }
    },
    {
      "fullUrl": "urn:uuid:f2d4a331-0b9d-4832-a5be-df5bec562c2f",
      "resource": {
        "resourceType": "Observation",
        "id": "f2d4a331-0b9d-4832-a5be-df5bec562c2f",
        "meta": {
          "profile": [
            "http://hl7.eu/fhir/laboratory/StructureDefinition/Observation-resultslab-eu-lab"
          ]
        },
        "performer": [
          {
            "display": "The Central European Lab"
          }
        ],
        "category": [
          {
            "coding": [
              {
                "system": "http://terminology.hl7.org/CodeSystem/observation-category",
                "code": "laboratory"
              }
            ]
          }
        ],
        "code": {
          "coding": [
            {
              "code": "2069-3",
              "system": "http://loinc.org",
              "display": "Chloride [Moles/volume] in Blood"
            }
          ],
          "text": "Chloride [Moles/volume] in Blood"
        },
        "valueQuantity": {
          "system": "http://unitsofmeasure.org",
          "value": 109,
          "unit": "mmol/L",
          "code": "mmol/L"
        },
        "referenceRange": [
          {
            "low": {
              "value": 98,
              "code": "mmol/L",
              "system": "http://unitsofmeasure.org"
            }
          },
          {
            "high": {
              "value": 110,
              "code": "mmol/L",
              "system": "http://unitsofmeasure.org"
            }
          }
        ],
        "text": {
          "status": "generated",
          "div": "<div xmlns=\"http://www.w3.org/1999/xhtml\"><table class=\"hl7__eu__lab__report\"><tr><th>Test</th><th>16-Mar-2021</th><th>Reference&#xA0;Range</th><th>Unit</th></tr><tr><td>Chloride [Moles/volume] in Blood</td><td>109.0</td><td>98 - 110</td><td></td><td>mmol/L</td></tr></table></div>"
        },
        "status": "final",
        "subject": {
          "reference": "urn:uuid:205bfe65-2b10-4a73-9018-54a87c321bca",
          "display": "Urbano Cantón"
        },
        "effectiveDateTime": "2021-03-16T17:07:13Z",
        "specimen": {
          "reference": "urn:uuid:28efc71c-b4db-4d2f-b789-e74ae9fd15e9"
        }
      }
    },
    {
      "fullUrl": "urn:uuid:7baf9c3c-6232-4ad9-be1e-64a6d9e73207",
      "resource": {
        "resourceType": "Observation",
        "id": "7baf9c3c-6232-4ad9-be1e-64a6d9e73207",
        "meta": {
          "profile": [
            "http://hl7.eu/fhir/laboratory/StructureDefinition/Observation-resultslab-eu-lab"
          ]
        },
        "performer": [
          {
            "display": "The Central European Lab"
          }
        ],
        "category": [
          {
            "coding": [
              {
                "system": "http://terminology.hl7.org/CodeSystem/observation-category",
                "code": "laboratory"
              }
            ]
          }
        ],
        "code": {
          "coding": [
            {
              "code": "20565-8",
              "system": "http://loinc.org",
              "display": "Carbon dioxide, total [Moles/volume] in Blood"
            }
          ],
          "text": "Carbon dioxide, total [Moles/volume] in Blood"
        },
        "valueQuantity": {
          "system": "http://unitsofmeasure.org",
          "value": 21.9,
          "unit": "mmol/L",
          "code": "mmol/L"
        },
        "referenceRange": [
          {
            "low": {
              "value": 22,
              "code": "mmol/L",
              "system": "http://unitsofmeasure.org"
            }
          },
          {
            "high": {
              "value": 29,
              "code": "mmol/L",
              "system": "http://unitsofmeasure.org"
            }
          }
        ],
        "interpretation": [
          {
            "coding": [
              {
                "code": "L",
                "system": "http://terminology.hl7.org/CodeSystem/v3-ObservationInterpretation",
                "display": "Low"
              }
            ]
          }
        ],
        "text": {
          "status": "generated",
          "div": "<div xmlns=\"http://www.w3.org/1999/xhtml\"><table class=\"hl7__eu__lab__report\"><tr><th>Test</th><th>16-Mar-2021</th><th>Reference&#xA0;Range</th><th>Unit</th></tr><tr><td>Carbon dioxide, total [Moles/volume] in Blood</td><td>21.9</td><td>22 - 29</td><td>L</td><td>mmol/L</td></tr></table></div>"
        },
        "status": "final",
        "subject": {
          "reference": "urn:uuid:205bfe65-2b10-4a73-9018-54a87c321bca",
          "display": "Urbano Cantón"
        },
        "effectiveDateTime": "2021-03-16T17:07:13Z",
        "specimen": {
          "reference": "urn:uuid:28efc71c-b4db-4d2f-b789-e74ae9fd15e9"
        }
      }
    },
    {
      "fullUrl": "urn:uuid:a2545d15-64eb-468c-a600-e055c460d659",
      "resource": {
        "resourceType": "Observation",
        "id": "a2545d15-64eb-468c-a600-e055c460d659",
        "meta": {
          "profile": [
            "http://hl7.eu/fhir/laboratory/StructureDefinition/Observation-resultslab-eu-lab"
          ]
        },
        "performer": [
          {
            "display": "The Central European Lab"
          }
        ],
        "category": [
          {
            "coding": [
              {
                "system": "http://terminology.hl7.org/CodeSystem/observation-category",
                "code": "laboratory"
              }
            ]
          }
        ],
        "code": {
          "coding": [
            {
              "code": "2093-3",
              "system": "http://loinc.org",
              "display": "Cholesterol [Mass/volume] in Serum or Plasma"
            }
          ],
          "text": "Cholesterol [Mass/volume] in Serum or Plasma"
        },
        "valueQuantity": {
          "system": "http://unitsofmeasure.org",
          "value": 308.7,
          "unit": "mg/dL",
          "code": "mg/dL"
        },
        "referenceRange": [
          {
            "low": {
              "value": 100,
              "code": "mg/dL",
              "system": "http://unitsofmeasure.org"
            }
          },
          {
            "high": {
              "value": 200,
              "code": "mg/dL",
              "system": "http://unitsofmeasure.org"
            }
          }
        ],
        "interpretation": [
          {
            "coding": [
              {
                "code": "H",
                "system": "http://terminology.hl7.org/CodeSystem/v3-ObservationInterpretation",
                "display": "High"
              }
            ]
          }
        ],
        "text": {
          "status": "generated",
          "div": "<div xmlns=\"http://www.w3.org/1999/xhtml\"><table class=\"hl7__eu__lab__report\"><tr><th>Test</th><th>16-Mar-2021</th><th>Reference&#xA0;Range</th><th>Unit</th></tr><tr><td>Cholesterol [Mass/volume] in Serum or Plasma</td><td>308.7</td><td>100 - 200</td><td>H</td><td>mg/dL</td></tr></table></div>"
        },
        "status": "final",
        "subject": {
          "reference": "urn:uuid:205bfe65-2b10-4a73-9018-54a87c321bca",
          "display": "Urbano Cantón"
        },
        "effectiveDateTime": "2021-03-16T17:07:13Z",
        "specimen": {
          "reference": "urn:uuid:a5fccb7e-c76d-44d7-ac35-62de27c7a03d"
        }
      }
    },
    {
      "fullUrl": "urn:uuid:4897e69e-ab48-41de-9f9b-a212923d844e",
      "resource": {
        "resourceType": "Observation",
        "id": "4897e69e-ab48-41de-9f9b-a212923d844e",
        "meta": {
          "profile": [
            "http://hl7.eu/fhir/laboratory/StructureDefinition/Observation-resultslab-eu-lab"
          ]
        },
        "performer": [
          {
            "display": "The Central European Lab"
          }
        ],
        "category": [
          {
            "coding": [
              {
                "system": "http://terminology.hl7.org/CodeSystem/observation-category",
                "code": "laboratory"
              }
            ]
          }
        ],
        "code": {
          "coding": [
            {
              "code": "2571-8",
              "system": "http://loinc.org",
              "display": "Triglyceride [Mass/volume] in Serum or Plasma"
            }
          ],
          "text": "Triglyceride [Mass/volume] in Serum or Plasma"
        },
        "valueQuantity": {
          "system": "http://unitsofmeasure.org",
          "value": 132.9,
          "unit": "mg/dL",
          "code": "mg/dL"
        },
        "referenceRange": [
          {
            "low": {
              "value": 45,
              "code": "mg/dL",
              "system": "http://unitsofmeasure.org"
            }
          },
          {
            "high": {
              "value": 175,
              "code": "mg/dL",
              "system": "http://unitsofmeasure.org"
            }
          }
        ],
        "text": {
          "status": "generated",
          "div": "<div xmlns=\"http://www.w3.org/1999/xhtml\"><table class=\"hl7__eu__lab__report\"><tr><th>Test</th><th>16-Mar-2021</th><th>Reference&#xA0;Range</th><th>Unit</th></tr><tr><td>Triglyceride [Mass/volume] in Serum or Plasma</td><td>132.9</td><td>45 - 175</td><td></td><td>mg/dL</td></tr></table></div>"
        },
        "status": "final",
        "subject": {
          "reference": "urn:uuid:205bfe65-2b10-4a73-9018-54a87c321bca",
          "display": "Urbano Cantón"
        },
        "effectiveDateTime": "2021-03-16T17:07:13Z",
        "specimen": {
          "reference": "urn:uuid:a5fccb7e-c76d-44d7-ac35-62de27c7a03d"
        }
      }
    },
    {
      "fullUrl": "urn:uuid:17d7d343-57e9-4f73-8714-e73892f89e46",
      "resource": {
        "resourceType": "Observation",
        "id": "17d7d343-57e9-4f73-8714-e73892f89e46",
        "meta": {
          "profile": [
            "http://hl7.eu/fhir/laboratory/StructureDefinition/Observation-resultslab-eu-lab"
          ]
        },
        "performer": [
          {
            "display": "The Central European Lab"
          }
        ],
        "category": [
          {
            "coding": [
              {
                "system": "http://terminology.hl7.org/CodeSystem/observation-category",
                "code": "laboratory"
              }
            ]
          }
        ],
        "code": {
          "coding": [
            {
              "code": "18262-6",
              "system": "http://loinc.org",
              "display": "Cholesterol in LDL [Mass/volume] in Serum or Plasma by Direct assay"
            }
          ],
          "text": "Cholesterol in LDL [Mass/volume] in Serum or Plasma by Direct assay"
        },
        "valueQuantity": {
          "system": "http://unitsofmeasure.org",
          "value": 242.3,
          "unit": "mg/dL",
          "code": "mg/dL"
        },
        "referenceRange": [
          {
            "low": {
              "value": 0,
              "code": "mg/dL",
              "system": "http://unitsofmeasure.org"
            }
          },
          {
            "high": {
              "value": 190,
              "code": "mg/dL",
              "system": "http://unitsofmeasure.org"
            }
          }
        ],
        "interpretation": [
          {
            "coding": [
              {
                "code": "H",
                "system": "http://terminology.hl7.org/CodeSystem/v3-ObservationInterpretation",
                "display": "High"
              }
            ]
          }
        ],
        "text": {
          "status": "generated",
          "div": "<div xmlns=\"http://www.w3.org/1999/xhtml\"><table class=\"hl7__eu__lab__report\"><tr><th>Test</th><th>16-Mar-2021</th><th>Reference&#xA0;Range</th><th>Unit</th></tr><tr><td>Cholesterol in LDL [Mass/volume] in Serum or Plasma by Direct assay</td><td>242.3</td><td>0 - 190</td><td>H</td><td>mg/dL</td></tr></table></div>"
        },
        "status": "final",
        "subject": {
          "reference": "urn:uuid:205bfe65-2b10-4a73-9018-54a87c321bca",
          "display": "Urbano Cantón"
        },
        "effectiveDateTime": "2021-03-16T17:07:13Z",
        "specimen": {
          "reference": "urn:uuid:a5fccb7e-c76d-44d7-ac35-62de27c7a03d"
        }
      }
    },
    {
      "fullUrl": "urn:uuid:68487a35-f675-409e-8e18-9ab1cf669902",
      "resource": {
        "resourceType": "Observation",
        "id": "68487a35-f675-409e-8e18-9ab1cf669902",
        "meta": {
          "profile": [
            "http://hl7.eu/fhir/laboratory/StructureDefinition/Observation-resultslab-eu-lab"
          ]
        },
        "performer": [
          {
            "display": "The Central European Lab"
          }
        ],
        "category": [
          {
            "coding": [
              {
                "system": "http://terminology.hl7.org/CodeSystem/observation-category",
                "code": "laboratory"
              }
            ]
          }
        ],
        "code": {
          "coding": [
            {
              "code": "2085-9",
              "system": "http://loinc.org",
              "display": "Cholesterol in HDL [Mass/volume] in Serum or Plasma"
            }
          ],
          "text": "Cholesterol in HDL [Mass/volume] in Serum or Plasma"
        },
        "valueQuantity": {
          "system": "http://unitsofmeasure.org",
          "value": 39.7,
          "unit": "mg/dL",
          "code": "mg/dL"
        },
        "referenceRange": [
          {
            "low": {
              "value": 40,
              "code": "mg/dL",
              "system": "http://unitsofmeasure.org"
            }
          },
          {
            "high": {
              "value": 100,
              "code": "mg/dL",
              "system": "http://unitsofmeasure.org"
            }
          }
        ],
        "interpretation": [
          {
            "coding": [
              {
                "code": "L",
                "system": "http://terminology.hl7.org/CodeSystem/v3-ObservationInterpretation",
                "display": "Low"
              }
            ]
          }
        ],
        "text": {
          "status": "generated",
          "div": "<div xmlns=\"http://www.w3.org/1999/xhtml\"><table class=\"hl7__eu__lab__report\"><tr><th>Test</th><th>16-Mar-2021</th><th>Reference&#xA0;Range</th><th>Unit</th></tr><tr><td>Cholesterol in HDL [Mass/volume] in Serum or Plasma</td><td>39.7</td><td>40 - 100</td><td>L</td><td>mg/dL</td></tr></table></div>"
        },
        "status": "final",
        "subject": {
          "reference": "urn:uuid:205bfe65-2b10-4a73-9018-54a87c321bca",
          "display": "Urbano Cantón"
        },
        "effectiveDateTime": "2021-03-16T17:07:13Z",
        "specimen": {
          "reference": "urn:uuid:a5fccb7e-c76d-44d7-ac35-62de27c7a03d"
        }
      }
    },
    {
      "fullUrl": "urn:uuid:2e57eaa6-c2a8-4916-ae5b-2f154c9232f7",
      "resource": {
        "resourceType": "Observation",
        "id": "2e57eaa6-c2a8-4916-ae5b-2f154c9232f7",
        "meta": {
          "profile": [
            "http://hl7.eu/fhir/laboratory/StructureDefinition/Observation-resultslab-eu-lab"
          ]
        },
        "performer": [
          {
            "display": "The Central European Lab"
          }
        ],
        "category": [
          {
            "coding": [
              {
                "system": "http://terminology.hl7.org/CodeSystem/observation-category",
                "code": "laboratory"
              }
            ]
          }
        ],
        "code": {
          "coding": [
            {
              "code": "14959-1",
              "system": "http://loinc.org",
              "display": "Microalbumin/Creatinine [Mass Ratio] in Urine"
            }
          ],
          "text": "Microalbumin/Creatinine [Mass Ratio] in Urine"
        },
        "valueQuantity": {
          "system": "http://unitsofmeasure.org",
          "value": 13,
          "unit": "mg/g",
          "code": "mg/g"
        },
        "referenceRange": [
          {
            "low": {
              "value": 0,
              "code": "mg/g",
              "system": "http://unitsofmeasure.org"
            }
          },
          {
            "high": {
              "value": 30,
              "code": "mg/g",
              "system": "http://unitsofmeasure.org"
            }
          }
        ],
        "text": {
          "status": "generated",
          "div": "<div xmlns=\"http://www.w3.org/1999/xhtml\"><table class=\"hl7__eu__lab__report\"><tr><th>Test</th><th>16-Mar-2021</th><th>Reference&#xA0;Range</th><th>Unit</th></tr><tr><td>Microalbumin/Creatinine [Mass Ratio] in Urine</td><td>13.0</td><td>0 - 30</td><td></td><td>mg/g</td></tr></table></div>"
        },
        "status": "final",
        "subject": {
          "reference": "urn:uuid:205bfe65-2b10-4a73-9018-54a87c321bca",
          "display": "Urbano Cantón"
        },
        "effectiveDateTime": "2021-03-16T17:07:13Z",
        "specimen": {
          "reference": "urn:uuid:56f2b1b1-dc1c-4516-9236-a979f4a320fd"
        }
      }
    },
    {
      "fullUrl": "urn:uuid:9d8c8195-7a8d-483a-a214-5a7ce93d46fc",
      "resource": {
        "resourceType": "Observation",
        "id": "9d8c8195-7a8d-483a-a214-5a7ce93d46fc",
        "meta": {
          "profile": [
            "http://hl7.eu/fhir/laboratory/StructureDefinition/Observation-resultslab-eu-lab"
          ]
        },
        "performer": [
          {
            "display": "The Central European Lab"
          }
        ],
        "category": [
          {
            "coding": [
              {
                "system": "http://terminology.hl7.org/CodeSystem/observation-category",
                "code": "laboratory"
              }
            ]
          }
        ],
        "code": {
          "coding": [
            {
              "code": "6690-2",
              "system": "http://loinc.org",
              "display": "Leukocytes [#/volume] in Blood by Automated count"
            }
          ],
          "text": "Leukocytes [#/volume] in Blood by Automated count"
        },
        "valueQuantity": {
          "system": "http://unitsofmeasure.org",
          "value": 10.3,
          "unit": "10*3/uL",
          "code": "10*3/uL"
        },
        "referenceRange": [
          {
            "low": {
              "value": 3.6,
              "code": "10*3/uL",
              "system": "http://unitsofmeasure.org"
            }
          },
          {
            "high": {
              "value": 10.5,
              "code": "10*3/uL",
              "system": "http://unitsofmeasure.org"
            }
          }
        ],
        "text": {
          "status": "generated",
          "div": "<div xmlns=\"http://www.w3.org/1999/xhtml\"><table class=\"hl7__eu__lab__report\"><tr><th>Test</th><th>16-Mar-2021</th><th>Reference&#xA0;Range</th><th>Unit</th></tr><tr><td>Leukocytes [#/volume] in Blood by Automated count</td><td>10.3</td><td>3.6 - 10.5</td><td></td><td>10*3/uL</td></tr></table></div>"
        },
        "status": "final",
        "subject": {
          "reference": "urn:uuid:205bfe65-2b10-4a73-9018-54a87c321bca",
          "display": "Urbano Cantón"
        },
        "effectiveDateTime": "2021-03-16T17:07:13Z",
        "specimen": {
          "reference": "urn:uuid:28efc71c-b4db-4d2f-b789-e74ae9fd15e9"
        }
      }
    },
    {
      "fullUrl": "urn:uuid:104ae930-9e53-4e21-a66b-498f8d74d241",
      "resource": {
        "resourceType": "Observation",
        "id": "104ae930-9e53-4e21-a66b-498f8d74d241",
        "meta": {
          "profile": [
            "http://hl7.eu/fhir/laboratory/StructureDefinition/Observation-resultslab-eu-lab"
          ]
        },
        "performer": [
          {
            "display": "The Central European Lab"
          }
        ],
        "category": [
          {
            "coding": [
              {
                "system": "http://terminology.hl7.org/CodeSystem/observation-category",
                "code": "laboratory"
              }
            ]
          }
        ],
        "code": {
          "coding": [
            {
              "code": "789-8",
              "system": "http://loinc.org",
              "display": "Erythrocytes [#/volume] in Blood by Automated count"
            }
          ],
          "text": "Erythrocytes [#/volume] in Blood by Automated count"
        },
        "valueQuantity": {
          "system": "http://unitsofmeasure.org",
          "value": 4,
          "unit": "10*6/uL",
          "code": "10*6/uL"
        },
        "referenceRange": [
          {
            "low": {
              "value": 4,
              "code": "10*6/uL",
              "system": "http://unitsofmeasure.org"
            }
          },
          {
            "high": {
              "value": 6.2,
              "code": "10*6/uL",
              "system": "http://unitsofmeasure.org"
            }
          }
        ],
        "text": {
          "status": "generated",
          "div": "<div xmlns=\"http://www.w3.org/1999/xhtml\"><table class=\"hl7__eu__lab__report\"><tr><th>Test</th><th>16-Mar-2021</th><th>Reference&#xA0;Range</th><th>Unit</th></tr><tr><td>Erythrocytes [#/volume] in Blood by Automated count</td><td>4.0</td><td>4 - 6.2</td><td></td><td>10*6/uL</td></tr></table></div>"
        },
        "status": "final",
        "subject": {
          "reference": "urn:uuid:205bfe65-2b10-4a73-9018-54a87c321bca",
          "display": "Urbano Cantón"
        },
        "effectiveDateTime": "2021-03-16T17:07:13Z",
        "specimen": {
          "reference": "urn:uuid:28efc71c-b4db-4d2f-b789-e74ae9fd15e9"
        }
      }
    },
    {
      "fullUrl": "urn:uuid:d8150665-d119-4444-af95-b21ba43e813e",
      "resource": {
        "resourceType": "Observation",
        "id": "d8150665-d119-4444-af95-b21ba43e813e",
        "meta": {
          "profile": [
            "http://hl7.eu/fhir/laboratory/StructureDefinition/Observation-resultslab-eu-lab"
          ]
        },
        "performer": [
          {
            "display": "The Central European Lab"
          }
        ],
        "category": [
          {
            "coding": [
              {
                "system": "http://terminology.hl7.org/CodeSystem/observation-category",
                "code": "laboratory"
              }
            ]
          }
        ],
        "code": {
          "coding": [
            {
              "code": "718-7",
              "system": "http://loinc.org",
              "display": "Hemoglobin [Mass/volume] in Blood"
            }
          ],
          "text": "Hemoglobin [Mass/volume] in Blood"
        },
        "valueQuantity": {
          "system": "http://unitsofmeasure.org",
          "value": 12.1,
          "unit": "g/dL",
          "code": "g/dL"
        },
        "referenceRange": [
          {
            "low": {
              "value": 13.5,
              "code": "g/dL",
              "system": "http://unitsofmeasure.org"
            }
          },
          {
            "high": {
              "value": 17.5,
              "code": "g/dL",
              "system": "http://unitsofmeasure.org"
            }
          }
        ],
        "interpretation": [
          {
            "coding": [
              {
                "code": "L",
                "system": "http://terminology.hl7.org/CodeSystem/v3-ObservationInterpretation",
                "display": "Low"
              }
            ]
          }
        ],
        "text": {
          "status": "generated",
          "div": "<div xmlns=\"http://www.w3.org/1999/xhtml\"><table class=\"hl7__eu__lab__report\"><tr><th>Test</th><th>16-Mar-2021</th><th>Reference&#xA0;Range</th><th>Unit</th></tr><tr><td>Hemoglobin [Mass/volume] in Blood</td><td>12.1</td><td>13.5 - 17.5</td><td>L</td><td>g/dL</td></tr></table></div>"
        },
        "status": "final",
        "subject": {
          "reference": "urn:uuid:205bfe65-2b10-4a73-9018-54a87c321bca",
          "display": "Urbano Cantón"
        },
        "effectiveDateTime": "2021-03-16T17:07:13Z",
        "specimen": {
          "reference": "urn:uuid:28efc71c-b4db-4d2f-b789-e74ae9fd15e9"
        }
      }
    },
    {
      "fullUrl": "urn:uuid:eb41aa15-77ae-4c2f-b338-5be171d49e2d",
      "resource": {
        "resourceType": "Observation",
        "id": "eb41aa15-77ae-4c2f-b338-5be171d49e2d",
        "meta": {
          "profile": [
            "http://hl7.eu/fhir/laboratory/StructureDefinition/Observation-resultslab-eu-lab"
          ]
        },
        "performer": [
          {
            "display": "The Central European Lab"
          }
        ],
        "category": [
          {
            "coding": [
              {
                "system": "http://terminology.hl7.org/CodeSystem/observation-category",
                "code": "laboratory"
              }
            ]
          }
        ],
        "code": {
          "coding": [
            {
              "code": "4544-3",
              "system": "http://loinc.org",
              "display": "Hematocrit [Volume Fraction] of Blood by Automated count"
            }
          ],
          "text": "Hematocrit [Volume Fraction] of Blood by Automated count"
        },
        "valueQuantity": {
          "system": "http://unitsofmeasure.org",
          "value": 37.5,
          "unit": "%",
          "code": "%"
        },
        "referenceRange": [
          {
            "low": {
              "value": 37,
              "code": "%",
              "system": "http://unitsofmeasure.org"
            }
          },
          {
            "high": {
              "value": 52,
              "code": "%",
              "system": "http://unitsofmeasure.org"
            }
          }
        ],
        "text": {
          "status": "generated",
          "div": "<div xmlns=\"http://www.w3.org/1999/xhtml\"><table class=\"hl7__eu__lab__report\"><tr><th>Test</th><th>16-Mar-2021</th><th>Reference&#xA0;Range</th><th>Unit</th></tr><tr><td>Hematocrit [Volume Fraction] of Blood by Automated count</td><td>37.5</td><td>37 - 52</td><td></td><td>%</td></tr></table></div>"
        },
        "status": "final",
        "subject": {
          "reference": "urn:uuid:205bfe65-2b10-4a73-9018-54a87c321bca",
          "display": "Urbano Cantón"
        },
        "effectiveDateTime": "2021-03-16T17:07:13Z",
        "specimen": {
          "reference": "urn:uuid:28efc71c-b4db-4d2f-b789-e74ae9fd15e9"
        }
      }
    },
    {
      "fullUrl": "urn:uuid:fe017333-0202-49af-bb62-72232d945b05",
      "resource": {
        "resourceType": "Observation",
        "id": "fe017333-0202-49af-bb62-72232d945b05",
        "meta": {
          "profile": [
            "http://hl7.eu/fhir/laboratory/StructureDefinition/Observation-resultslab-eu-lab"
          ]
        },
        "performer": [
          {
            "display": "The Central European Lab"
          }
        ],
        "category": [
          {
            "coding": [
              {
                "system": "http://terminology.hl7.org/CodeSystem/observation-category",
                "code": "laboratory"
              }
            ]
          }
        ],
        "code": {
          "coding": [
            {
              "code": "787-2",
              "system": "http://loinc.org",
              "display": "MCV [Entitic volume] by Automated count"
            }
          ],
          "text": "MCV [Entitic volume] by Automated count"
        },
        "valueQuantity": {
          "system": "http://unitsofmeasure.org",
          "value": 86.6,
          "unit": "fL",
          "code": "fL"
        },
        "referenceRange": [
          {
            "low": {
              "value": 82,
              "code": "fL",
              "system": "http://unitsofmeasure.org"
            }
          },
          {
            "high": {
              "value": 98,
              "code": "fL",
              "system": "http://unitsofmeasure.org"
            }
          }
        ],
        "text": {
          "status": "generated",
          "div": "<div xmlns=\"http://www.w3.org/1999/xhtml\"><table class=\"hl7__eu__lab__report\"><tr><th>Test</th><th>16-Mar-2021</th><th>Reference&#xA0;Range</th><th>Unit</th></tr><tr><td>MCV [Entitic volume] by Automated count</td><td>86.6</td><td>82 - 98</td><td></td><td>fL</td></tr></table></div>"
        },
        "status": "final",
        "subject": {
          "reference": "urn:uuid:205bfe65-2b10-4a73-9018-54a87c321bca",
          "display": "Urbano Cantón"
        },
        "effectiveDateTime": "2021-03-16T17:07:13Z",
        "specimen": {
          "reference": "urn:uuid:28efc71c-b4db-4d2f-b789-e74ae9fd15e9"
        }
      }
    },
    {
      "fullUrl": "urn:uuid:57624b43-e48c-4d5c-a608-a6743009b1c8",
      "resource": {
        "resourceType": "Observation",
        "id": "57624b43-e48c-4d5c-a608-a6743009b1c8",
        "meta": {
          "profile": [
            "http://hl7.eu/fhir/laboratory/StructureDefinition/Observation-resultslab-eu-lab"
          ]
        },
        "performer": [
          {
            "display": "The Central European Lab"
          }
        ],
        "category": [
          {
            "coding": [
              {
                "system": "http://terminology.hl7.org/CodeSystem/observation-category",
                "code": "laboratory"
              }
            ]
          }
        ],
        "code": {
          "coding": [
            {
              "code": "785-6",
              "system": "http://loinc.org",
              "display": "MCH [Entitic mass] by Automated count"
            }
          ],
          "text": "MCH [Entitic mass] by Automated count"
        },
        "valueQuantity": {
          "system": "http://unitsofmeasure.org",
          "value": 28.1,
          "unit": "pg",
          "code": "pg"
        },
        "referenceRange": [
          {
            "low": {
              "value": 27,
              "code": "pg",
              "system": "http://unitsofmeasure.org"
            }
          },
          {
            "high": {
              "value": 33,
              "code": "pg",
              "system": "http://unitsofmeasure.org"
            }
          }
        ],
        "text": {
          "status": "generated",
          "div": "<div xmlns=\"http://www.w3.org/1999/xhtml\"><table class=\"hl7__eu__lab__report\"><tr><th>Test</th><th>16-Mar-2021</th><th>Reference&#xA0;Range</th><th>Unit</th></tr><tr><td>MCH [Entitic mass] by Automated count</td><td>28.1</td><td>27 - 33</td><td></td><td>pg</td></tr></table></div>"
        },
        "status": "final",
        "subject": {
          "reference": "urn:uuid:205bfe65-2b10-4a73-9018-54a87c321bca",
          "display": "Urbano Cantón"
        },
        "effectiveDateTime": "2021-03-16T17:07:13Z",
        "specimen": {
          "reference": "urn:uuid:28efc71c-b4db-4d2f-b789-e74ae9fd15e9"
        }
      }
    },
    {
      "fullUrl": "urn:uuid:703ef999-22d5-45c0-bc33-921c6e2f4694",
      "resource": {
        "resourceType": "Observation",
        "id": "703ef999-22d5-45c0-bc33-921c6e2f4694",
        "meta": {
          "profile": [
            "http://hl7.eu/fhir/laboratory/StructureDefinition/Observation-resultslab-eu-lab"
          ]
        },
        "performer": [
          {
            "display": "The Central European Lab"
          }
        ],
        "category": [
          {
            "coding": [
              {
                "system": "http://terminology.hl7.org/CodeSystem/observation-category",
                "code": "laboratory"
              }
            ]
          }
        ],
        "code": {
          "coding": [
            {
              "code": "786-4",
              "system": "http://loinc.org",
              "display": "MCHC [Mass/volume] by Automated count"
            }
          ],
          "text": "MCHC [Mass/volume] by Automated count"
        },
        "valueQuantity": {
          "system": "http://unitsofmeasure.org",
          "value": 35.9,
          "unit": "g/dL",
          "code": "g/dL"
        },
        "referenceRange": [
          {
            "low": {
              "value": 31,
              "code": "g/dL",
              "system": "http://unitsofmeasure.org"
            }
          },
          {
            "high": {
              "value": 36,
              "code": "g/dL",
              "system": "http://unitsofmeasure.org"
            }
          }
        ],
        "text": {
          "status": "generated",
          "div": "<div xmlns=\"http://www.w3.org/1999/xhtml\"><table class=\"hl7__eu__lab__report\"><tr><th>Test</th><th>16-Mar-2021</th><th>Reference&#xA0;Range</th><th>Unit</th></tr><tr><td>MCHC [Mass/volume] by Automated count</td><td>35.9</td><td>31 - 36</td><td></td><td>g/dL</td></tr></table></div>"
        },
        "status": "final",
        "subject": {
          "reference": "urn:uuid:205bfe65-2b10-4a73-9018-54a87c321bca",
          "display": "Urbano Cantón"
        },
        "effectiveDateTime": "2021-03-16T17:07:13Z",
        "specimen": {
          "reference": "urn:uuid:28efc71c-b4db-4d2f-b789-e74ae9fd15e9"
        }
      }
    },
    {
      "fullUrl": "urn:uuid:62b02da1-df29-4483-8ff1-f7c26c4bdf35",
      "resource": {
        "resourceType": "Observation",
        "id": "62b02da1-df29-4483-8ff1-f7c26c4bdf35",
        "meta": {
          "profile": [
            "http://hl7.eu/fhir/laboratory/StructureDefinition/Observation-resultslab-eu-lab"
          ]
        },
        "performer": [
          {
            "display": "The Central European Lab"
          }
        ],
        "category": [
          {
            "coding": [
              {
                "system": "http://terminology.hl7.org/CodeSystem/observation-category",
                "code": "laboratory"
              }
            ]
          }
        ],
        "code": {
          "coding": [
            {
              "code": "21000-5",
              "system": "http://loinc.org",
              "display": "Erythrocyte distribution width [Entitic volume] by Automated count"
            }
          ],
          "text": "Erythrocyte distribution width [Entitic volume] by Automated count"
        },
        "valueQuantity": {
          "system": "http://unitsofmeasure.org",
          "value": 43.1,
          "unit": "fL",
          "code": "fL"
        },
        "referenceRange": [
          {
            "low": {
              "value": 36.2,
              "code": "fL",
              "system": "http://unitsofmeasure.org"
            }
          },
          {
            "high": {
              "value": 56.6,
              "code": "fL",
              "system": "http://unitsofmeasure.org"
            }
          }
        ],
        "text": {
          "status": "generated",
          "div": "<div xmlns=\"http://www.w3.org/1999/xhtml\"><table class=\"hl7__eu__lab__report\"><tr><th>Test</th><th>16-Mar-2021</th><th>Reference&#xA0;Range</th><th>Unit</th></tr><tr><td>Erythrocyte distribution width [Entitic volume] by Automated count</td><td>43.1</td><td>36.2 - 56.6</td><td></td><td>fL</td></tr></table></div>"
        },
        "status": "final",
        "subject": {
          "reference": "urn:uuid:205bfe65-2b10-4a73-9018-54a87c321bca",
          "display": "Urbano Cantón"
        },
        "effectiveDateTime": "2021-03-16T17:07:13Z",
        "specimen": {
          "reference": "urn:uuid:28efc71c-b4db-4d2f-b789-e74ae9fd15e9"
        }
      }
    },
    {
      "fullUrl": "urn:uuid:ec14d95d-515a-406e-ab06-fd986e6f40cc",
      "resource": {
        "resourceType": "Observation",
        "id": "ec14d95d-515a-406e-ab06-fd986e6f40cc",
        "meta": {
          "profile": [
            "http://hl7.eu/fhir/laboratory/StructureDefinition/Observation-resultslab-eu-lab"
          ]
        },
        "performer": [
          {
            "display": "The Central European Lab"
          }
        ],
        "category": [
          {
            "coding": [
              {
                "system": "http://terminology.hl7.org/CodeSystem/observation-category",
                "code": "laboratory"
              }
            ]
          }
        ],
        "code": {
          "coding": [
            {
              "code": "777-3",
              "system": "http://loinc.org",
              "display": "Platelets [#/volume] in Blood by Automated count"
            }
          ],
          "text": "Platelets [#/volume] in Blood by Automated count"
        },
        "valueQuantity": {
          "system": "http://unitsofmeasure.org",
          "value": 305.8,
          "unit": "10*3/uL",
          "code": "10*3/uL"
        },
        "referenceRange": [
          {
            "low": {
              "value": 150,
              "code": "10*3/uL",
              "system": "http://unitsofmeasure.org"
            }
          },
          {
            "high": {
              "value": 450,
              "code": "10*3/uL",
              "system": "http://unitsofmeasure.org"
            }
          }
        ],
        "text": {
          "status": "generated",
          "div": "<div xmlns=\"http://www.w3.org/1999/xhtml\"><table class=\"hl7__eu__lab__report\"><tr><th>Test</th><th>16-Mar-2021</th><th>Reference&#xA0;Range</th><th>Unit</th></tr><tr><td>Platelets [#/volume] in Blood by Automated count</td><td>305.8</td><td>150 - 450</td><td></td><td>10*3/uL</td></tr></table></div>"
        },
        "status": "final",
        "subject": {
          "reference": "urn:uuid:205bfe65-2b10-4a73-9018-54a87c321bca",
          "display": "Urbano Cantón"
        },
        "effectiveDateTime": "2021-03-16T17:07:13Z",
        "specimen": {
          "reference": "urn:uuid:28efc71c-b4db-4d2f-b789-e74ae9fd15e9"
        }
      }
    },
    {
      "fullUrl": "urn:uuid:8ad84ec9-872a-4c80-9df4-f5f7dd7a559d",
      "resource": {
        "resourceType": "Observation",
        "id": "8ad84ec9-872a-4c80-9df4-f5f7dd7a559d",
        "meta": {
          "profile": [
            "http://hl7.eu/fhir/laboratory/StructureDefinition/Observation-resultslab-eu-lab"
          ]
        },
        "performer": [
          {
            "display": "The Central European Lab"
          }
        ],
        "category": [
          {
            "coding": [
              {
                "system": "http://terminology.hl7.org/CodeSystem/observation-category",
                "code": "laboratory"
              }
            ]
          }
        ],
        "code": {
          "coding": [
            {
              "code": "32207-3",
              "system": "http://loinc.org",
              "display": "Platelet distribution width [Entitic volume] in Blood by Automated count"
            }
          ],
          "text": "Platelet distribution width [Entitic volume] in Blood by Automated count"
        },
        "valueQuantity": {
          "system": "http://unitsofmeasure.org",
          "value": 275.9,
          "unit": "fL",
          "code": "fL"
        },
        "referenceRange": [
          {
            "low": {
              "value": 13.4,
              "code": "fL",
              "system": "http://unitsofmeasure.org"
            }
          },
          {
            "high": {
              "value": 17.4,
              "code": "fL",
              "system": "http://unitsofmeasure.org"
            }
          }
        ],
        "interpretation": [
          {
            "coding": [
              {
                "code": "H",
                "system": "http://terminology.hl7.org/CodeSystem/v3-ObservationInterpretation",
                "display": "High"
              }
            ]
          }
        ],
        "text": {
          "status": "generated",
          "div": "<div xmlns=\"http://www.w3.org/1999/xhtml\"><table class=\"hl7__eu__lab__report\"><tr><th>Test</th><th>16-Mar-2021</th><th>Reference&#xA0;Range</th><th>Unit</th></tr><tr><td>Platelet distribution width [Entitic volume] in Blood by Automated count</td><td>275.9</td><td>13.4 - 17.4</td><td>H</td><td>fL</td></tr></table></div>"
        },
        "status": "final",
        "subject": {
          "reference": "urn:uuid:205bfe65-2b10-4a73-9018-54a87c321bca",
          "display": "Urbano Cantón"
        },
        "effectiveDateTime": "2021-03-16T17:07:13Z",
        "specimen": {
          "reference": "urn:uuid:28efc71c-b4db-4d2f-b789-e74ae9fd15e9"
        }
      }
    },
    {
      "fullUrl": "urn:uuid:37f1a53d-8a18-4b61-a124-19ce3239151d",
      "resource": {
        "resourceType": "Observation",
        "id": "37f1a53d-8a18-4b61-a124-19ce3239151d",
        "meta": {
          "profile": [
            "http://hl7.eu/fhir/laboratory/StructureDefinition/Observation-resultslab-eu-lab"
          ]
        },
        "performer": [
          {
            "display": "The Central European Lab"
          }
        ],
        "category": [
          {
            "coding": [
              {
                "system": "http://terminology.hl7.org/CodeSystem/observation-category",
                "code": "laboratory"
              }
            ]
          }
        ],
        "code": {
          "coding": [
            {
              "code": "32623-1",
              "system": "http://loinc.org",
              "display": "Platelet mean volume [Entitic volume] in Blood by Automated count"
            }
          ],
          "text": "Platelet mean volume [Entitic volume] in Blood by Automated count"
        },
        "valueQuantity": {
          "system": "http://unitsofmeasure.org",
          "value": 11.6,
          "unit": "fL",
          "code": "fL"
        },
        "referenceRange": [
          {
            "low": {
              "value": 7.4,
              "code": "fL",
              "system": "http://unitsofmeasure.org"
            }
          },
          {
            "high": {
              "value": 12,
              "code": "fL",
              "system": "http://unitsofmeasure.org"
            }
          }
        ],
        "text": {
          "status": "generated",
          "div": "<div xmlns=\"http://www.w3.org/1999/xhtml\"><table class=\"hl7__eu__lab__report\"><tr><th>Test</th><th>16-Mar-2021</th><th>Reference&#xA0;Range</th><th>Unit</th></tr><tr><td>Platelet mean volume [Entitic volume] in Blood by Automated count</td><td>11.6</td><td>7.4 - 12</td><td></td><td>fL</td></tr></table></div>"
        },
        "status": "final",
        "subject": {
          "reference": "urn:uuid:205bfe65-2b10-4a73-9018-54a87c321bca",
          "display": "Urbano Cantón"
        },
        "effectiveDateTime": "2021-03-16T17:07:13Z",
        "specimen": {
          "reference": "urn:uuid:28efc71c-b4db-4d2f-b789-e74ae9fd15e9"
        }
      }
    },
    {
      "fullUrl": "urn:uuid:d81a5bbc-a2d3-4e3e-90fa-e1fb2bd9d45d",
      "resource": {
        "resourceType": "Device",
        "id": "d81a5bbc-a2d3-4e3e-90fa-e1fb2bd9d45d",
        "deviceName": [
          {
            "name": "SYNDERAI Synthetic Generator",
            "type": "manufacturer-name"
          }
        ],
        "version": [
          {
            "value": "5.0"
          }
        ],
        "text": {
          "status": "generated",
          "div": "<div xmlns=\"http://www.w3.org/1999/xhtml\">SYNDERAI Synthetic Generator v5.0</div>"
        },
        "status": "active\"",
        "distinctIdentifier": "synderai-generator-50",
        "manufacturer": "SYNDERAI Project"
      }
    },
    {
      "fullUrl": "urn:uuid:3e4e715d-4f09-4a70-81cd-42bb21b5197e",
      "resource": {
        "resourceType": "Provenance",
        "id": "3e4e715d-4f09-4a70-81cd-42bb21b5197e",
        "target": [
          {
            "reference": "Patient/205bfe65-2b10-4a73-9018-54a87c321bca"
          },
          {
            "reference": "Bundle/7839d428-e4d8-4f51-955e-dd4a3599dddc"
          },
          {
            "reference": "Composition/bf0afa72-7e88-4c77-a91a-edb5dd225791"
          },
          {
            "reference": "PractitionerRole/3946a548-6a75-4d09-9f29-ee13ca6a1297"
          },
          {
            "reference": "Practitioner/b24bb8fb-5e55-4463-aabf-91e2ff2b9311"
          },
          {
            "reference": "PractitionerRole/b7faea62-298d-4008-8cf3-4ddd66f0dae4"
          },
          {
            "reference": "Organization/03d2fe3e-b4a8-4b05-a570-999238e8a2de"
          }
        ],
        "activity": {
          "text": "Synthetic Example Data Generation"
        },
        "policy": [
          "https://synderai.net/synderai-synthetic-data-policy"
        ],
        "agent": [
          {
            "type": {
              "text": "author"
            },
            "who": {
              "reference": "Device/d81a5bbc-a2d3-4e3e-90fa-e1fb2bd9d45d"
            }
          }
        ],
        "reason": [
          {
            "text": "Interoperability Testing and Training (non-clinical use)"
          }
        ],
        "text": {
          "status": "generated",
          "div": "<div xmlns=\"http://www.w3.org/1999/xhtml\">Provenance for SYNDERAI Synthetic Example Data Resource</div>"
        },
        "recorded": "2021-03-16T18:07:13Z"
      }
    },
    {
      "fullUrl": "urn:uuid:3946a548-6a75-4d09-9f29-ee13ca6a1297",
      "resource": {
        "resourceType": "PractitionerRole",
        "id": "3946a548-6a75-4d09-9f29-ee13ca6a1297",
        "meta": {
          "profile": [
            "http://hl7.eu/fhir/base/StructureDefinition/practitionerRole-eu"
          ]
        },
        "text": {
          "status": "generated",
          "div": "<div xmlns=\"http://www.w3.org/1999/xhtml\">Laboratory Role Id: 3946a548-6a75-4d09-9f29-ee13ca6a1297</div>"
        },
        "practitioner": {
          "reference": "urn:uuid:b24bb8fb-5e55-4463-aabf-91e2ff2b9311"
        }
      }
    },
    {
      "fullUrl": "urn:uuid:b24bb8fb-5e55-4463-aabf-91e2ff2b9311",
      "resource": {
        "resourceType": "Practitioner",
        "id": "b24bb8fb-5e55-4463-aabf-91e2ff2b9311",
        "meta": {
          "profile": [
            "http://hl7.eu/fhir/base/StructureDefinition/practitioner-eu"
          ]
        },
        "identifier": [
          {
            "assigner": {
              "display": "HL7 Europe"
            },
            "system": "urn:oid:2.16.840.1.113883.2.51.999",
            "value": "c172cbaa-8b08-4981-b1e0-bc7353a51794"
          }
        ],
        "name": [
          {
            "prefix": [
              "dr"
            ],
            "given": [
              "Ex"
            ],
            "family": "Ample"
          }
        ],
        "address": [
          {
            "line": [
              "Laboratoire Central Européenne",
              "Boulevard du Jardin Botanique 32"
            ],
            "postalCode": "1000",
            "city": "Brussels",
            "country": "Belgium"
          }
        ],
        "text": {
          "status": "generated",
          "div": "<div xmlns=\"http://www.w3.org/1999/xhtml\">Laboratory: Laboratoire Central Européenne, 1000 Brussels, Belgium</div>"
        }
      }
    }
  ],
  "type": "document",
  "timestamp": "2021-03-16T18:07:13Z"
}
