{
  "resourceType": "Bundle",
  "id": "3d4a00d3-a6ca-4a2d-b3e3-50b5434aced0",
  "meta": {
    "profile": [
      "http://hl7.eu/fhir/laboratory/StructureDefinition/Bundle-eu-lab"
    ]
  },
  "identifier": {
    "assigner": {
      "display": "HL7 Europe"
    },
    "system": "urn:oid:2.16.840.1.113883.2.51.999",
    "value": "40d82e83-5076-4559-8b00-afca0ac7e37f"
  },
  "entry": [
    {
      "fullUrl": "urn:uuid:e36b27b0-d96c-4187-b09b-814081b8d397",
      "resource": {
        "resourceType": "Composition",
        "id": "e36b27b0-d96c-4187-b09b-814081b8d397",
        "meta": {
          "profile": [
            "http://hl7.eu/fhir/laboratory/StructureDefinition/Composition-eu-lab"
          ]
        },
        "identifier": {
          "assigner": {
            "display": "HL7 Europe"
          },
          "system": "urn:oid:2.16.840.1.113883.2.51.999",
          "value": "2e55d128-98f3-4f1c-a21e-6b519a4185e4"
        },
        "author": [
          {
            "reference": "urn:uuid:d988dad6-8752-4e21-bf06-2279e8edf0a1"
          }
        ],
        "category": [
          {
            "coding": [
              {
                "code": "26436-6",
                "system": "http://loinc.org",
                "display": "Laboratory studies (set)"
              }
            ]
          }
        ],
        "type": {
          "coding": [
            {
              "code": "11502-2",
              "system": "http://loinc.org",
              "display": "Laboratory report"
            }
          ],
          "text": "Laboratory Report"
        },
        "section": [
          {
            "code": {
              "coding": [
                {
                  "code": "26436-6",
                  "system": "http://loinc.org",
                  "display": "Laboratory studies (set)"
                }
              ],
              "text": "Laboratory studies"
            },
            "section": [
              {
                "code": {
                  "coding": [
                    {
                      "code": "$18719-5",
                      "system": "http://loinc.org",
                      "display": "Chemistry studies (set)"
                    }
                  ],
                  "text": "Chemistry"
                },
                "entry": [
                  {
                    "reference": "urn:uuid:8522a40c-5274-4aeb-98ee-94c5b5195a4c"
                  },
                  {
                    "reference": "urn:uuid:ec3a5dd5-101f-4608-aa29-d3a6c7c965c2"
                  },
                  {
                    "reference": "urn:uuid:94508b35-1d9f-4191-8955-a7db3becd127"
                  },
                  {
                    "reference": "urn:uuid:8d8ca03a-b3bf-4b48-9ff2-37ba6260ebaa"
                  }
                ],
                "text": {
                  "status": "generated",
                  "div": "<div xmlns=\"http://www.w3.org/1999/xhtml\"><h3>Chemistry</h3><table class=\"hl7__eu__lab__report\"><thead><tr><th>Test</th><th>02-JAN-2022</th><th>Reference&#xA0;Range</th><th>Unit</th></tr></thead><tbody><tr><td>Cholesterol [Mass/volume] in Serum or Plasma</td><td>165.6</td><td>0 - 200</td><td>mg/dL</td></tr><tr><td>Triglyceride [Mass/volume] in Serum or Plasma</td><td>126.6</td><td>0 - 150</td><td>mg/dL</td></tr><tr><td>Cholesterol in LDL [Mass/volume] in Serum or Plasma by Direct assay</td><td>78.2</td><td>0 - 130</td><td>mg/dL</td></tr><tr><td>Cholesterol in HDL [Mass/volume] in Serum or Plasma</td><td><strong>62.1 H</strong></td><td>40 - 60</td><td>mg/dL</td></tr></tbody></table></div>"
                },
                "title": "Chemistry"
              }
            ],
            "title": "Laboratory Report"
          },
          {
            "text": {
              "status": "generated",
              "div": "<div xmlns=\"http://www.w3.org/1999/xhtml\"><h3>Annotation</h3><table class=\"hl7__eu__lab__report\"><tr><th>Conclusion and Recommendations based on this report and previous findings known to us</th></tr><tr><td>All lipid parameters are within or slightly above the optimal range. Total cholesterol, triglycerides, and LDL are normal. HDL is mildly elevated, which is generally considered protective against cardiovascular disease. No laboratory evidence of dyslipidemia; results are favorable from a cardiovascular risk perspective. No action required.</td></tr></table></div>"
            },
            "code": {
              "coding": [
                {
                  "system": "http://loinc.org",
                  "code": "48767-8",
                  "display": "Annotation comment"
                }
              ]
            },
            "title": "Annotation comment"
          }
        ],
        "status": "final",
        "subject": {
          "reference": "urn:uuid:e87eeca7-408b-4644-bcc1-91145f4f1ccc",
          "display": "Russell Khan"
        },
        "date": "2022-01-02T14:31:07Z",
        "title": "Laboratory Report",
        "confidentiality": "N"
      }
    },
    {
      "fullUrl": "urn:uuid:7db92675-ba25-437b-b034-159f52204ac7",
      "resource": {
        "resourceType": "DiagnosticReport",
        "id": "7db92675-ba25-437b-b034-159f52204ac7",
        "meta": {
          "profile": [
            "http://hl7.eu/fhir/laboratory/StructureDefinition/DiagnosticReport-eu-lab"
          ]
        },
        "identifier": [
          {
            "assigner": {
              "display": "HL7 Europe"
            },
            "system": "urn:oid:2.16.840.1.113883.2.51.999",
            "value": "49a9352f-7564-4aaa-a9cc-a0a063cf94b5"
          }
        ],
        "extension": [
          {
            "url": "http://hl7.org/fhir/5.0/StructureDefinition/extension-DiagnosticReport.composition",
            "valueReference": {
              "reference": "urn:uuid:2e55d128-98f3-4f1c-a21e-6b519a4185e4"
            }
          }
        ],
        "category": [
          {
            "coding": [
              {
                "code": "26436-6",
                "system": "http://loinc.org",
                "display": "Laboratory studies (set)"
              }
            ]
          }
        ],
        "specimen": [
          {
            "reference": "urn:uuid:0266fd7e-6fae-4a58-87e3-e3317acbb1e9"
          }
        ],
        "result": [
          {
            "reference": "urn:uuid:8522a40c-5274-4aeb-98ee-94c5b5195a4c"
          },
          {
            "reference": "urn:uuid:ec3a5dd5-101f-4608-aa29-d3a6c7c965c2"
          },
          {
            "reference": "urn:uuid:94508b35-1d9f-4191-8955-a7db3becd127"
          },
          {
            "reference": "urn:uuid:8d8ca03a-b3bf-4b48-9ff2-37ba6260ebaa"
          }
        ],
        "status": "registered",
        "code": {
          "coding": [
            {
              "code": "11502-2",
              "system": "http://loinc.org",
              "display": "Laboratory report"
            }
          ]
        },
        "subject": {
          "reference": "urn:uuid:e87eeca7-408b-4644-bcc1-91145f4f1ccc",
          "display": "Russell Khan"
        }
      }
    },
    {
      "fullUrl": "urn:uuid:e87eeca7-408b-4644-bcc1-91145f4f1ccc",
      "resource": {
        "resourceType": "Patient",
        "id": "e87eeca7-408b-4644-bcc1-91145f4f1ccc",
        "meta": {
          "security": [
            {
              "system": "http://terminology.hl7.org/CodeSystem/v3-ActReason",
              "code": "HTEST"
            },
            {
              "system": "http://terminology.hl7.org/CodeSystem/v3-ActReason",
              "code": "TRAIN"
            }
          ],
          "tag": [
            {
              "system": "https://synderai.net/fhir/CodeSystem/tags",
              "code": "synthetic",
              "display": "SYNDERAI Synthetic data"
            }
          ],
          "profile": [
            "http://hl7.eu/fhir/base/StructureDefinition/patient-eu-core"
          ]
        },
        "identifier": [
          {
            "type": {
              "coding": [
                {
                  "code": "PT",
                  "system": "http://terminology.hl7.org/CodeSystem/v2-0203"
                }
              ]
            },
            "system": "http://ec.europa.eu/identifier/eci",
            "value": "7982-255119-2"
          },
          {
            "type": {
              "coding": [
                {
                  "code": "MR",
                  "system": "http://terminology.hl7.org/CodeSystem/v2-0203"
                }
              ]
            },
            "system": "http://local.setting.eu/identifier",
            "value": "7070b0e2-4aa2-c981-d552-92289a13285c"
          }
        ],
        "name": [
          {
            "family": "Khan"
          },
          {
            "given": [
              "Russell"
            ]
          },
          {
            "text": "Russell Khan"
          }
        ],
        "address": [
          {
            "line": [
              "1 Holly well"
            ],
            "use": "home",
            "type": "physical",
            "postalCode": "B9",
            "city": "Allantown",
            "country": "United Kingdom"
          }
        ],
        "telecom": [
          {
            "system": "phone",
            "value": "0115 4960345"
          }
        ],
        "extension": [
          {
            "url": "http://hl7.org/fhir/StructureDefinition/patient-nationality",
            "valueCodeableConcept": {
              "coding": [
                {
                  "code": "GB",
                  "system": "http://hl7.org/fhir/ValueSet/country"
                }
              ]
            }
          }
        ],
        "text": {
          "status": "generated",
          "div": "<div xmlns=\"http://www.w3.org/1999/xhtml\"><table class=\"hl7__ips\"><tr><td>Russell Khan</td><td>male</td><td>29-Aug-1980</td></tr></table></div>"
        },
        "gender": "male",
        "birthDate": "1980-08-29"
      }
    },
    {
      "fullUrl": "urn:uuid:63fec033-986a-4990-bdd4-64958eddf6f6",
      "resource": {
        "resourceType": "ServiceRequest",
        "id": "63fec033-986a-4990-bdd4-64958eddf6f6",
        "meta": {
          "profile": [
            "http://hl7.eu/fhir/laboratory/StructureDefinition/ServiceRequest-eu-lab"
          ]
        },
        "identifier": [
          {
            "system": "http://example.org",
            "value": "9def293e-c4c0-447b-bb50-1b8bcb394d01"
          }
        ],
        "specimen": [
          {
            "reference": "urn:uuid:0266fd7e-6fae-4a58-87e3-e3317acbb1e9"
          }
        ],
        "reasonCode": [
          {
            "coding": [
              {
                "code": "59621000",
                "system": "http://snomed.info/sct",
                "display": "Essential hypertension"
              }
            ]
          }
        ],
        "status": "active",
        "intent": "order",
        "code": {
          "coding": [
            {
              "code": "108252007",
              "system": "http://snomed.info/sct",
              "display": "Laboratory procedure"
            }
          ]
        },
        "subject": {
          "reference": "urn:uuid:e87eeca7-408b-4644-bcc1-91145f4f1ccc",
          "display": "Russell Khan"
        },
        "requester": {
          "reference": "urn:uuid:e9e72464-5508-4f91-b2c1-973ddbb99953"
        }
      }
    },
    {
      "fullUrl": "urn:uuid:e9e72464-5508-4f91-b2c1-973ddbb99953",
      "resource": {
        "resourceType": "PractitionerRole",
        "id": "e9e72464-5508-4f91-b2c1-973ddbb99953",
        "meta": {
          "profile": [
            "http://hl7.eu/fhir/base/StructureDefinition/practitionerRole-eu"
          ]
        },
        "text": {
          "status": "generated",
          "div": "<div xmlns=\"http://www.w3.org/1999/xhtml\">Provider Role Id: e9e72464-5508-4f91-b2c1-973ddbb99953</div>"
        },
        "organization": {
          "reference": "urn:uuid:8f996439-9345-4265-a607-ad65c2405adb"
        }
      }
    },
    {
      "fullUrl": "urn:uuid:8f996439-9345-4265-a607-ad65c2405adb",
      "resource": {
        "resourceType": "Organization",
        "id": "8f996439-9345-4265-a607-ad65c2405adb",
        "meta": {
          "profile": [
            "http://hl7.eu/fhir/base/StructureDefinition/organization-eu"
          ]
        },
        "identifier": [
          {
            "assigner": {
              "display": "HL7 Europe"
            },
            "system": "urn:oid:2.16.840.1.113883.2.51.999",
            "value": "0727dad6-b419-44be-9688-135c9491fbc8"
          }
        ],
        "address": [
          {
            "city": "Birmingham",
            "postalCode": "B4 6",
            "country": "United Kingdom"
          }
        ],
        "text": {
          "status": "generated",
          "div": "<div xmlns=\"http://www.w3.org/1999/xhtml\">Provider Organization: Birmingham Children&#039;s Hospital</div>"
        },
        "name": "Birmingham Children&#039;s Hospital"
      }
    },
    {
      "fullUrl": "urn:uuid:0266fd7e-6fae-4a58-87e3-e3317acbb1e9",
      "resource": {
        "resourceType": "Specimen",
        "id": "0266fd7e-6fae-4a58-87e3-e3317acbb1e9",
        "meta": {
          "profile": [
            "http://hl7.eu/fhir/laboratory/StructureDefinition/Specimen-eu-lab"
          ]
        },
        "collection": {
          "collectedDateTime": "2022-01-02"
        },
        "text": {
          "status": "generated",
          "div": "<div xmlns=\"http://www.w3.org/1999/xhtml\"><table class=\"hl7__eu__lab__report\"><tr><th>Specimen</th><th>Collection Date</th></tr><tr><td>Acellular blood (serum or plasma) specimen</td><td><span class=\"nb\">02-Jan-2022</span></td></tr></table></div>"
        },
        "type": {
          "coding": [
            {
              "code": "122592007",
              "system": "http://snomed.info/sct",
              "display": "Acellular blood (serum or plasma) specimen"
            }
          ]
        }
      }
    },
    {
      "fullUrl": "urn:uuid:8522a40c-5274-4aeb-98ee-94c5b5195a4c",
      "resource": {
        "resourceType": "Observation",
        "id": "8522a40c-5274-4aeb-98ee-94c5b5195a4c",
        "meta": {
          "profile": [
            "http://hl7.eu/fhir/laboratory/StructureDefinition/Observation-resultslab-eu-lab"
          ]
        },
        "performer": [
          {
            "display": "The Central European Lab"
          }
        ],
        "category": [
          {
            "coding": [
              {
                "system": "http://terminology.hl7.org/CodeSystem/observation-category",
                "code": "laboratory"
              }
            ]
          }
        ],
        "code": {
          "coding": [
            {
              "code": "2093-3",
              "system": "http://loinc.org",
              "display": "Cholesterol [Mass/volume] in Serum or Plasma"
            }
          ],
          "text": "Cholesterol [Mass/volume] in Serum or Plasma"
        },
        "valueQuantity": {
          "system": "http://unitsofmeasure.org",
          "value": 165.6,
          "unit": "mg/dL",
          "code": "mg/dL"
        },
        "referenceRange": [
          {
            "low": {
              "value": 0,
              "code": "mg/dL",
              "system": "http://unitsofmeasure.org"
            }
          },
          {
            "high": {
              "value": 200,
              "code": "mg/dL",
              "system": "http://unitsofmeasure.org"
            }
          }
        ],
        "text": {
          "status": "generated",
          "div": "<div xmlns=\"http://www.w3.org/1999/xhtml\"><table class=\"hl7__eu__lab__report\"><tr><th>Test</th><th>02-Jan-2022</th><th>Reference&#xA0;Range</th><th>Unit</th></tr><tr><td>Cholesterol [Mass/volume] in Serum or Plasma</td><td>165.6</td><td>0 - 200</td><td></td><td>mg/dL</td></tr></table></div>"
        },
        "status": "final",
        "subject": {
          "reference": "urn:uuid:e87eeca7-408b-4644-bcc1-91145f4f1ccc",
          "display": "Russell Khan"
        },
        "effectiveDateTime": "2022-01-02T13:31:07Z",
        "specimen": {
          "reference": "urn:uuid:0266fd7e-6fae-4a58-87e3-e3317acbb1e9"
        }
      }
    },
    {
      "fullUrl": "urn:uuid:ec3a5dd5-101f-4608-aa29-d3a6c7c965c2",
      "resource": {
        "resourceType": "Observation",
        "id": "ec3a5dd5-101f-4608-aa29-d3a6c7c965c2",
        "meta": {
          "profile": [
            "http://hl7.eu/fhir/laboratory/StructureDefinition/Observation-resultslab-eu-lab"
          ]
        },
        "performer": [
          {
            "display": "The Central European Lab"
          }
        ],
        "category": [
          {
            "coding": [
              {
                "system": "http://terminology.hl7.org/CodeSystem/observation-category",
                "code": "laboratory"
              }
            ]
          }
        ],
        "code": {
          "coding": [
            {
              "code": "2571-8",
              "system": "http://loinc.org",
              "display": "Triglyceride [Mass/volume] in Serum or Plasma"
            }
          ],
          "text": "Triglyceride [Mass/volume] in Serum or Plasma"
        },
        "valueQuantity": {
          "system": "http://unitsofmeasure.org",
          "value": 126.6,
          "unit": "mg/dL",
          "code": "mg/dL"
        },
        "referenceRange": [
          {
            "low": {
              "value": 0,
              "code": "mg/dL",
              "system": "http://unitsofmeasure.org"
            }
          },
          {
            "high": {
              "value": 150,
              "code": "mg/dL",
              "system": "http://unitsofmeasure.org"
            }
          }
        ],
        "text": {
          "status": "generated",
          "div": "<div xmlns=\"http://www.w3.org/1999/xhtml\"><table class=\"hl7__eu__lab__report\"><tr><th>Test</th><th>02-Jan-2022</th><th>Reference&#xA0;Range</th><th>Unit</th></tr><tr><td>Triglyceride [Mass/volume] in Serum or Plasma</td><td>126.6</td><td>0 - 150</td><td></td><td>mg/dL</td></tr></table></div>"
        },
        "status": "final",
        "subject": {
          "reference": "urn:uuid:e87eeca7-408b-4644-bcc1-91145f4f1ccc",
          "display": "Russell Khan"
        },
        "effectiveDateTime": "2022-01-02T13:31:07Z",
        "specimen": {
          "reference": "urn:uuid:0266fd7e-6fae-4a58-87e3-e3317acbb1e9"
        }
      }
    },
    {
      "fullUrl": "urn:uuid:94508b35-1d9f-4191-8955-a7db3becd127",
      "resource": {
        "resourceType": "Observation",
        "id": "94508b35-1d9f-4191-8955-a7db3becd127",
        "meta": {
          "profile": [
            "http://hl7.eu/fhir/laboratory/StructureDefinition/Observation-resultslab-eu-lab"
          ]
        },
        "performer": [
          {
            "display": "The Central European Lab"
          }
        ],
        "category": [
          {
            "coding": [
              {
                "system": "http://terminology.hl7.org/CodeSystem/observation-category",
                "code": "laboratory"
              }
            ]
          }
        ],
        "code": {
          "coding": [
            {
              "code": "18262-6",
              "system": "http://loinc.org",
              "display": "Cholesterol in LDL [Mass/volume] in Serum or Plasma by Direct assay"
            }
          ],
          "text": "Cholesterol in LDL [Mass/volume] in Serum or Plasma by Direct assay"
        },
        "valueQuantity": {
          "system": "http://unitsofmeasure.org",
          "value": 78.2,
          "unit": "mg/dL",
          "code": "mg/dL"
        },
        "referenceRange": [
          {
            "low": {
              "value": 0,
              "code": "mg/dL",
              "system": "http://unitsofmeasure.org"
            }
          },
          {
            "high": {
              "value": 130,
              "code": "mg/dL",
              "system": "http://unitsofmeasure.org"
            }
          }
        ],
        "text": {
          "status": "generated",
          "div": "<div xmlns=\"http://www.w3.org/1999/xhtml\"><table class=\"hl7__eu__lab__report\"><tr><th>Test</th><th>02-Jan-2022</th><th>Reference&#xA0;Range</th><th>Unit</th></tr><tr><td>Cholesterol in LDL [Mass/volume] in Serum or Plasma by Direct assay</td><td>78.2</td><td>0 - 130</td><td></td><td>mg/dL</td></tr></table></div>"
        },
        "status": "final",
        "subject": {
          "reference": "urn:uuid:e87eeca7-408b-4644-bcc1-91145f4f1ccc",
          "display": "Russell Khan"
        },
        "effectiveDateTime": "2022-01-02T13:31:07Z",
        "specimen": {
          "reference": "urn:uuid:0266fd7e-6fae-4a58-87e3-e3317acbb1e9"
        }
      }
    },
    {
      "fullUrl": "urn:uuid:8d8ca03a-b3bf-4b48-9ff2-37ba6260ebaa",
      "resource": {
        "resourceType": "Observation",
        "id": "8d8ca03a-b3bf-4b48-9ff2-37ba6260ebaa",
        "meta": {
          "profile": [
            "http://hl7.eu/fhir/laboratory/StructureDefinition/Observation-resultslab-eu-lab"
          ]
        },
        "performer": [
          {
            "display": "The Central European Lab"
          }
        ],
        "category": [
          {
            "coding": [
              {
                "system": "http://terminology.hl7.org/CodeSystem/observation-category",
                "code": "laboratory"
              }
            ]
          }
        ],
        "code": {
          "coding": [
            {
              "code": "2085-9",
              "system": "http://loinc.org",
              "display": "Cholesterol in HDL [Mass/volume] in Serum or Plasma"
            }
          ],
          "text": "Cholesterol in HDL [Mass/volume] in Serum or Plasma"
        },
        "valueQuantity": {
          "system": "http://unitsofmeasure.org",
          "value": 62.1,
          "unit": "mg/dL",
          "code": "mg/dL"
        },
        "referenceRange": [
          {
            "low": {
              "value": 40,
              "code": "mg/dL",
              "system": "http://unitsofmeasure.org"
            }
          },
          {
            "high": {
              "value": 60,
              "code": "mg/dL",
              "system": "http://unitsofmeasure.org"
            }
          }
        ],
        "interpretation": [
          {
            "coding": [
              {
                "code": "H",
                "system": "http://terminology.hl7.org/CodeSystem/v3-ObservationInterpretation",
                "display": "High"
              }
            ]
          }
        ],
        "text": {
          "status": "generated",
          "div": "<div xmlns=\"http://www.w3.org/1999/xhtml\"><table class=\"hl7__eu__lab__report\"><tr><th>Test</th><th>02-Jan-2022</th><th>Reference&#xA0;Range</th><th>Unit</th></tr><tr><td>Cholesterol in HDL [Mass/volume] in Serum or Plasma</td><td>62.1</td><td>40 - 60</td><td>H</td><td>mg/dL</td></tr></table></div>"
        },
        "status": "final",
        "subject": {
          "reference": "urn:uuid:e87eeca7-408b-4644-bcc1-91145f4f1ccc",
          "display": "Russell Khan"
        },
        "effectiveDateTime": "2022-01-02T13:31:07Z",
        "specimen": {
          "reference": "urn:uuid:0266fd7e-6fae-4a58-87e3-e3317acbb1e9"
        }
      }
    },
    {
      "fullUrl": "urn:uuid:304bd253-886f-43e1-9322-43a15124c4a2",
      "resource": {
        "resourceType": "Device",
        "id": "304bd253-886f-43e1-9322-43a15124c4a2",
        "deviceName": [
          {
            "name": "SYNDERAI Synthetic Generator",
            "type": "manufacturer-name"
          }
        ],
        "version": [
          {
            "value": "5.0"
          }
        ],
        "text": {
          "status": "generated",
          "div": "<div xmlns=\"http://www.w3.org/1999/xhtml\">SYNDERAI Synthetic Generator v5.0</div>"
        },
        "status": "active\"",
        "distinctIdentifier": "synderai-generator-50",
        "manufacturer": "SYNDERAI Project"
      }
    },
    {
      "fullUrl": "urn:uuid:f2b89da3-d8e1-4d83-8b8b-4a12e4c3e79d",
      "resource": {
        "resourceType": "Provenance",
        "id": "f2b89da3-d8e1-4d83-8b8b-4a12e4c3e79d",
        "target": [
          {
            "reference": "Patient/e87eeca7-408b-4644-bcc1-91145f4f1ccc"
          },
          {
            "reference": "Bundle/3d4a00d3-a6ca-4a2d-b3e3-50b5434aced0"
          },
          {
            "reference": "Composition/e36b27b0-d96c-4187-b09b-814081b8d397"
          },
          {
            "reference": "PractitionerRole/d988dad6-8752-4e21-bf06-2279e8edf0a1"
          },
          {
            "reference": "Practitioner/47718830-b0bb-4922-a14a-6e2bb0877d58"
          },
          {
            "reference": "PractitionerRole/e9e72464-5508-4f91-b2c1-973ddbb99953"
          },
          {
            "reference": "Organization/8f996439-9345-4265-a607-ad65c2405adb"
          }
        ],
        "activity": {
          "text": "Synthetic Example Data Generation"
        },
        "policy": [
          "https://synderai.net/synderai-synthetic-data-policy"
        ],
        "agent": [
          {
            "type": {
              "text": "author"
            },
            "who": {
              "reference": "Device/304bd253-886f-43e1-9322-43a15124c4a2"
            }
          }
        ],
        "reason": [
          {
            "text": "Interoperability Testing and Training (non-clinical use)"
          }
        ],
        "text": {
          "status": "generated",
          "div": "<div xmlns=\"http://www.w3.org/1999/xhtml\">Provenance for SYNDERAI Synthetic Example Data Resource</div>"
        },
        "recorded": "2022-01-02T14:31:07Z"
      }
    },
    {
      "fullUrl": "urn:uuid:d988dad6-8752-4e21-bf06-2279e8edf0a1",
      "resource": {
        "resourceType": "PractitionerRole",
        "id": "d988dad6-8752-4e21-bf06-2279e8edf0a1",
        "meta": {
          "profile": [
            "http://hl7.eu/fhir/base/StructureDefinition/practitionerRole-eu"
          ]
        },
        "text": {
          "status": "generated",
          "div": "<div xmlns=\"http://www.w3.org/1999/xhtml\">Laboratory Role Id: d988dad6-8752-4e21-bf06-2279e8edf0a1</div>"
        },
        "practitioner": {
          "reference": "urn:uuid:47718830-b0bb-4922-a14a-6e2bb0877d58"
        }
      }
    },
    {
      "fullUrl": "urn:uuid:47718830-b0bb-4922-a14a-6e2bb0877d58",
      "resource": {
        "resourceType": "Practitioner",
        "id": "47718830-b0bb-4922-a14a-6e2bb0877d58",
        "meta": {
          "profile": [
            "http://hl7.eu/fhir/base/StructureDefinition/practitioner-eu"
          ]
        },
        "identifier": [
          {
            "assigner": {
              "display": "HL7 Europe"
            },
            "system": "urn:oid:2.16.840.1.113883.2.51.999",
            "value": "fc7d10a9-817a-4cb8-af74-ca75e3aa2233"
          }
        ],
        "name": [
          {
            "prefix": [
              "dr"
            ],
            "given": [
              "Ex"
            ],
            "family": "Ample"
          }
        ],
        "address": [
          {
            "line": [
              "Laboratoire Central Européenne",
              "Boulevard du Jardin Botanique 32"
            ],
            "postalCode": "1000",
            "city": "Brussels",
            "country": "Belgium"
          }
        ],
        "text": {
          "status": "generated",
          "div": "<div xmlns=\"http://www.w3.org/1999/xhtml\">Laboratory: Laboratoire Central Européenne, 1000 Brussels, Belgium</div>"
        }
      }
    }
  ],
  "type": "document",
  "timestamp": "2022-01-02T14:31:07Z"
}
