{
  "resourceType": "Bundle",
  "id": "25c648ae-3b88-4bde-8a86-8dc6654bc9b0",
  "meta": {
    "profile": [
      "http://hl7.eu/fhir/laboratory/StructureDefinition/Bundle-eu-lab"
    ]
  },
  "identifier": {
    "assigner": {
      "display": "HL7 Europe"
    },
    "system": "urn:oid:2.16.840.1.113883.2.51.999",
    "value": "092edecc-6caa-496c-8028-0f666816b76b"
  },
  "entry": [
    {
      "fullUrl": "urn:uuid:0684b95d-fd82-410c-a9d2-68ec18b36434",
      "resource": {
        "resourceType": "Composition",
        "id": "0684b95d-fd82-410c-a9d2-68ec18b36434",
        "meta": {
          "profile": [
            "http://hl7.eu/fhir/laboratory/StructureDefinition/Composition-eu-lab"
          ]
        },
        "identifier": {
          "assigner": {
            "display": "HL7 Europe"
          },
          "system": "urn:oid:2.16.840.1.113883.2.51.999",
          "value": "f8be8109-15fc-449d-a6da-8f292ad8318c"
        },
        "author": [
          {
            "reference": "urn:uuid:a3ab02b6-9aa4-43c5-be26-38a502c0c8b3"
          }
        ],
        "category": [
          {
            "coding": [
              {
                "code": "26436-6",
                "system": "http://loinc.org",
                "display": "Laboratory studies (set)"
              }
            ]
          }
        ],
        "type": {
          "coding": [
            {
              "code": "11502-2",
              "system": "http://loinc.org",
              "display": "Laboratory report"
            }
          ],
          "text": "Laboratory Report"
        },
        "section": [
          {
            "code": {
              "coding": [
                {
                  "code": "26436-6",
                  "system": "http://loinc.org",
                  "display": "Laboratory studies (set)"
                }
              ],
              "text": "Laboratory studies"
            },
            "section": [
              {
                "code": {
                  "coding": [
                    {
                      "code": "$18723-7",
                      "system": "http://loinc.org",
                      "display": "Hematology studies (set)"
                    }
                  ],
                  "text": "Hematology"
                },
                "entry": [
                  {
                    "reference": "urn:uuid:1d20ffb7-57b7-4b86-81da-dc58eaa92ddb"
                  },
                  {
                    "reference": "urn:uuid:720e85cf-e72c-4be4-b54d-8ba98a79bfc9"
                  },
                  {
                    "reference": "urn:uuid:d4c54cee-9c94-496c-b7a9-b970659db518"
                  },
                  {
                    "reference": "urn:uuid:71e1243f-62c6-4569-84e4-7a0caed510e7"
                  },
                  {
                    "reference": "urn:uuid:eb443c6e-0a39-47bf-80cf-1a302fb7b217"
                  },
                  {
                    "reference": "urn:uuid:5af4738d-7ac5-4582-b8a6-ea548cbde641"
                  },
                  {
                    "reference": "urn:uuid:32eb5c73-647c-4319-bf16-b7f0296b61be"
                  },
                  {
                    "reference": "urn:uuid:2a3854f0-3b68-4dcf-9972-a7f1e21ddbb4"
                  },
                  {
                    "reference": "urn:uuid:377f4837-f779-4d71-988e-5326a5963d0b"
                  },
                  {
                    "reference": "urn:uuid:6f9808f4-9034-4363-a089-72ffe7e97128"
                  },
                  {
                    "reference": "urn:uuid:c0f98382-1923-48ff-9d30-3d89d266949e"
                  }
                ],
                "text": {
                  "status": "generated",
                  "div": "<div xmlns=\"http://www.w3.org/1999/xhtml\"><h3>Hematology</h3><table class=\"hl7__eu__lab__report\"><thead><tr><th>Test</th><th>11-MAR-2024</th><th>Reference&#xA0;Range</th><th>Unit</th></tr></thead><tbody><tr><td>Leukocytes [#/volume] in Blood by Automated count</td><td>3.8</td><td>3.4 - 10.6</td><td>10*3/uL</td></tr><tr><td>Erythrocytes [#/volume] in Blood by Automated count</td><td>4.8</td><td>4.2 - 5.2</td><td>10*6/uL</td></tr><tr><td>Hemoglobin [Mass/volume] in Blood</td><td><strong>16.1 H</strong></td><td>12 - 16</td><td>g/dL</td></tr><tr><td>Hematocrit [Volume Fraction] of Blood by Automated count</td><td>42.0</td><td>37 - 46</td><td>%</td></tr><tr><td>MCV [Entitic volume] by Automated count</td><td>93.1</td><td>80 - 105</td><td>fL</td></tr><tr><td>MCH [Entitic mass] by Automated count</td><td>28.2</td><td>27 - 34</td><td>pg</td></tr><tr><td>MCHC [Mass/volume] by Automated count</td><td><strong>35.3 H</strong></td><td>31 - 35</td><td>g/dL</td></tr><tr><td>Erythrocyte distribution width [Entitic volume] by Automated count</td><td>41.5</td><td>36 - 46</td><td>fL</td></tr><tr><td>Platelets [#/volume] in Blood by Automated count</td><td><strong>416.6 H</strong></td><td>150 - 415</td><td>10*3/uL</td></tr><tr><td>Platelet distribution width [Entitic volume] in Blood by Automated count</td><td><strong>422.2 H</strong></td><td>11.6 - 17.4</td><td>fL</td></tr><tr><td>Platelet mean volume [Entitic volume] in Blood by Automated count</td><td>10.2</td><td>7.2 - 13.8</td><td>fL</td></tr></tbody></table></div>"
                },
                "title": "Hematology"
              },
              {
                "code": {
                  "coding": [
                    {
                      "code": "$18719-5",
                      "system": "http://loinc.org",
                      "display": "Chemistry studies (set)"
                    }
                  ],
                  "text": "Chemistry"
                },
                "entry": [
                  {
                    "reference": "urn:uuid:3d57c265-4cf4-4b92-8568-44ce37cd02c5"
                  },
                  {
                    "reference": "urn:uuid:75d05052-01a0-4370-9404-acde4d522265"
                  },
                  {
                    "reference": "urn:uuid:61ecb38d-de6c-413e-8784-ec5de620a783"
                  },
                  {
                    "reference": "urn:uuid:dddfcac5-5982-4236-a27a-86ad1768a46c"
                  },
                  {
                    "reference": "urn:uuid:ab603cb8-2d79-41f6-9c65-0d06cb1022ef"
                  },
                  {
                    "reference": "urn:uuid:f3015e1a-c537-4b8f-8118-8bd1b2001ae6"
                  },
                  {
                    "reference": "urn:uuid:2d5b6b74-4d87-4eb4-830f-c4808a36aca7"
                  },
                  {
                    "reference": "urn:uuid:d005092c-792d-4492-ae9b-fdb5ba819266"
                  },
                  {
                    "reference": "urn:uuid:8fdfe324-e657-435b-b7e0-9b753d3391b0"
                  }
                ],
                "text": {
                  "status": "generated",
                  "div": "<div xmlns=\"http://www.w3.org/1999/xhtml\"><h3>Chemistry</h3><table class=\"hl7__eu__lab__report\"><thead><tr><th>Test</th><th>11-MAR-2024</th><th>Reference&#xA0;Range</th><th>Unit</th></tr></thead><tbody><tr><td>Hemoglobin A1c/Hemoglobin.total in Blood</td><td><strong>6.1 H</strong></td><td>4.8 - 5.7</td><td>%</td></tr><tr><td>Glucose [Mass/volume] in Blood</td><td>78.6</td><td>70 - 99</td><td>mg/dL</td></tr><tr><td>Urea nitrogen [Mass/volume] in Blood</td><td>15.2</td><td>7 - 20</td><td>mg/dL</td></tr><tr><td>Creatinine [Mass/volume] in Blood</td><td>1.0</td><td>0.6 - 1.1</td><td>mg/dL</td></tr><tr><td>Calcium [Mass/volume] in Blood</td><td>9.3</td><td>8.5 - 10.5</td><td>mg/dL</td></tr><tr><td>Sodium [Moles/volume] in Blood</td><td>138.8</td><td>135 - 145</td><td>mmol/L</td></tr><tr><td>Potassium [Moles/volume] in Blood</td><td>4.2</td><td>3.5 - 5.3</td><td>mmol/L</td></tr><tr><td>Chloride [Moles/volume] in Blood</td><td>108.3</td><td>98 - 114</td><td>mmol/L</td></tr><tr><td>Carbon dioxide, total [Moles/volume] in Blood</td><td>26.8</td><td>22 - 29</td><td>mmol/L</td></tr></tbody></table></div>"
                },
                "title": "Chemistry"
              }
            ],
            "title": "Laboratory Report"
          },
          {
            "text": {
              "status": "generated",
              "div": "<div xmlns=\"http://www.w3.org/1999/xhtml\"><h3>Annotation</h3><table class=\"hl7__eu__lab__report\"><tr><th>Conclusion and Recommendations based on this report and previous findings known to us</th></tr><tr><td>The patient shows mildly elevated HbA1c, suggesting impaired glucose metabolism or prediabetes, despite normal fasting glucose. Hemoglobin and MCHC are slightly high, possibly indicating mild hemoconcentration or dehydration. Platelet count and platelet distribution width are marginally elevated, which may reflect reactive thrombocytosis or laboratory variation. Renal function, electrolytes, and other hematological parameters are within normal limits. Clinical correlation and follow-up of glycemic status are recommended.</td></tr></table></div>"
            },
            "code": {
              "coding": [
                {
                  "system": "http://loinc.org",
                  "code": "48767-8",
                  "display": "Annotation comment"
                }
              ]
            },
            "title": "Annotation comment"
          }
        ],
        "status": "final",
        "subject": {
          "reference": "urn:uuid:841b4f62-7101-40f4-8816-8158d49eae45",
          "display": "Pauline Grenier"
        },
        "date": "2024-03-11T12:54:46Z",
        "title": "Laboratory Report",
        "confidentiality": "N"
      }
    },
    {
      "fullUrl": "urn:uuid:cc75a6e2-4f5f-49b3-9512-c2f6fc052c60",
      "resource": {
        "resourceType": "DiagnosticReport",
        "id": "cc75a6e2-4f5f-49b3-9512-c2f6fc052c60",
        "meta": {
          "profile": [
            "http://hl7.eu/fhir/laboratory/StructureDefinition/DiagnosticReport-eu-lab"
          ]
        },
        "identifier": [
          {
            "assigner": {
              "display": "HL7 Europe"
            },
            "system": "urn:oid:2.16.840.1.113883.2.51.999",
            "value": "f607d60b-1b4e-4a65-a86f-506d0bf2ef3e"
          }
        ],
        "extension": [
          {
            "url": "http://hl7.org/fhir/5.0/StructureDefinition/extension-DiagnosticReport.composition",
            "valueReference": {
              "reference": "urn:uuid:f8be8109-15fc-449d-a6da-8f292ad8318c"
            }
          }
        ],
        "category": [
          {
            "coding": [
              {
                "code": "26436-6",
                "system": "http://loinc.org",
                "display": "Laboratory studies (set)"
              }
            ]
          }
        ],
        "specimen": [
          {
            "reference": "urn:uuid:e8afe684-d6ad-4d2f-a142-06c12dcf87b4"
          },
          {
            "reference": "urn:uuid:e8afe684-d6ad-4d2f-a142-06c12dcf87b4"
          }
        ],
        "result": [
          {
            "reference": "urn:uuid:3d57c265-4cf4-4b92-8568-44ce37cd02c5"
          },
          {
            "reference": "urn:uuid:75d05052-01a0-4370-9404-acde4d522265"
          },
          {
            "reference": "urn:uuid:61ecb38d-de6c-413e-8784-ec5de620a783"
          },
          {
            "reference": "urn:uuid:dddfcac5-5982-4236-a27a-86ad1768a46c"
          },
          {
            "reference": "urn:uuid:ab603cb8-2d79-41f6-9c65-0d06cb1022ef"
          },
          {
            "reference": "urn:uuid:f3015e1a-c537-4b8f-8118-8bd1b2001ae6"
          },
          {
            "reference": "urn:uuid:2d5b6b74-4d87-4eb4-830f-c4808a36aca7"
          },
          {
            "reference": "urn:uuid:d005092c-792d-4492-ae9b-fdb5ba819266"
          },
          {
            "reference": "urn:uuid:8fdfe324-e657-435b-b7e0-9b753d3391b0"
          },
          {
            "reference": "urn:uuid:1d20ffb7-57b7-4b86-81da-dc58eaa92ddb"
          },
          {
            "reference": "urn:uuid:720e85cf-e72c-4be4-b54d-8ba98a79bfc9"
          },
          {
            "reference": "urn:uuid:d4c54cee-9c94-496c-b7a9-b970659db518"
          },
          {
            "reference": "urn:uuid:71e1243f-62c6-4569-84e4-7a0caed510e7"
          },
          {
            "reference": "urn:uuid:eb443c6e-0a39-47bf-80cf-1a302fb7b217"
          },
          {
            "reference": "urn:uuid:5af4738d-7ac5-4582-b8a6-ea548cbde641"
          },
          {
            "reference": "urn:uuid:32eb5c73-647c-4319-bf16-b7f0296b61be"
          },
          {
            "reference": "urn:uuid:2a3854f0-3b68-4dcf-9972-a7f1e21ddbb4"
          },
          {
            "reference": "urn:uuid:377f4837-f779-4d71-988e-5326a5963d0b"
          },
          {
            "reference": "urn:uuid:6f9808f4-9034-4363-a089-72ffe7e97128"
          },
          {
            "reference": "urn:uuid:c0f98382-1923-48ff-9d30-3d89d266949e"
          }
        ],
        "status": "registered",
        "code": {
          "coding": [
            {
              "code": "11502-2",
              "system": "http://loinc.org",
              "display": "Laboratory report"
            }
          ]
        },
        "subject": {
          "reference": "urn:uuid:841b4f62-7101-40f4-8816-8158d49eae45",
          "display": "Pauline Grenier"
        }
      }
    },
    {
      "fullUrl": "urn:uuid:841b4f62-7101-40f4-8816-8158d49eae45",
      "resource": {
        "resourceType": "Patient",
        "id": "841b4f62-7101-40f4-8816-8158d49eae45",
        "meta": {
          "security": [
            {
              "system": "http://terminology.hl7.org/CodeSystem/v3-ActReason",
              "code": "HTEST"
            },
            {
              "system": "http://terminology.hl7.org/CodeSystem/v3-ActReason",
              "code": "TRAIN"
            }
          ],
          "tag": [
            {
              "system": "https://synderai.net/fhir/CodeSystem/tags",
              "code": "synthetic",
              "display": "SYNDERAI Synthetic data"
            }
          ],
          "profile": [
            "http://hl7.eu/fhir/base/StructureDefinition/patient-eu-core"
          ]
        },
        "identifier": [
          {
            "type": {
              "coding": [
                {
                  "code": "PT",
                  "system": "http://terminology.hl7.org/CodeSystem/v2-0203"
                }
              ]
            },
            "system": "http://ec.europa.eu/identifier/eci",
            "value": "6776-872657-1"
          },
          {
            "type": {
              "coding": [
                {
                  "code": "MR",
                  "system": "http://terminology.hl7.org/CodeSystem/v2-0203"
                }
              ]
            },
            "system": "http://local.setting.eu/identifier",
            "value": "a90ff566-3092-3af0-91f2-c0514ba66d35"
          }
        ],
        "name": [
          {
            "family": "Grenier"
          },
          {
            "given": [
              "Pauline"
            ]
          },
          {
            "text": "Pauline Grenier"
          }
        ],
        "address": [
          {
            "line": [
              "114, avenue Georges"
            ],
            "use": "home",
            "type": "physical",
            "postalCode": "71110",
            "city": "Caron",
            "country": "France"
          }
        ],
        "telecom": [
          {
            "system": "phone",
            "value": "+33 4 26 27 51 56"
          }
        ],
        "extension": [
          {
            "url": "http://hl7.org/fhir/StructureDefinition/patient-nationality",
            "valueCodeableConcept": {
              "coding": [
                {
                  "code": "FR",
                  "system": "http://hl7.org/fhir/ValueSet/country"
                }
              ]
            }
          }
        ],
        "text": {
          "status": "generated",
          "div": "<div xmlns=\"http://www.w3.org/1999/xhtml\"><table class=\"hl7__ips\"><tr><td>Pauline Grenier</td><td>female</td><td>03-May-1971</td></tr></table></div>"
        },
        "gender": "female",
        "birthDate": "1971-05-03"
      }
    },
    {
      "fullUrl": "urn:uuid:97fb011c-65cb-4dd5-9e86-04d2c0ee746d",
      "resource": {
        "resourceType": "ServiceRequest",
        "id": "97fb011c-65cb-4dd5-9e86-04d2c0ee746d",
        "meta": {
          "profile": [
            "http://hl7.eu/fhir/laboratory/StructureDefinition/ServiceRequest-eu-lab"
          ]
        },
        "identifier": [
          {
            "system": "http://example.org",
            "value": "71967e8f-55c2-4d62-a115-88eeba9907d5"
          }
        ],
        "specimen": [
          {
            "reference": "urn:uuid:e8afe684-d6ad-4d2f-a142-06c12dcf87b4"
          }
        ],
        "reasonCode": [
          {
            "coding": [
              {
                "code": "59621000",
                "system": "http://snomed.info/sct",
                "display": "Essential hypertension"
              }
            ]
          },
          {
            "coding": [
              {
                "code": "237602007",
                "system": "http://snomed.info/sct",
                "display": "Metabolic syndrome X"
              }
            ]
          },
          {
            "coding": [
              {
                "code": "15777000",
                "system": "http://snomed.info/sct",
                "display": "Prediabetes"
              }
            ]
          }
        ],
        "status": "active",
        "intent": "order",
        "code": {
          "coding": [
            {
              "code": "108252007",
              "system": "http://snomed.info/sct",
              "display": "Laboratory procedure"
            }
          ]
        },
        "subject": {
          "reference": "urn:uuid:841b4f62-7101-40f4-8816-8158d49eae45",
          "display": "Pauline Grenier"
        },
        "requester": {
          "reference": "urn:uuid:f8fa90d0-9963-48b2-97d5-cb599f9fa0f5"
        }
      }
    },
    {
      "fullUrl": "urn:uuid:f8fa90d0-9963-48b2-97d5-cb599f9fa0f5",
      "resource": {
        "resourceType": "PractitionerRole",
        "id": "f8fa90d0-9963-48b2-97d5-cb599f9fa0f5",
        "meta": {
          "profile": [
            "http://hl7.eu/fhir/base/StructureDefinition/practitionerRole-eu"
          ]
        },
        "text": {
          "status": "generated",
          "div": "<div xmlns=\"http://www.w3.org/1999/xhtml\">Provider Role Id: f8fa90d0-9963-48b2-97d5-cb599f9fa0f5</div>"
        },
        "organization": {
          "reference": "urn:uuid:e0f3485e-70a6-4ccd-9813-23e6572561f0"
        }
      }
    },
    {
      "fullUrl": "urn:uuid:e0f3485e-70a6-4ccd-9813-23e6572561f0",
      "resource": {
        "resourceType": "Organization",
        "id": "e0f3485e-70a6-4ccd-9813-23e6572561f0",
        "meta": {
          "profile": [
            "http://hl7.eu/fhir/base/StructureDefinition/organization-eu"
          ]
        },
        "identifier": [
          {
            "assigner": {
              "display": "HL7 Europe"
            },
            "system": "urn:oid:2.16.840.1.113883.2.51.999",
            "value": "f492cbba-bf1b-4e01-badd-9b7c076ddb8b"
          }
        ],
        "address": [
          {
            "city": "Le Creusot",
            "postalCode": "71200",
            "country": "France"
          }
        ],
        "text": {
          "status": "generated",
          "div": "<div xmlns=\"http://www.w3.org/1999/xhtml\">Provider Organization: Hôpital du Creusot - Site Foch</div>"
        },
        "name": "Hôpital du Creusot - Site Foch"
      }
    },
    {
      "fullUrl": "urn:uuid:e8afe684-d6ad-4d2f-a142-06c12dcf87b4",
      "resource": {
        "resourceType": "Specimen",
        "id": "e8afe684-d6ad-4d2f-a142-06c12dcf87b4",
        "meta": {
          "profile": [
            "http://hl7.eu/fhir/laboratory/StructureDefinition/Specimen-eu-lab"
          ]
        },
        "collection": {
          "collectedDateTime": "2024-03-11"
        },
        "text": {
          "status": "generated",
          "div": "<div xmlns=\"http://www.w3.org/1999/xhtml\"><table class=\"hl7__eu__lab__report\"><tr><th>Specimen</th><th>Collection Date</th></tr><tr><td>Whole blood specimen (specimen)</td><td><span class=\"nb\">11-Mar-2024</span></td></tr></table></div>"
        },
        "type": {
          "coding": [
            {
              "code": "258580003",
              "system": "http://snomed.info/sct",
              "display": "Whole blood specimen (specimen)"
            }
          ]
        }
      }
    },
    {
      "fullUrl": "urn:uuid:e8afe684-d6ad-4d2f-a142-06c12dcf87b4",
      "resource": {
        "resourceType": "Specimen",
        "id": "e8afe684-d6ad-4d2f-a142-06c12dcf87b4",
        "meta": {
          "profile": [
            "http://hl7.eu/fhir/laboratory/StructureDefinition/Specimen-eu-lab"
          ]
        },
        "collection": {
          "collectedDateTime": "2024-03-11"
        },
        "text": {
          "status": "generated",
          "div": "<div xmlns=\"http://www.w3.org/1999/xhtml\"><table class=\"hl7__eu__lab__report\"><tr><th>Specimen</th><th>Collection Date</th></tr><tr><td>Whole blood specimen (specimen)</td><td><span class=\"nb\">11-Mar-2024</span></td></tr></table></div>"
        },
        "type": {
          "coding": [
            {
              "code": "258580003",
              "system": "http://snomed.info/sct",
              "display": "Whole blood specimen (specimen)"
            }
          ]
        }
      }
    },
    {
      "fullUrl": "urn:uuid:3d57c265-4cf4-4b92-8568-44ce37cd02c5",
      "resource": {
        "resourceType": "Observation",
        "id": "3d57c265-4cf4-4b92-8568-44ce37cd02c5",
        "meta": {
          "profile": [
            "http://hl7.eu/fhir/laboratory/StructureDefinition/Observation-resultslab-eu-lab"
          ]
        },
        "performer": [
          {
            "display": "The Central European Lab"
          }
        ],
        "category": [
          {
            "coding": [
              {
                "system": "http://terminology.hl7.org/CodeSystem/observation-category",
                "code": "laboratory"
              }
            ]
          }
        ],
        "code": {
          "coding": [
            {
              "code": "4548-4",
              "system": "http://loinc.org",
              "display": "Hemoglobin A1c/Hemoglobin.total in Blood"
            }
          ],
          "text": "Hemoglobin A1c/Hemoglobin.total in Blood"
        },
        "valueQuantity": {
          "system": "http://unitsofmeasure.org",
          "value": 6.1,
          "unit": "%",
          "code": "%"
        },
        "referenceRange": [
          {
            "low": {
              "value": 4.8,
              "code": "%",
              "system": "http://unitsofmeasure.org"
            }
          },
          {
            "high": {
              "value": 5.7,
              "code": "%",
              "system": "http://unitsofmeasure.org"
            }
          }
        ],
        "interpretation": [
          {
            "coding": [
              {
                "code": "H",
                "system": "http://terminology.hl7.org/CodeSystem/v3-ObservationInterpretation",
                "display": "High"
              }
            ]
          }
        ],
        "text": {
          "status": "generated",
          "div": "<div xmlns=\"http://www.w3.org/1999/xhtml\"><table class=\"hl7__eu__lab__report\"><tr><th>Test</th><th>11-Mar-2024</th><th>Reference&#xA0;Range</th><th>Unit</th></tr><tr><td>Hemoglobin A1c/Hemoglobin.total in Blood</td><td>6.1</td><td>4.8 - 5.7</td><td>H</td><td>%</td></tr></table></div>"
        },
        "status": "final",
        "subject": {
          "reference": "urn:uuid:841b4f62-7101-40f4-8816-8158d49eae45",
          "display": "Pauline Grenier"
        },
        "effectiveDateTime": "2024-03-11T11:54:46Z",
        "specimen": {
          "reference": "urn:uuid:e8afe684-d6ad-4d2f-a142-06c12dcf87b4"
        }
      }
    },
    {
      "fullUrl": "urn:uuid:75d05052-01a0-4370-9404-acde4d522265",
      "resource": {
        "resourceType": "Observation",
        "id": "75d05052-01a0-4370-9404-acde4d522265",
        "meta": {
          "profile": [
            "http://hl7.eu/fhir/laboratory/StructureDefinition/Observation-resultslab-eu-lab"
          ]
        },
        "performer": [
          {
            "display": "The Central European Lab"
          }
        ],
        "category": [
          {
            "coding": [
              {
                "system": "http://terminology.hl7.org/CodeSystem/observation-category",
                "code": "laboratory"
              }
            ]
          }
        ],
        "code": {
          "coding": [
            {
              "code": "2339-0",
              "system": "http://loinc.org",
              "display": "Glucose [Mass/volume] in Blood"
            }
          ],
          "text": "Glucose [Mass/volume] in Blood"
        },
        "valueQuantity": {
          "system": "http://unitsofmeasure.org",
          "value": 78.6,
          "unit": "mg/dL",
          "code": "mg/dL"
        },
        "referenceRange": [
          {
            "low": {
              "value": 70,
              "code": "mg/dL",
              "system": "http://unitsofmeasure.org"
            }
          },
          {
            "high": {
              "value": 99,
              "code": "mg/dL",
              "system": "http://unitsofmeasure.org"
            }
          }
        ],
        "text": {
          "status": "generated",
          "div": "<div xmlns=\"http://www.w3.org/1999/xhtml\"><table class=\"hl7__eu__lab__report\"><tr><th>Test</th><th>11-Mar-2024</th><th>Reference&#xA0;Range</th><th>Unit</th></tr><tr><td>Glucose [Mass/volume] in Blood</td><td>78.6</td><td>70 - 99</td><td></td><td>mg/dL</td></tr></table></div>"
        },
        "status": "final",
        "subject": {
          "reference": "urn:uuid:841b4f62-7101-40f4-8816-8158d49eae45",
          "display": "Pauline Grenier"
        },
        "effectiveDateTime": "2024-03-11T11:54:46Z",
        "specimen": {
          "reference": "urn:uuid:e8afe684-d6ad-4d2f-a142-06c12dcf87b4"
        }
      }
    },
    {
      "fullUrl": "urn:uuid:61ecb38d-de6c-413e-8784-ec5de620a783",
      "resource": {
        "resourceType": "Observation",
        "id": "61ecb38d-de6c-413e-8784-ec5de620a783",
        "meta": {
          "profile": [
            "http://hl7.eu/fhir/laboratory/StructureDefinition/Observation-resultslab-eu-lab"
          ]
        },
        "performer": [
          {
            "display": "The Central European Lab"
          }
        ],
        "category": [
          {
            "coding": [
              {
                "system": "http://terminology.hl7.org/CodeSystem/observation-category",
                "code": "laboratory"
              }
            ]
          }
        ],
        "code": {
          "coding": [
            {
              "code": "6299-2",
              "system": "http://loinc.org",
              "display": "Urea nitrogen [Mass/volume] in Blood"
            }
          ],
          "text": "Urea nitrogen [Mass/volume] in Blood"
        },
        "valueQuantity": {
          "system": "http://unitsofmeasure.org",
          "value": 15.2,
          "unit": "mg/dL",
          "code": "mg/dL"
        },
        "referenceRange": [
          {
            "low": {
              "value": 7,
              "code": "mg/dL",
              "system": "http://unitsofmeasure.org"
            }
          },
          {
            "high": {
              "value": 20,
              "code": "mg/dL",
              "system": "http://unitsofmeasure.org"
            }
          }
        ],
        "text": {
          "status": "generated",
          "div": "<div xmlns=\"http://www.w3.org/1999/xhtml\"><table class=\"hl7__eu__lab__report\"><tr><th>Test</th><th>11-Mar-2024</th><th>Reference&#xA0;Range</th><th>Unit</th></tr><tr><td>Urea nitrogen [Mass/volume] in Blood</td><td>15.2</td><td>7 - 20</td><td></td><td>mg/dL</td></tr></table></div>"
        },
        "status": "final",
        "subject": {
          "reference": "urn:uuid:841b4f62-7101-40f4-8816-8158d49eae45",
          "display": "Pauline Grenier"
        },
        "effectiveDateTime": "2024-03-11T11:54:46Z",
        "specimen": {
          "reference": "urn:uuid:e8afe684-d6ad-4d2f-a142-06c12dcf87b4"
        }
      }
    },
    {
      "fullUrl": "urn:uuid:dddfcac5-5982-4236-a27a-86ad1768a46c",
      "resource": {
        "resourceType": "Observation",
        "id": "dddfcac5-5982-4236-a27a-86ad1768a46c",
        "meta": {
          "profile": [
            "http://hl7.eu/fhir/laboratory/StructureDefinition/Observation-resultslab-eu-lab"
          ]
        },
        "performer": [
          {
            "display": "The Central European Lab"
          }
        ],
        "category": [
          {
            "coding": [
              {
                "system": "http://terminology.hl7.org/CodeSystem/observation-category",
                "code": "laboratory"
              }
            ]
          }
        ],
        "code": {
          "coding": [
            {
              "code": "38483-4",
              "system": "http://loinc.org",
              "display": "Creatinine [Mass/volume] in Blood"
            }
          ],
          "text": "Creatinine [Mass/volume] in Blood"
        },
        "valueQuantity": {
          "system": "http://unitsofmeasure.org",
          "value": 1,
          "unit": "mg/dL",
          "code": "mg/dL"
        },
        "referenceRange": [
          {
            "low": {
              "value": 0.6,
              "code": "mg/dL",
              "system": "http://unitsofmeasure.org"
            }
          },
          {
            "high": {
              "value": 1.1,
              "code": "mg/dL",
              "system": "http://unitsofmeasure.org"
            }
          }
        ],
        "text": {
          "status": "generated",
          "div": "<div xmlns=\"http://www.w3.org/1999/xhtml\"><table class=\"hl7__eu__lab__report\"><tr><th>Test</th><th>11-Mar-2024</th><th>Reference&#xA0;Range</th><th>Unit</th></tr><tr><td>Creatinine [Mass/volume] in Blood</td><td>1.0</td><td>0.6 - 1.1</td><td></td><td>mg/dL</td></tr></table></div>"
        },
        "status": "final",
        "subject": {
          "reference": "urn:uuid:841b4f62-7101-40f4-8816-8158d49eae45",
          "display": "Pauline Grenier"
        },
        "effectiveDateTime": "2024-03-11T11:54:46Z",
        "specimen": {
          "reference": "urn:uuid:e8afe684-d6ad-4d2f-a142-06c12dcf87b4"
        }
      }
    },
    {
      "fullUrl": "urn:uuid:ab603cb8-2d79-41f6-9c65-0d06cb1022ef",
      "resource": {
        "resourceType": "Observation",
        "id": "ab603cb8-2d79-41f6-9c65-0d06cb1022ef",
        "meta": {
          "profile": [
            "http://hl7.eu/fhir/laboratory/StructureDefinition/Observation-resultslab-eu-lab"
          ]
        },
        "performer": [
          {
            "display": "The Central European Lab"
          }
        ],
        "category": [
          {
            "coding": [
              {
                "system": "http://terminology.hl7.org/CodeSystem/observation-category",
                "code": "laboratory"
              }
            ]
          }
        ],
        "code": {
          "coding": [
            {
              "code": "49765-1",
              "system": "http://loinc.org",
              "display": "Calcium [Mass/volume] in Blood"
            }
          ],
          "text": "Calcium [Mass/volume] in Blood"
        },
        "valueQuantity": {
          "system": "http://unitsofmeasure.org",
          "value": 9.3,
          "unit": "mg/dL",
          "code": "mg/dL"
        },
        "referenceRange": [
          {
            "low": {
              "value": 8.5,
              "code": "mg/dL",
              "system": "http://unitsofmeasure.org"
            }
          },
          {
            "high": {
              "value": 10.5,
              "code": "mg/dL",
              "system": "http://unitsofmeasure.org"
            }
          }
        ],
        "text": {
          "status": "generated",
          "div": "<div xmlns=\"http://www.w3.org/1999/xhtml\"><table class=\"hl7__eu__lab__report\"><tr><th>Test</th><th>11-Mar-2024</th><th>Reference&#xA0;Range</th><th>Unit</th></tr><tr><td>Calcium [Mass/volume] in Blood</td><td>9.3</td><td>8.5 - 10.5</td><td></td><td>mg/dL</td></tr></table></div>"
        },
        "status": "final",
        "subject": {
          "reference": "urn:uuid:841b4f62-7101-40f4-8816-8158d49eae45",
          "display": "Pauline Grenier"
        },
        "effectiveDateTime": "2024-03-11T11:54:46Z",
        "specimen": {
          "reference": "urn:uuid:e8afe684-d6ad-4d2f-a142-06c12dcf87b4"
        }
      }
    },
    {
      "fullUrl": "urn:uuid:f3015e1a-c537-4b8f-8118-8bd1b2001ae6",
      "resource": {
        "resourceType": "Observation",
        "id": "f3015e1a-c537-4b8f-8118-8bd1b2001ae6",
        "meta": {
          "profile": [
            "http://hl7.eu/fhir/laboratory/StructureDefinition/Observation-resultslab-eu-lab"
          ]
        },
        "performer": [
          {
            "display": "The Central European Lab"
          }
        ],
        "category": [
          {
            "coding": [
              {
                "system": "http://terminology.hl7.org/CodeSystem/observation-category",
                "code": "laboratory"
              }
            ]
          }
        ],
        "code": {
          "coding": [
            {
              "code": "2947-0",
              "system": "http://loinc.org",
              "display": "Sodium [Moles/volume] in Blood"
            }
          ],
          "text": "Sodium [Moles/volume] in Blood"
        },
        "valueQuantity": {
          "system": "http://unitsofmeasure.org",
          "value": 138.8,
          "unit": "mmol/L",
          "code": "mmol/L"
        },
        "referenceRange": [
          {
            "low": {
              "value": 135,
              "code": "mmol/L",
              "system": "http://unitsofmeasure.org"
            }
          },
          {
            "high": {
              "value": 145,
              "code": "mmol/L",
              "system": "http://unitsofmeasure.org"
            }
          }
        ],
        "text": {
          "status": "generated",
          "div": "<div xmlns=\"http://www.w3.org/1999/xhtml\"><table class=\"hl7__eu__lab__report\"><tr><th>Test</th><th>11-Mar-2024</th><th>Reference&#xA0;Range</th><th>Unit</th></tr><tr><td>Sodium [Moles/volume] in Blood</td><td>138.8</td><td>135 - 145</td><td></td><td>mmol/L</td></tr></table></div>"
        },
        "status": "final",
        "subject": {
          "reference": "urn:uuid:841b4f62-7101-40f4-8816-8158d49eae45",
          "display": "Pauline Grenier"
        },
        "effectiveDateTime": "2024-03-11T11:54:46Z",
        "specimen": {
          "reference": "urn:uuid:e8afe684-d6ad-4d2f-a142-06c12dcf87b4"
        }
      }
    },
    {
      "fullUrl": "urn:uuid:2d5b6b74-4d87-4eb4-830f-c4808a36aca7",
      "resource": {
        "resourceType": "Observation",
        "id": "2d5b6b74-4d87-4eb4-830f-c4808a36aca7",
        "meta": {
          "profile": [
            "http://hl7.eu/fhir/laboratory/StructureDefinition/Observation-resultslab-eu-lab"
          ]
        },
        "performer": [
          {
            "display": "The Central European Lab"
          }
        ],
        "category": [
          {
            "coding": [
              {
                "system": "http://terminology.hl7.org/CodeSystem/observation-category",
                "code": "laboratory"
              }
            ]
          }
        ],
        "code": {
          "coding": [
            {
              "code": "6298-4",
              "system": "http://loinc.org",
              "display": "Potassium [Moles/volume] in Blood"
            }
          ],
          "text": "Potassium [Moles/volume] in Blood"
        },
        "valueQuantity": {
          "system": "http://unitsofmeasure.org",
          "value": 4.2,
          "unit": "mmol/L",
          "code": "mmol/L"
        },
        "referenceRange": [
          {
            "low": {
              "value": 3.5,
              "code": "mmol/L",
              "system": "http://unitsofmeasure.org"
            }
          },
          {
            "high": {
              "value": 5.3,
              "code": "mmol/L",
              "system": "http://unitsofmeasure.org"
            }
          }
        ],
        "text": {
          "status": "generated",
          "div": "<div xmlns=\"http://www.w3.org/1999/xhtml\"><table class=\"hl7__eu__lab__report\"><tr><th>Test</th><th>11-Mar-2024</th><th>Reference&#xA0;Range</th><th>Unit</th></tr><tr><td>Potassium [Moles/volume] in Blood</td><td>4.2</td><td>3.5 - 5.3</td><td></td><td>mmol/L</td></tr></table></div>"
        },
        "status": "final",
        "subject": {
          "reference": "urn:uuid:841b4f62-7101-40f4-8816-8158d49eae45",
          "display": "Pauline Grenier"
        },
        "effectiveDateTime": "2024-03-11T11:54:46Z",
        "specimen": {
          "reference": "urn:uuid:e8afe684-d6ad-4d2f-a142-06c12dcf87b4"
        }
      }
    },
    {
      "fullUrl": "urn:uuid:d005092c-792d-4492-ae9b-fdb5ba819266",
      "resource": {
        "resourceType": "Observation",
        "id": "d005092c-792d-4492-ae9b-fdb5ba819266",
        "meta": {
          "profile": [
            "http://hl7.eu/fhir/laboratory/StructureDefinition/Observation-resultslab-eu-lab"
          ]
        },
        "performer": [
          {
            "display": "The Central European Lab"
          }
        ],
        "category": [
          {
            "coding": [
              {
                "system": "http://terminology.hl7.org/CodeSystem/observation-category",
                "code": "laboratory"
              }
            ]
          }
        ],
        "code": {
          "coding": [
            {
              "code": "2069-3",
              "system": "http://loinc.org",
              "display": "Chloride [Moles/volume] in Blood"
            }
          ],
          "text": "Chloride [Moles/volume] in Blood"
        },
        "valueQuantity": {
          "system": "http://unitsofmeasure.org",
          "value": 108.3,
          "unit": "mmol/L",
          "code": "mmol/L"
        },
        "referenceRange": [
          {
            "low": {
              "value": 98,
              "code": "mmol/L",
              "system": "http://unitsofmeasure.org"
            }
          },
          {
            "high": {
              "value": 114,
              "code": "mmol/L",
              "system": "http://unitsofmeasure.org"
            }
          }
        ],
        "text": {
          "status": "generated",
          "div": "<div xmlns=\"http://www.w3.org/1999/xhtml\"><table class=\"hl7__eu__lab__report\"><tr><th>Test</th><th>11-Mar-2024</th><th>Reference&#xA0;Range</th><th>Unit</th></tr><tr><td>Chloride [Moles/volume] in Blood</td><td>108.3</td><td>98 - 114</td><td></td><td>mmol/L</td></tr></table></div>"
        },
        "status": "final",
        "subject": {
          "reference": "urn:uuid:841b4f62-7101-40f4-8816-8158d49eae45",
          "display": "Pauline Grenier"
        },
        "effectiveDateTime": "2024-03-11T11:54:46Z",
        "specimen": {
          "reference": "urn:uuid:e8afe684-d6ad-4d2f-a142-06c12dcf87b4"
        }
      }
    },
    {
      "fullUrl": "urn:uuid:8fdfe324-e657-435b-b7e0-9b753d3391b0",
      "resource": {
        "resourceType": "Observation",
        "id": "8fdfe324-e657-435b-b7e0-9b753d3391b0",
        "meta": {
          "profile": [
            "http://hl7.eu/fhir/laboratory/StructureDefinition/Observation-resultslab-eu-lab"
          ]
        },
        "performer": [
          {
            "display": "The Central European Lab"
          }
        ],
        "category": [
          {
            "coding": [
              {
                "system": "http://terminology.hl7.org/CodeSystem/observation-category",
                "code": "laboratory"
              }
            ]
          }
        ],
        "code": {
          "coding": [
            {
              "code": "20565-8",
              "system": "http://loinc.org",
              "display": "Carbon dioxide, total [Moles/volume] in Blood"
            }
          ],
          "text": "Carbon dioxide, total [Moles/volume] in Blood"
        },
        "valueQuantity": {
          "system": "http://unitsofmeasure.org",
          "value": 26.8,
          "unit": "mmol/L",
          "code": "mmol/L"
        },
        "referenceRange": [
          {
            "low": {
              "value": 22,
              "code": "mmol/L",
              "system": "http://unitsofmeasure.org"
            }
          },
          {
            "high": {
              "value": 29,
              "code": "mmol/L",
              "system": "http://unitsofmeasure.org"
            }
          }
        ],
        "text": {
          "status": "generated",
          "div": "<div xmlns=\"http://www.w3.org/1999/xhtml\"><table class=\"hl7__eu__lab__report\"><tr><th>Test</th><th>11-Mar-2024</th><th>Reference&#xA0;Range</th><th>Unit</th></tr><tr><td>Carbon dioxide, total [Moles/volume] in Blood</td><td>26.8</td><td>22 - 29</td><td></td><td>mmol/L</td></tr></table></div>"
        },
        "status": "final",
        "subject": {
          "reference": "urn:uuid:841b4f62-7101-40f4-8816-8158d49eae45",
          "display": "Pauline Grenier"
        },
        "effectiveDateTime": "2024-03-11T11:54:46Z",
        "specimen": {
          "reference": "urn:uuid:e8afe684-d6ad-4d2f-a142-06c12dcf87b4"
        }
      }
    },
    {
      "fullUrl": "urn:uuid:1d20ffb7-57b7-4b86-81da-dc58eaa92ddb",
      "resource": {
        "resourceType": "Observation",
        "id": "1d20ffb7-57b7-4b86-81da-dc58eaa92ddb",
        "meta": {
          "profile": [
            "http://hl7.eu/fhir/laboratory/StructureDefinition/Observation-resultslab-eu-lab"
          ]
        },
        "performer": [
          {
            "display": "The Central European Lab"
          }
        ],
        "category": [
          {
            "coding": [
              {
                "system": "http://terminology.hl7.org/CodeSystem/observation-category",
                "code": "laboratory"
              }
            ]
          }
        ],
        "code": {
          "coding": [
            {
              "code": "6690-2",
              "system": "http://loinc.org",
              "display": "Leukocytes [#/volume] in Blood by Automated count"
            }
          ],
          "text": "Leukocytes [#/volume] in Blood by Automated count"
        },
        "valueQuantity": {
          "system": "http://unitsofmeasure.org",
          "value": 3.8,
          "unit": "10*3/uL",
          "code": "10*3/uL"
        },
        "referenceRange": [
          {
            "low": {
              "value": 3.4,
              "code": "10*3/uL",
              "system": "http://unitsofmeasure.org"
            }
          },
          {
            "high": {
              "value": 10.6,
              "code": "10*3/uL",
              "system": "http://unitsofmeasure.org"
            }
          }
        ],
        "text": {
          "status": "generated",
          "div": "<div xmlns=\"http://www.w3.org/1999/xhtml\"><table class=\"hl7__eu__lab__report\"><tr><th>Test</th><th>11-Mar-2024</th><th>Reference&#xA0;Range</th><th>Unit</th></tr><tr><td>Leukocytes [#/volume] in Blood by Automated count</td><td>3.8</td><td>3.4 - 10.6</td><td></td><td>10*3/uL</td></tr></table></div>"
        },
        "status": "final",
        "subject": {
          "reference": "urn:uuid:841b4f62-7101-40f4-8816-8158d49eae45",
          "display": "Pauline Grenier"
        },
        "effectiveDateTime": "2024-03-11T11:54:46Z",
        "specimen": {
          "reference": "urn:uuid:e8afe684-d6ad-4d2f-a142-06c12dcf87b4"
        }
      }
    },
    {
      "fullUrl": "urn:uuid:720e85cf-e72c-4be4-b54d-8ba98a79bfc9",
      "resource": {
        "resourceType": "Observation",
        "id": "720e85cf-e72c-4be4-b54d-8ba98a79bfc9",
        "meta": {
          "profile": [
            "http://hl7.eu/fhir/laboratory/StructureDefinition/Observation-resultslab-eu-lab"
          ]
        },
        "performer": [
          {
            "display": "The Central European Lab"
          }
        ],
        "category": [
          {
            "coding": [
              {
                "system": "http://terminology.hl7.org/CodeSystem/observation-category",
                "code": "laboratory"
              }
            ]
          }
        ],
        "code": {
          "coding": [
            {
              "code": "789-8",
              "system": "http://loinc.org",
              "display": "Erythrocytes [#/volume] in Blood by Automated count"
            }
          ],
          "text": "Erythrocytes [#/volume] in Blood by Automated count"
        },
        "valueQuantity": {
          "system": "http://unitsofmeasure.org",
          "value": 4.8,
          "unit": "10*6/uL",
          "code": "10*6/uL"
        },
        "referenceRange": [
          {
            "low": {
              "value": 4.2,
              "code": "10*6/uL",
              "system": "http://unitsofmeasure.org"
            }
          },
          {
            "high": {
              "value": 5.2,
              "code": "10*6/uL",
              "system": "http://unitsofmeasure.org"
            }
          }
        ],
        "text": {
          "status": "generated",
          "div": "<div xmlns=\"http://www.w3.org/1999/xhtml\"><table class=\"hl7__eu__lab__report\"><tr><th>Test</th><th>11-Mar-2024</th><th>Reference&#xA0;Range</th><th>Unit</th></tr><tr><td>Erythrocytes [#/volume] in Blood by Automated count</td><td>4.8</td><td>4.2 - 5.2</td><td></td><td>10*6/uL</td></tr></table></div>"
        },
        "status": "final",
        "subject": {
          "reference": "urn:uuid:841b4f62-7101-40f4-8816-8158d49eae45",
          "display": "Pauline Grenier"
        },
        "effectiveDateTime": "2024-03-11T11:54:46Z",
        "specimen": {
          "reference": "urn:uuid:e8afe684-d6ad-4d2f-a142-06c12dcf87b4"
        }
      }
    },
    {
      "fullUrl": "urn:uuid:d4c54cee-9c94-496c-b7a9-b970659db518",
      "resource": {
        "resourceType": "Observation",
        "id": "d4c54cee-9c94-496c-b7a9-b970659db518",
        "meta": {
          "profile": [
            "http://hl7.eu/fhir/laboratory/StructureDefinition/Observation-resultslab-eu-lab"
          ]
        },
        "performer": [
          {
            "display": "The Central European Lab"
          }
        ],
        "category": [
          {
            "coding": [
              {
                "system": "http://terminology.hl7.org/CodeSystem/observation-category",
                "code": "laboratory"
              }
            ]
          }
        ],
        "code": {
          "coding": [
            {
              "code": "718-7",
              "system": "http://loinc.org",
              "display": "Hemoglobin [Mass/volume] in Blood"
            }
          ],
          "text": "Hemoglobin [Mass/volume] in Blood"
        },
        "valueQuantity": {
          "system": "http://unitsofmeasure.org",
          "value": 16.1,
          "unit": "g/dL",
          "code": "g/dL"
        },
        "referenceRange": [
          {
            "low": {
              "value": 12,
              "code": "g/dL",
              "system": "http://unitsofmeasure.org"
            }
          },
          {
            "high": {
              "value": 16,
              "code": "g/dL",
              "system": "http://unitsofmeasure.org"
            }
          }
        ],
        "interpretation": [
          {
            "coding": [
              {
                "code": "H",
                "system": "http://terminology.hl7.org/CodeSystem/v3-ObservationInterpretation",
                "display": "High"
              }
            ]
          }
        ],
        "text": {
          "status": "generated",
          "div": "<div xmlns=\"http://www.w3.org/1999/xhtml\"><table class=\"hl7__eu__lab__report\"><tr><th>Test</th><th>11-Mar-2024</th><th>Reference&#xA0;Range</th><th>Unit</th></tr><tr><td>Hemoglobin [Mass/volume] in Blood</td><td>16.1</td><td>12 - 16</td><td>H</td><td>g/dL</td></tr></table></div>"
        },
        "status": "final",
        "subject": {
          "reference": "urn:uuid:841b4f62-7101-40f4-8816-8158d49eae45",
          "display": "Pauline Grenier"
        },
        "effectiveDateTime": "2024-03-11T11:54:46Z",
        "specimen": {
          "reference": "urn:uuid:e8afe684-d6ad-4d2f-a142-06c12dcf87b4"
        }
      }
    },
    {
      "fullUrl": "urn:uuid:71e1243f-62c6-4569-84e4-7a0caed510e7",
      "resource": {
        "resourceType": "Observation",
        "id": "71e1243f-62c6-4569-84e4-7a0caed510e7",
        "meta": {
          "profile": [
            "http://hl7.eu/fhir/laboratory/StructureDefinition/Observation-resultslab-eu-lab"
          ]
        },
        "performer": [
          {
            "display": "The Central European Lab"
          }
        ],
        "category": [
          {
            "coding": [
              {
                "system": "http://terminology.hl7.org/CodeSystem/observation-category",
                "code": "laboratory"
              }
            ]
          }
        ],
        "code": {
          "coding": [
            {
              "code": "4544-3",
              "system": "http://loinc.org",
              "display": "Hematocrit [Volume Fraction] of Blood by Automated count"
            }
          ],
          "text": "Hematocrit [Volume Fraction] of Blood by Automated count"
        },
        "valueQuantity": {
          "system": "http://unitsofmeasure.org",
          "value": 42,
          "unit": "%",
          "code": "%"
        },
        "referenceRange": [
          {
            "low": {
              "value": 37,
              "code": "%",
              "system": "http://unitsofmeasure.org"
            }
          },
          {
            "high": {
              "value": 46,
              "code": "%",
              "system": "http://unitsofmeasure.org"
            }
          }
        ],
        "text": {
          "status": "generated",
          "div": "<div xmlns=\"http://www.w3.org/1999/xhtml\"><table class=\"hl7__eu__lab__report\"><tr><th>Test</th><th>11-Mar-2024</th><th>Reference&#xA0;Range</th><th>Unit</th></tr><tr><td>Hematocrit [Volume Fraction] of Blood by Automated count</td><td>42.0</td><td>37 - 46</td><td></td><td>%</td></tr></table></div>"
        },
        "status": "final",
        "subject": {
          "reference": "urn:uuid:841b4f62-7101-40f4-8816-8158d49eae45",
          "display": "Pauline Grenier"
        },
        "effectiveDateTime": "2024-03-11T11:54:46Z",
        "specimen": {
          "reference": "urn:uuid:e8afe684-d6ad-4d2f-a142-06c12dcf87b4"
        }
      }
    },
    {
      "fullUrl": "urn:uuid:eb443c6e-0a39-47bf-80cf-1a302fb7b217",
      "resource": {
        "resourceType": "Observation",
        "id": "eb443c6e-0a39-47bf-80cf-1a302fb7b217",
        "meta": {
          "profile": [
            "http://hl7.eu/fhir/laboratory/StructureDefinition/Observation-resultslab-eu-lab"
          ]
        },
        "performer": [
          {
            "display": "The Central European Lab"
          }
        ],
        "category": [
          {
            "coding": [
              {
                "system": "http://terminology.hl7.org/CodeSystem/observation-category",
                "code": "laboratory"
              }
            ]
          }
        ],
        "code": {
          "coding": [
            {
              "code": "787-2",
              "system": "http://loinc.org",
              "display": "MCV [Entitic volume] by Automated count"
            }
          ],
          "text": "MCV [Entitic volume] by Automated count"
        },
        "valueQuantity": {
          "system": "http://unitsofmeasure.org",
          "value": 93.1,
          "unit": "fL",
          "code": "fL"
        },
        "referenceRange": [
          {
            "low": {
              "value": 80,
              "code": "fL",
              "system": "http://unitsofmeasure.org"
            }
          },
          {
            "high": {
              "value": 105,
              "code": "fL",
              "system": "http://unitsofmeasure.org"
            }
          }
        ],
        "text": {
          "status": "generated",
          "div": "<div xmlns=\"http://www.w3.org/1999/xhtml\"><table class=\"hl7__eu__lab__report\"><tr><th>Test</th><th>11-Mar-2024</th><th>Reference&#xA0;Range</th><th>Unit</th></tr><tr><td>MCV [Entitic volume] by Automated count</td><td>93.1</td><td>80 - 105</td><td></td><td>fL</td></tr></table></div>"
        },
        "status": "final",
        "subject": {
          "reference": "urn:uuid:841b4f62-7101-40f4-8816-8158d49eae45",
          "display": "Pauline Grenier"
        },
        "effectiveDateTime": "2024-03-11T11:54:46Z",
        "specimen": {
          "reference": "urn:uuid:e8afe684-d6ad-4d2f-a142-06c12dcf87b4"
        }
      }
    },
    {
      "fullUrl": "urn:uuid:5af4738d-7ac5-4582-b8a6-ea548cbde641",
      "resource": {
        "resourceType": "Observation",
        "id": "5af4738d-7ac5-4582-b8a6-ea548cbde641",
        "meta": {
          "profile": [
            "http://hl7.eu/fhir/laboratory/StructureDefinition/Observation-resultslab-eu-lab"
          ]
        },
        "performer": [
          {
            "display": "The Central European Lab"
          }
        ],
        "category": [
          {
            "coding": [
              {
                "system": "http://terminology.hl7.org/CodeSystem/observation-category",
                "code": "laboratory"
              }
            ]
          }
        ],
        "code": {
          "coding": [
            {
              "code": "785-6",
              "system": "http://loinc.org",
              "display": "MCH [Entitic mass] by Automated count"
            }
          ],
          "text": "MCH [Entitic mass] by Automated count"
        },
        "valueQuantity": {
          "system": "http://unitsofmeasure.org",
          "value": 28.2,
          "unit": "pg",
          "code": "pg"
        },
        "referenceRange": [
          {
            "low": {
              "value": 27,
              "code": "pg",
              "system": "http://unitsofmeasure.org"
            }
          },
          {
            "high": {
              "value": 34,
              "code": "pg",
              "system": "http://unitsofmeasure.org"
            }
          }
        ],
        "text": {
          "status": "generated",
          "div": "<div xmlns=\"http://www.w3.org/1999/xhtml\"><table class=\"hl7__eu__lab__report\"><tr><th>Test</th><th>11-Mar-2024</th><th>Reference&#xA0;Range</th><th>Unit</th></tr><tr><td>MCH [Entitic mass] by Automated count</td><td>28.2</td><td>27 - 34</td><td></td><td>pg</td></tr></table></div>"
        },
        "status": "final",
        "subject": {
          "reference": "urn:uuid:841b4f62-7101-40f4-8816-8158d49eae45",
          "display": "Pauline Grenier"
        },
        "effectiveDateTime": "2024-03-11T11:54:46Z",
        "specimen": {
          "reference": "urn:uuid:e8afe684-d6ad-4d2f-a142-06c12dcf87b4"
        }
      }
    },
    {
      "fullUrl": "urn:uuid:32eb5c73-647c-4319-bf16-b7f0296b61be",
      "resource": {
        "resourceType": "Observation",
        "id": "32eb5c73-647c-4319-bf16-b7f0296b61be",
        "meta": {
          "profile": [
            "http://hl7.eu/fhir/laboratory/StructureDefinition/Observation-resultslab-eu-lab"
          ]
        },
        "performer": [
          {
            "display": "The Central European Lab"
          }
        ],
        "category": [
          {
            "coding": [
              {
                "system": "http://terminology.hl7.org/CodeSystem/observation-category",
                "code": "laboratory"
              }
            ]
          }
        ],
        "code": {
          "coding": [
            {
              "code": "786-4",
              "system": "http://loinc.org",
              "display": "MCHC [Mass/volume] by Automated count"
            }
          ],
          "text": "MCHC [Mass/volume] by Automated count"
        },
        "valueQuantity": {
          "system": "http://unitsofmeasure.org",
          "value": 35.3,
          "unit": "g/dL",
          "code": "g/dL"
        },
        "referenceRange": [
          {
            "low": {
              "value": 31,
              "code": "g/dL",
              "system": "http://unitsofmeasure.org"
            }
          },
          {
            "high": {
              "value": 35,
              "code": "g/dL",
              "system": "http://unitsofmeasure.org"
            }
          }
        ],
        "interpretation": [
          {
            "coding": [
              {
                "code": "H",
                "system": "http://terminology.hl7.org/CodeSystem/v3-ObservationInterpretation",
                "display": "High"
              }
            ]
          }
        ],
        "text": {
          "status": "generated",
          "div": "<div xmlns=\"http://www.w3.org/1999/xhtml\"><table class=\"hl7__eu__lab__report\"><tr><th>Test</th><th>11-Mar-2024</th><th>Reference&#xA0;Range</th><th>Unit</th></tr><tr><td>MCHC [Mass/volume] by Automated count</td><td>35.3</td><td>31 - 35</td><td>H</td><td>g/dL</td></tr></table></div>"
        },
        "status": "final",
        "subject": {
          "reference": "urn:uuid:841b4f62-7101-40f4-8816-8158d49eae45",
          "display": "Pauline Grenier"
        },
        "effectiveDateTime": "2024-03-11T11:54:46Z",
        "specimen": {
          "reference": "urn:uuid:e8afe684-d6ad-4d2f-a142-06c12dcf87b4"
        }
      }
    },
    {
      "fullUrl": "urn:uuid:2a3854f0-3b68-4dcf-9972-a7f1e21ddbb4",
      "resource": {
        "resourceType": "Observation",
        "id": "2a3854f0-3b68-4dcf-9972-a7f1e21ddbb4",
        "meta": {
          "profile": [
            "http://hl7.eu/fhir/laboratory/StructureDefinition/Observation-resultslab-eu-lab"
          ]
        },
        "performer": [
          {
            "display": "The Central European Lab"
          }
        ],
        "category": [
          {
            "coding": [
              {
                "system": "http://terminology.hl7.org/CodeSystem/observation-category",
                "code": "laboratory"
              }
            ]
          }
        ],
        "code": {
          "coding": [
            {
              "code": "21000-5",
              "system": "http://loinc.org",
              "display": "Erythrocyte distribution width [Entitic volume] by Automated count"
            }
          ],
          "text": "Erythrocyte distribution width [Entitic volume] by Automated count"
        },
        "valueQuantity": {
          "system": "http://unitsofmeasure.org",
          "value": 41.5,
          "unit": "fL",
          "code": "fL"
        },
        "referenceRange": [
          {
            "low": {
              "value": 36,
              "code": "fL",
              "system": "http://unitsofmeasure.org"
            }
          },
          {
            "high": {
              "value": 46,
              "code": "fL",
              "system": "http://unitsofmeasure.org"
            }
          }
        ],
        "text": {
          "status": "generated",
          "div": "<div xmlns=\"http://www.w3.org/1999/xhtml\"><table class=\"hl7__eu__lab__report\"><tr><th>Test</th><th>11-Mar-2024</th><th>Reference&#xA0;Range</th><th>Unit</th></tr><tr><td>Erythrocyte distribution width [Entitic volume] by Automated count</td><td>41.5</td><td>36 - 46</td><td></td><td>fL</td></tr></table></div>"
        },
        "status": "final",
        "subject": {
          "reference": "urn:uuid:841b4f62-7101-40f4-8816-8158d49eae45",
          "display": "Pauline Grenier"
        },
        "effectiveDateTime": "2024-03-11T11:54:46Z",
        "specimen": {
          "reference": "urn:uuid:e8afe684-d6ad-4d2f-a142-06c12dcf87b4"
        }
      }
    },
    {
      "fullUrl": "urn:uuid:377f4837-f779-4d71-988e-5326a5963d0b",
      "resource": {
        "resourceType": "Observation",
        "id": "377f4837-f779-4d71-988e-5326a5963d0b",
        "meta": {
          "profile": [
            "http://hl7.eu/fhir/laboratory/StructureDefinition/Observation-resultslab-eu-lab"
          ]
        },
        "performer": [
          {
            "display": "The Central European Lab"
          }
        ],
        "category": [
          {
            "coding": [
              {
                "system": "http://terminology.hl7.org/CodeSystem/observation-category",
                "code": "laboratory"
              }
            ]
          }
        ],
        "code": {
          "coding": [
            {
              "code": "777-3",
              "system": "http://loinc.org",
              "display": "Platelets [#/volume] in Blood by Automated count"
            }
          ],
          "text": "Platelets [#/volume] in Blood by Automated count"
        },
        "valueQuantity": {
          "system": "http://unitsofmeasure.org",
          "value": 416.6,
          "unit": "10*3/uL",
          "code": "10*3/uL"
        },
        "referenceRange": [
          {
            "low": {
              "value": 150,
              "code": "10*3/uL",
              "system": "http://unitsofmeasure.org"
            }
          },
          {
            "high": {
              "value": 415,
              "code": "10*3/uL",
              "system": "http://unitsofmeasure.org"
            }
          }
        ],
        "interpretation": [
          {
            "coding": [
              {
                "code": "H",
                "system": "http://terminology.hl7.org/CodeSystem/v3-ObservationInterpretation",
                "display": "High"
              }
            ]
          }
        ],
        "text": {
          "status": "generated",
          "div": "<div xmlns=\"http://www.w3.org/1999/xhtml\"><table class=\"hl7__eu__lab__report\"><tr><th>Test</th><th>11-Mar-2024</th><th>Reference&#xA0;Range</th><th>Unit</th></tr><tr><td>Platelets [#/volume] in Blood by Automated count</td><td>416.6</td><td>150 - 415</td><td>H</td><td>10*3/uL</td></tr></table></div>"
        },
        "status": "final",
        "subject": {
          "reference": "urn:uuid:841b4f62-7101-40f4-8816-8158d49eae45",
          "display": "Pauline Grenier"
        },
        "effectiveDateTime": "2024-03-11T11:54:46Z",
        "specimen": {
          "reference": "urn:uuid:e8afe684-d6ad-4d2f-a142-06c12dcf87b4"
        }
      }
    },
    {
      "fullUrl": "urn:uuid:6f9808f4-9034-4363-a089-72ffe7e97128",
      "resource": {
        "resourceType": "Observation",
        "id": "6f9808f4-9034-4363-a089-72ffe7e97128",
        "meta": {
          "profile": [
            "http://hl7.eu/fhir/laboratory/StructureDefinition/Observation-resultslab-eu-lab"
          ]
        },
        "performer": [
          {
            "display": "The Central European Lab"
          }
        ],
        "category": [
          {
            "coding": [
              {
                "system": "http://terminology.hl7.org/CodeSystem/observation-category",
                "code": "laboratory"
              }
            ]
          }
        ],
        "code": {
          "coding": [
            {
              "code": "32207-3",
              "system": "http://loinc.org",
              "display": "Platelet distribution width [Entitic volume] in Blood by Automated count"
            }
          ],
          "text": "Platelet distribution width [Entitic volume] in Blood by Automated count"
        },
        "valueQuantity": {
          "system": "http://unitsofmeasure.org",
          "value": 422.2,
          "unit": "fL",
          "code": "fL"
        },
        "referenceRange": [
          {
            "low": {
              "value": 11.6,
              "code": "fL",
              "system": "http://unitsofmeasure.org"
            }
          },
          {
            "high": {
              "value": 17.4,
              "code": "fL",
              "system": "http://unitsofmeasure.org"
            }
          }
        ],
        "interpretation": [
          {
            "coding": [
              {
                "code": "H",
                "system": "http://terminology.hl7.org/CodeSystem/v3-ObservationInterpretation",
                "display": "High"
              }
            ]
          }
        ],
        "text": {
          "status": "generated",
          "div": "<div xmlns=\"http://www.w3.org/1999/xhtml\"><table class=\"hl7__eu__lab__report\"><tr><th>Test</th><th>11-Mar-2024</th><th>Reference&#xA0;Range</th><th>Unit</th></tr><tr><td>Platelet distribution width [Entitic volume] in Blood by Automated count</td><td>422.2</td><td>11.6 - 17.4</td><td>H</td><td>fL</td></tr></table></div>"
        },
        "status": "final",
        "subject": {
          "reference": "urn:uuid:841b4f62-7101-40f4-8816-8158d49eae45",
          "display": "Pauline Grenier"
        },
        "effectiveDateTime": "2024-03-11T11:54:46Z",
        "specimen": {
          "reference": "urn:uuid:e8afe684-d6ad-4d2f-a142-06c12dcf87b4"
        }
      }
    },
    {
      "fullUrl": "urn:uuid:c0f98382-1923-48ff-9d30-3d89d266949e",
      "resource": {
        "resourceType": "Observation",
        "id": "c0f98382-1923-48ff-9d30-3d89d266949e",
        "meta": {
          "profile": [
            "http://hl7.eu/fhir/laboratory/StructureDefinition/Observation-resultslab-eu-lab"
          ]
        },
        "performer": [
          {
            "display": "The Central European Lab"
          }
        ],
        "category": [
          {
            "coding": [
              {
                "system": "http://terminology.hl7.org/CodeSystem/observation-category",
                "code": "laboratory"
              }
            ]
          }
        ],
        "code": {
          "coding": [
            {
              "code": "32623-1",
              "system": "http://loinc.org",
              "display": "Platelet mean volume [Entitic volume] in Blood by Automated count"
            }
          ],
          "text": "Platelet mean volume [Entitic volume] in Blood by Automated count"
        },
        "valueQuantity": {
          "system": "http://unitsofmeasure.org",
          "value": 10.2,
          "unit": "fL",
          "code": "fL"
        },
        "referenceRange": [
          {
            "low": {
              "value": 7.2,
              "code": "fL",
              "system": "http://unitsofmeasure.org"
            }
          },
          {
            "high": {
              "value": 13.8,
              "code": "fL",
              "system": "http://unitsofmeasure.org"
            }
          }
        ],
        "text": {
          "status": "generated",
          "div": "<div xmlns=\"http://www.w3.org/1999/xhtml\"><table class=\"hl7__eu__lab__report\"><tr><th>Test</th><th>11-Mar-2024</th><th>Reference&#xA0;Range</th><th>Unit</th></tr><tr><td>Platelet mean volume [Entitic volume] in Blood by Automated count</td><td>10.2</td><td>7.2 - 13.8</td><td></td><td>fL</td></tr></table></div>"
        },
        "status": "final",
        "subject": {
          "reference": "urn:uuid:841b4f62-7101-40f4-8816-8158d49eae45",
          "display": "Pauline Grenier"
        },
        "effectiveDateTime": "2024-03-11T11:54:46Z",
        "specimen": {
          "reference": "urn:uuid:e8afe684-d6ad-4d2f-a142-06c12dcf87b4"
        }
      }
    },
    {
      "fullUrl": "urn:uuid:5fd1d5b4-5ae5-4c1d-9952-4891a8553981",
      "resource": {
        "resourceType": "Device",
        "id": "5fd1d5b4-5ae5-4c1d-9952-4891a8553981",
        "deviceName": [
          {
            "name": "SYNDERAI Synthetic Generator",
            "type": "manufacturer-name"
          }
        ],
        "version": [
          {
            "value": "5.0"
          }
        ],
        "text": {
          "status": "generated",
          "div": "<div xmlns=\"http://www.w3.org/1999/xhtml\">SYNDERAI Synthetic Generator v5.0</div>"
        },
        "status": "active\"",
        "distinctIdentifier": "synderai-generator-50",
        "manufacturer": "SYNDERAI Project"
      }
    },
    {
      "fullUrl": "urn:uuid:aacb3e82-d6fe-4db4-88ff-5917d0743c1d",
      "resource": {
        "resourceType": "Provenance",
        "id": "aacb3e82-d6fe-4db4-88ff-5917d0743c1d",
        "target": [
          {
            "reference": "Patient/841b4f62-7101-40f4-8816-8158d49eae45"
          },
          {
            "reference": "Bundle/25c648ae-3b88-4bde-8a86-8dc6654bc9b0"
          },
          {
            "reference": "Composition/0684b95d-fd82-410c-a9d2-68ec18b36434"
          },
          {
            "reference": "PractitionerRole/a3ab02b6-9aa4-43c5-be26-38a502c0c8b3"
          },
          {
            "reference": "Practitioner/5a271f0d-3e89-47e0-87ba-f40d61c4d267"
          },
          {
            "reference": "PractitionerRole/f8fa90d0-9963-48b2-97d5-cb599f9fa0f5"
          },
          {
            "reference": "Organization/e0f3485e-70a6-4ccd-9813-23e6572561f0"
          }
        ],
        "activity": {
          "text": "Synthetic Example Data Generation"
        },
        "policy": [
          "https://synderai.net/synderai-synthetic-data-policy"
        ],
        "agent": [
          {
            "type": {
              "text": "author"
            },
            "who": {
              "reference": "Device/5fd1d5b4-5ae5-4c1d-9952-4891a8553981"
            }
          }
        ],
        "reason": [
          {
            "text": "Interoperability Testing and Training (non-clinical use)"
          }
        ],
        "text": {
          "status": "generated",
          "div": "<div xmlns=\"http://www.w3.org/1999/xhtml\">Provenance for SYNDERAI Synthetic Example Data Resource</div>"
        },
        "recorded": "2024-03-11T12:54:46Z"
      }
    },
    {
      "fullUrl": "urn:uuid:a3ab02b6-9aa4-43c5-be26-38a502c0c8b3",
      "resource": {
        "resourceType": "PractitionerRole",
        "id": "a3ab02b6-9aa4-43c5-be26-38a502c0c8b3",
        "meta": {
          "profile": [
            "http://hl7.eu/fhir/base/StructureDefinition/practitionerRole-eu"
          ]
        },
        "text": {
          "status": "generated",
          "div": "<div xmlns=\"http://www.w3.org/1999/xhtml\">Laboratory Role Id: a3ab02b6-9aa4-43c5-be26-38a502c0c8b3</div>"
        },
        "practitioner": {
          "reference": "urn:uuid:5a271f0d-3e89-47e0-87ba-f40d61c4d267"
        }
      }
    },
    {
      "fullUrl": "urn:uuid:5a271f0d-3e89-47e0-87ba-f40d61c4d267",
      "resource": {
        "resourceType": "Practitioner",
        "id": "5a271f0d-3e89-47e0-87ba-f40d61c4d267",
        "meta": {
          "profile": [
            "http://hl7.eu/fhir/base/StructureDefinition/practitioner-eu"
          ]
        },
        "identifier": [
          {
            "assigner": {
              "display": "HL7 Europe"
            },
            "system": "urn:oid:2.16.840.1.113883.2.51.999",
            "value": "ad4a8e29-c9c4-42b0-8991-d6b5cfbfe2f5"
          }
        ],
        "name": [
          {
            "prefix": [
              "dr"
            ],
            "given": [
              "Ex"
            ],
            "family": "Ample"
          }
        ],
        "address": [
          {
            "line": [
              "Laboratoire Central Européenne",
              "Boulevard du Jardin Botanique 32"
            ],
            "postalCode": "1000",
            "city": "Brussels",
            "country": "Belgium"
          }
        ],
        "text": {
          "status": "generated",
          "div": "<div xmlns=\"http://www.w3.org/1999/xhtml\">Laboratory: Laboratoire Central Européenne, 1000 Brussels, Belgium</div>"
        }
      }
    }
  ],
  "type": "document",
  "timestamp": "2024-03-11T12:54:46Z"
}
