{
  "resourceType": "Bundle",
  "id": "121b9698-bc51-48ab-a033-807930f5a7a9",
  "meta": {
    "profile": [
      "http://hl7.eu/fhir/laboratory/StructureDefinition/Bundle-eu-lab"
    ]
  },
  "identifier": {
    "assigner": {
      "display": "HL7 Europe"
    },
    "system": "urn:oid:2.16.840.1.113883.2.51.999",
    "value": "458cb0f0-5f16-44c4-934f-1c054d541bdc"
  },
  "entry": [
    {
      "fullUrl": "urn:uuid:0a470bab-3410-4121-872d-a4d88d2a595b",
      "resource": {
        "resourceType": "Composition",
        "id": "0a470bab-3410-4121-872d-a4d88d2a595b",
        "meta": {
          "profile": [
            "http://hl7.eu/fhir/laboratory/StructureDefinition/Composition-eu-lab"
          ]
        },
        "identifier": {
          "assigner": {
            "display": "HL7 Europe"
          },
          "system": "urn:oid:2.16.840.1.113883.2.51.999",
          "value": "9038752d-027c-4e5a-8e9b-bec81410ba96"
        },
        "author": [
          {
            "reference": "urn:uuid:9f3e18fb-293d-43d3-8f14-6faa2e84d33f"
          }
        ],
        "category": [
          {
            "coding": [
              {
                "code": "26436-6",
                "system": "http://loinc.org",
                "display": "Laboratory studies (set)"
              }
            ]
          }
        ],
        "type": {
          "coding": [
            {
              "code": "11502-2",
              "system": "http://loinc.org",
              "display": "Laboratory report"
            }
          ],
          "text": "Laboratory Report"
        },
        "section": [
          {
            "code": {
              "coding": [
                {
                  "code": "26436-6",
                  "system": "http://loinc.org",
                  "display": "Laboratory studies (set)"
                }
              ],
              "text": "Laboratory studies"
            },
            "section": [
              {
                "code": {
                  "coding": [
                    {
                      "code": "$18719-5",
                      "system": "http://loinc.org",
                      "display": "Chemistry studies (set)"
                    }
                  ],
                  "text": "Chemistry"
                },
                "entry": [
                  {
                    "reference": "urn:uuid:8cbbc587-0a46-43b5-aa2c-e9276d713616"
                  },
                  {
                    "reference": "urn:uuid:309e0858-f880-4617-a6b0-6c27074aae87"
                  },
                  {
                    "reference": "urn:uuid:6f653562-9af1-4111-9d97-27399308cd9a"
                  },
                  {
                    "reference": "urn:uuid:79612162-6709-4b09-ac67-643c557bb462"
                  },
                  {
                    "reference": "urn:uuid:1e2bdb1c-4121-41d8-823b-1eafd720bcc6"
                  },
                  {
                    "reference": "urn:uuid:fdd50a68-7674-4eec-b119-dc23242e1e75"
                  },
                  {
                    "reference": "urn:uuid:b810500f-8ee8-4f0b-aff3-820ca16936c6"
                  },
                  {
                    "reference": "urn:uuid:d6930433-a43c-40b6-84e8-d31f2398fa71"
                  },
                  {
                    "reference": "urn:uuid:8686eefc-910f-4f31-916e-e95ff9cbe7f6"
                  },
                  {
                    "reference": "urn:uuid:59f38546-75eb-4826-a3cb-66e333425807"
                  },
                  {
                    "reference": "urn:uuid:80c41ed8-fc57-496d-b419-6a4215e10bf9"
                  },
                  {
                    "reference": "urn:uuid:a1d94550-5cbd-4b58-af72-2afcad10e4a6"
                  },
                  {
                    "reference": "urn:uuid:286419ce-0d1f-4f8e-aab5-321a9996e1bc"
                  },
                  {
                    "reference": "urn:uuid:684f9da8-b031-4095-8e22-d0294801ebae"
                  },
                  {
                    "reference": "urn:uuid:1af5f4aa-2dd5-4267-a0af-4df279b8eb36"
                  },
                  {
                    "reference": "urn:uuid:9484ca9a-1f43-4886-9c75-5b1d4df72a45"
                  },
                  {
                    "reference": "urn:uuid:2d8b97ad-5a0c-4ef1-82dc-fc73cf6007c4"
                  },
                  {
                    "reference": "urn:uuid:a9bae839-f95d-4689-ac47-5bb1d914959e"
                  }
                ],
                "text": {
                  "status": "generated",
                  "div": "<div xmlns=\"http://www.w3.org/1999/xhtml\"><h3>Chemistry</h3><table class=\"hl7__eu__lab__report\"><thead><tr><th>Test</th><th>25-SEP-2018</th><th>Reference&#xA0;Range</th><th>Unit</th></tr></thead><tbody><tr><td>Glucose [Mass/volume] in Serum or Plasma</td><td><strong>68.9 L</strong></td><td>70 - 99</td><td>mg/dL</td></tr><tr><td>Urea nitrogen [Mass/volume] in Serum or Plasma</td><td>16.6</td><td>7 - 50</td><td>mg/dL</td></tr><tr><td>Creatinine [Mass/volume] in Serum or Plasma</td><td><strong>1.9 H</strong></td><td>0.6 - 1.1</td><td>mg/dL</td></tr><tr><td>Calcium [Mass/volume] in Serum or Plasma</td><td>9.6</td><td>8.6 - 10.4</td><td>mg/dL</td></tr><tr><td>Sodium [Moles/volume] in Serum or Plasma</td><td>139.2</td><td>135 - 145</td><td>mmol/L</td></tr><tr><td>Potassium [Moles/volume] in Serum or Plasma</td><td>4.3</td><td>3.5 - 5.1</td><td>mmol/L</td></tr><tr><td>Chloride [Moles/volume] in Serum or Plasma</td><td>106.2</td><td>98 - 108</td><td>mmol/L</td></tr><tr><td>Carbon dioxide, total [Moles/volume] in Serum or Plasma</td><td>27.8</td><td>22 - 32</td><td>mmol/L</td></tr><tr><td>Ketones [Presence] in Urine by Test strip</td><td>Urine ketone test = +</td><td></td><td></td></tr><tr><td>Hemoglobin A1c/Hemoglobin.total in Blood</td><td><strong>3.0 L</strong></td><td>4 - 6.4</td><td>%</td></tr><tr><td>Glucose [Mass/volume] in Blood</td><td><strong>68.9 L</strong></td><td>70 - 100</td><td>mg/dL</td></tr><tr><td>Urea nitrogen [Mass/volume] in Blood</td><td>16.6</td><td>7 - 43</td><td>mg/dL</td></tr><tr><td>Creatinine [Mass/volume] in Blood</td><td><strong>2.4 H</strong></td><td>0.6 - 1.1</td><td>mg/dL</td></tr><tr><td>Calcium [Mass/volume] in Blood</td><td>9.6</td><td>8.5 - 10.5</td><td>mg/dL</td></tr><tr><td>Sodium [Moles/volume] in Blood</td><td>139.2</td><td>135 - 145</td><td>mmol/L</td></tr><tr><td>Potassium [Moles/volume] in Blood</td><td>4.3</td><td>3.5 - 5.1</td><td>mmol/L</td></tr><tr><td>Chloride [Moles/volume] in Blood</td><td>106.2</td><td>98 - 108</td><td>mmol/L</td></tr><tr><td>Carbon dioxide, total [Moles/volume] in Blood</td><td>27.8</td><td>22 - 29</td><td>mmol/L</td></tr></tbody></table></div>"
                },
                "title": "Chemistry"
              },
              {
                "code": {
                  "coding": [
                    {
                      "code": "$18729-4",
                      "system": "http://loinc.org",
                      "display": "Urinalysis studies (set)"
                    }
                  ],
                  "text": "Urinalysis"
                },
                "entry": [
                  {
                    "reference": "urn:uuid:b4d25b00-6448-4026-a8d7-de7e1e3f8778"
                  },
                  {
                    "reference": "urn:uuid:f6f4eedf-b5f5-455a-b582-d4d9749ecdb6"
                  },
                  {
                    "reference": "urn:uuid:b56b7ac1-d2be-4375-bfa0-b27811f89d62"
                  },
                  {
                    "reference": "urn:uuid:8bc55a70-948b-48b7-97a2-1e1786cfa180"
                  },
                  {
                    "reference": "urn:uuid:86a1f12e-c2d5-46d9-97df-f62a15c835fe"
                  },
                  {
                    "reference": "urn:uuid:1e6541c4-c5de-49be-99f9-439bed1aeae8"
                  },
                  {
                    "reference": "urn:uuid:6fa6ae36-132c-4061-8fe6-c59d6df868c5"
                  },
                  {
                    "reference": "urn:uuid:7b7a4f77-6d93-49f4-affb-b0a0375ea157"
                  },
                  {
                    "reference": "urn:uuid:8fa775eb-308a-4f27-8648-ea60bbc91960"
                  },
                  {
                    "reference": "urn:uuid:bbe59b7a-5256-408e-8418-19b03635f1ee"
                  },
                  {
                    "reference": "urn:uuid:9ec97e2f-9080-4116-922a-bc15168ad257"
                  },
                  {
                    "reference": "urn:uuid:0d2ae344-50cd-40e2-9feb-65deba75ab2d"
                  }
                ],
                "text": {
                  "status": "generated",
                  "div": "<div xmlns=\"http://www.w3.org/1999/xhtml\"><h3>Urinalysis</h3><table class=\"hl7__eu__lab__report\"><thead><tr><th>Test</th><th>25-SEP-2018</th><th>Reference&#xA0;Range</th><th>Unit</th></tr></thead><tbody><tr><td>Glucose [Mass/volume] in Urine by Test strip</td><td><strong>1.6 H</strong></td><td>0.8 - 0</td><td>mg/dL</td></tr><tr><td>Glucose [Presence] in Urine by Test strip</td><td>++</td><td></td><td></td></tr><tr><td>Bilirubin.total [Mass/volume] in Urine by Test strip</td><td><strong>1.2 H</strong></td><td>0 - 1</td><td>mg/dL</td></tr><tr><td>Bilirubin.total [Presence] in Urine by Test strip</td><td>Finding of bilirubin in urine</td><td></td><td></td></tr><tr><td>Ketones [Mass/volume] in Urine by Test strip</td><td><strong>15.5 H</strong></td><td>0 - 4</td><td>mg/dL</td></tr><tr><td>Specific gravity of Urine by Test strip</td><td><strong>1.0 L</strong></td><td>1.005 - 1.03</td><td>{nominal}</td></tr><tr><td>pH of Urine by Test strip</td><td>5.6</td><td>4.6 - 7</td><td>pH</td></tr><tr><td>Protein [Mass/volume] in Urine by Test strip</td><td><strong>175.4 H</strong></td><td>0 - 14</td><td>mg/dL</td></tr><tr><td>Protein [Presence] in Urine by Test strip</td><td>Urine protein test = ++</td><td></td><td></td></tr><tr><td>Nitrite [Presence] in Urine by Test strip</td><td>Urine nitrite negative</td><td></td><td></td></tr><tr><td>Hemoglobin [Presence] in Urine by Test strip</td><td>Urine blood test = negative</td><td></td><td></td></tr><tr><td>Leukocyte esterase [Presence] in Urine by Test strip</td><td>Urine leukocyte test negative</td><td></td><td></td></tr></tbody></table></div>"
                },
                "title": "Urinalysis"
              },
              {
                "code": {
                  "coding": [
                    {
                      "code": "$LP7846-1",
                      "system": "http://loinc.org",
                      "display": "Specimen information"
                    }
                  ],
                  "text": "Specimen information"
                },
                "entry": [
                  {
                    "reference": "urn:uuid:c09d4289-eb00-482b-8aea-b546ea6480fc"
                  },
                  {
                    "reference": "urn:uuid:83f51826-932c-4451-838e-6db2a10abf1c"
                  },
                  {
                    "reference": "urn:uuid:255606a9-b7e5-4826-ab7a-7826138c510c"
                  },
                  {
                    "reference": "urn:uuid:ca767e69-10cc-4b76-a0c1-65dacdf89f55"
                  }
                ],
                "text": {
                  "status": "generated",
                  "div": "<div xmlns=\"http://www.w3.org/1999/xhtml\"><h3>Specimen information</h3><table class=\"hl7__eu__lab__report\"><thead><tr><th>Test</th><th>25-SEP-2018</th><th>Specimen</th><th></th></tr></thead><tbody><tr><td>Appearance of Urine</td><td>Cloudy urine</td><td>Urine</td><td></td></tr><tr><td>Odor of Urine</td><td>Urine smell ammoniacal</td><td>Urine</td><td></td></tr><tr><td>Clarity of Urine</td><td>Translucent</td><td>Urine</td><td></td></tr><tr><td>Color of Urine</td><td>Brown color</td><td>Urine</td><td></td></tr></tbody></table></div>"
                },
                "title": "Specimen information"
              }
            ],
            "title": "Laboratory Report"
          },
          {
            "text": {
              "status": "generated",
              "div": "<div xmlns=\"http://www.w3.org/1999/xhtml\"><h3>Annotation</h3><table class=\"hl7__eu__lab__report\"><tr><th>Conclusion and Recommendations based on this report and previous findings known to us</th></tr><tr><td>The patient shows elevated creatinine, significant proteinuria, and abnormal urine findings (cloudy, brown, low specific gravity, ketones, bilirubin), suggesting impaired renal function and possible nephrotic syndrome or acute kidney injury. Hypoglycemia and low HbA1c are noted. No evidence of urinary tract infection. Recommend urgent clinical evaluation for renal pathology and assessment of underlying causes for hypoglycemia.</td></tr></table></div>"
            },
            "code": {
              "coding": [
                {
                  "system": "http://loinc.org",
                  "code": "48767-8",
                  "display": "Annotation comment"
                }
              ]
            },
            "title": "Annotation comment"
          }
        ],
        "status": "final",
        "subject": {
          "reference": "urn:uuid:9ba9ac57-5d95-4094-82a6-c6cd3db7c1ae",
          "display": "Meaghan Neary"
        },
        "date": "2018-09-25T00:11:04Z",
        "title": "Laboratory Report",
        "confidentiality": "N"
      }
    },
    {
      "fullUrl": "urn:uuid:3c763b37-055e-49d2-a3b9-603fcb2996ba",
      "resource": {
        "resourceType": "DiagnosticReport",
        "id": "3c763b37-055e-49d2-a3b9-603fcb2996ba",
        "meta": {
          "profile": [
            "http://hl7.eu/fhir/laboratory/StructureDefinition/DiagnosticReport-eu-lab"
          ]
        },
        "identifier": [
          {
            "assigner": {
              "display": "HL7 Europe"
            },
            "system": "urn:oid:2.16.840.1.113883.2.51.999",
            "value": "d2a2d704-0f22-4453-bda5-f2efb55b9d1a"
          }
        ],
        "extension": [
          {
            "url": "http://hl7.org/fhir/5.0/StructureDefinition/extension-DiagnosticReport.composition",
            "valueReference": {
              "reference": "urn:uuid:9038752d-027c-4e5a-8e9b-bec81410ba96"
            }
          }
        ],
        "category": [
          {
            "coding": [
              {
                "code": "26436-6",
                "system": "http://loinc.org",
                "display": "Laboratory studies (set)"
              }
            ]
          }
        ],
        "specimen": [
          {
            "reference": "urn:uuid:a59fbea0-437b-4d68-aa2e-56bafd5f8f64"
          },
          {
            "reference": "urn:uuid:b5ffc9da-6b7a-452d-af7b-2e60048c6ca1"
          },
          {
            "reference": "urn:uuid:6daf7629-8ade-4b4e-9dc8-e581b04b865e"
          }
        ],
        "result": [
          {
            "reference": "urn:uuid:8cbbc587-0a46-43b5-aa2c-e9276d713616"
          },
          {
            "reference": "urn:uuid:309e0858-f880-4617-a6b0-6c27074aae87"
          },
          {
            "reference": "urn:uuid:6f653562-9af1-4111-9d97-27399308cd9a"
          },
          {
            "reference": "urn:uuid:79612162-6709-4b09-ac67-643c557bb462"
          },
          {
            "reference": "urn:uuid:1e2bdb1c-4121-41d8-823b-1eafd720bcc6"
          },
          {
            "reference": "urn:uuid:fdd50a68-7674-4eec-b119-dc23242e1e75"
          },
          {
            "reference": "urn:uuid:b810500f-8ee8-4f0b-aff3-820ca16936c6"
          },
          {
            "reference": "urn:uuid:d6930433-a43c-40b6-84e8-d31f2398fa71"
          },
          {
            "reference": "urn:uuid:c09d4289-eb00-482b-8aea-b546ea6480fc"
          },
          {
            "reference": "urn:uuid:83f51826-932c-4451-838e-6db2a10abf1c"
          },
          {
            "reference": "urn:uuid:255606a9-b7e5-4826-ab7a-7826138c510c"
          },
          {
            "reference": "urn:uuid:ca767e69-10cc-4b76-a0c1-65dacdf89f55"
          },
          {
            "reference": "urn:uuid:b4d25b00-6448-4026-a8d7-de7e1e3f8778"
          },
          {
            "reference": "urn:uuid:f6f4eedf-b5f5-455a-b582-d4d9749ecdb6"
          },
          {
            "reference": "urn:uuid:b56b7ac1-d2be-4375-bfa0-b27811f89d62"
          },
          {
            "reference": "urn:uuid:8bc55a70-948b-48b7-97a2-1e1786cfa180"
          },
          {
            "reference": "urn:uuid:86a1f12e-c2d5-46d9-97df-f62a15c835fe"
          },
          {
            "reference": "urn:uuid:8686eefc-910f-4f31-916e-e95ff9cbe7f6"
          },
          {
            "reference": "urn:uuid:1e6541c4-c5de-49be-99f9-439bed1aeae8"
          },
          {
            "reference": "urn:uuid:6fa6ae36-132c-4061-8fe6-c59d6df868c5"
          },
          {
            "reference": "urn:uuid:7b7a4f77-6d93-49f4-affb-b0a0375ea157"
          },
          {
            "reference": "urn:uuid:8fa775eb-308a-4f27-8648-ea60bbc91960"
          },
          {
            "reference": "urn:uuid:bbe59b7a-5256-408e-8418-19b03635f1ee"
          },
          {
            "reference": "urn:uuid:9ec97e2f-9080-4116-922a-bc15168ad257"
          },
          {
            "reference": "urn:uuid:0d2ae344-50cd-40e2-9feb-65deba75ab2d"
          },
          {
            "reference": "urn:uuid:59f38546-75eb-4826-a3cb-66e333425807"
          },
          {
            "reference": "urn:uuid:80c41ed8-fc57-496d-b419-6a4215e10bf9"
          },
          {
            "reference": "urn:uuid:a1d94550-5cbd-4b58-af72-2afcad10e4a6"
          },
          {
            "reference": "urn:uuid:286419ce-0d1f-4f8e-aab5-321a9996e1bc"
          },
          {
            "reference": "urn:uuid:684f9da8-b031-4095-8e22-d0294801ebae"
          },
          {
            "reference": "urn:uuid:1af5f4aa-2dd5-4267-a0af-4df279b8eb36"
          },
          {
            "reference": "urn:uuid:9484ca9a-1f43-4886-9c75-5b1d4df72a45"
          },
          {
            "reference": "urn:uuid:2d8b97ad-5a0c-4ef1-82dc-fc73cf6007c4"
          },
          {
            "reference": "urn:uuid:a9bae839-f95d-4689-ac47-5bb1d914959e"
          }
        ],
        "status": "registered",
        "code": {
          "coding": [
            {
              "code": "11502-2",
              "system": "http://loinc.org",
              "display": "Laboratory report"
            }
          ]
        },
        "subject": {
          "reference": "urn:uuid:9ba9ac57-5d95-4094-82a6-c6cd3db7c1ae",
          "display": "Meaghan Neary"
        }
      }
    },
    {
      "fullUrl": "urn:uuid:9ba9ac57-5d95-4094-82a6-c6cd3db7c1ae",
      "resource": {
        "resourceType": "Patient",
        "id": "9ba9ac57-5d95-4094-82a6-c6cd3db7c1ae",
        "meta": {
          "security": [
            {
              "system": "http://terminology.hl7.org/CodeSystem/v3-ActReason",
              "code": "HTEST"
            },
            {
              "system": "http://terminology.hl7.org/CodeSystem/v3-ActReason",
              "code": "TRAIN"
            }
          ],
          "tag": [
            {
              "system": "https://synderai.net/fhir/CodeSystem/tags",
              "code": "synthetic",
              "display": "SYNDERAI Synthetic data"
            }
          ],
          "profile": [
            "http://hl7.eu/fhir/base/StructureDefinition/patient-eu-core"
          ]
        },
        "identifier": [
          {
            "type": {
              "coding": [
                {
                  "code": "PT",
                  "system": "http://terminology.hl7.org/CodeSystem/v2-0203"
                }
              ]
            },
            "system": "http://ec.europa.eu/identifier/eci",
            "value": "1586-567257-8"
          },
          {
            "type": {
              "coding": [
                {
                  "code": "MR",
                  "system": "http://terminology.hl7.org/CodeSystem/v2-0203"
                }
              ]
            },
            "system": "http://local.setting.eu/identifier",
            "value": "443e6379-f231-b364-3ccb-644740a1aa2a"
          }
        ],
        "name": [
          {
            "family": "Neary"
          },
          {
            "given": [
              "Meaghan"
            ]
          },
          {
            "text": "Meaghan Neary"
          }
        ],
        "address": [
          {
            "line": [
              "64 Linskey Street"
            ],
            "use": "home",
            "type": "physical",
            "postalCode": "D02",
            "city": "Dublin",
            "country": "Ireland"
          }
        ],
        "telecom": [
          {
            "system": "phone",
            "value": "001-967-573-0911x465"
          }
        ],
        "extension": [
          {
            "url": "http://hl7.org/fhir/StructureDefinition/patient-nationality",
            "valueCodeableConcept": {
              "coding": [
                {
                  "code": "IE",
                  "system": "http://hl7.org/fhir/ValueSet/country"
                }
              ]
            }
          }
        ],
        "text": {
          "status": "generated",
          "div": "<div xmlns=\"http://www.w3.org/1999/xhtml\"><table class=\"hl7__ips\"><tr><td>Meaghan Neary</td><td>female</td><td>19-Dec-1960</td></tr></table></div>"
        },
        "gender": "female",
        "birthDate": "1960-12-19"
      }
    },
    {
      "fullUrl": "urn:uuid:ec150f6d-3f3b-4ba5-a1b7-ef3373342550",
      "resource": {
        "resourceType": "ServiceRequest",
        "id": "ec150f6d-3f3b-4ba5-a1b7-ef3373342550",
        "meta": {
          "profile": [
            "http://hl7.eu/fhir/laboratory/StructureDefinition/ServiceRequest-eu-lab"
          ]
        },
        "identifier": [
          {
            "system": "http://example.org",
            "value": "2b9338eb-3b25-40da-9baf-6fd47e49f86b"
          }
        ],
        "specimen": [
          {
            "reference": "urn:uuid:a59fbea0-437b-4d68-aa2e-56bafd5f8f64"
          },
          {
            "reference": "urn:uuid:b5ffc9da-6b7a-452d-af7b-2e60048c6ca1"
          },
          {
            "reference": "urn:uuid:6daf7629-8ade-4b4e-9dc8-e581b04b865e"
          }
        ],
        "reasonCode": [
          {
            "coding": [
              {
                "code": "55822004",
                "system": "http://snomed.info/sct",
                "display": "Hyperlipidemia"
              }
            ]
          },
          {
            "coding": [
              {
                "code": "433144002",
                "system": "http://snomed.info/sct",
                "display": "Chronic kidney disease stage 3"
              }
            ]
          },
          {
            "coding": [
              {
                "code": "157141000119108",
                "system": "http://snomed.info/sct",
                "display": "Proteinuria due to type 2 diabetes mellitus"
              }
            ]
          },
          {
            "coding": [
              {
                "code": "431856006",
                "system": "http://snomed.info/sct",
                "display": "Chronic kidney disease stage 2"
              }
            ]
          },
          {
            "coding": [
              {
                "code": "90781000119102",
                "system": "http://snomed.info/sct",
                "display": "Microalbuminuria due to type 2 diabetes mellitus"
              }
            ]
          },
          {
            "coding": [
              {
                "code": "127013003",
                "system": "http://snomed.info/sct",
                "display": "Disorder of kidney due to diabetes mellitus"
              }
            ]
          },
          {
            "coding": [
              {
                "code": "431855005",
                "system": "http://snomed.info/sct",
                "display": "Chronic kidney disease stage 1"
              }
            ]
          },
          {
            "coding": [
              {
                "code": "237602007",
                "system": "http://snomed.info/sct",
                "display": "Metabolic syndrome X"
              }
            ]
          },
          {
            "coding": [
              {
                "code": "271737000",
                "system": "http://snomed.info/sct",
                "display": "Anemia"
              }
            ]
          },
          {
            "coding": [
              {
                "code": "15777000",
                "system": "http://snomed.info/sct",
                "display": "Prediabetes"
              }
            ]
          },
          {
            "coding": [
              {
                "code": "59621000",
                "system": "http://snomed.info/sct",
                "display": "Essential hypertension"
              }
            ]
          }
        ],
        "status": "active",
        "intent": "order",
        "code": {
          "coding": [
            {
              "code": "108252007",
              "system": "http://snomed.info/sct",
              "display": "Laboratory procedure"
            }
          ]
        },
        "subject": {
          "reference": "urn:uuid:9ba9ac57-5d95-4094-82a6-c6cd3db7c1ae",
          "display": "Meaghan Neary"
        },
        "requester": {
          "reference": "urn:uuid:59f416b4-e294-46ba-9436-40d41245cf0c"
        }
      }
    },
    {
      "fullUrl": "urn:uuid:59f416b4-e294-46ba-9436-40d41245cf0c",
      "resource": {
        "resourceType": "PractitionerRole",
        "id": "59f416b4-e294-46ba-9436-40d41245cf0c",
        "meta": {
          "profile": [
            "http://hl7.eu/fhir/base/StructureDefinition/practitionerRole-eu"
          ]
        },
        "text": {
          "status": "generated",
          "div": "<div xmlns=\"http://www.w3.org/1999/xhtml\">Provider Role Id: 59f416b4-e294-46ba-9436-40d41245cf0c</div>"
        },
        "organization": {
          "reference": "urn:uuid:4842ad77-170d-4f81-a0b9-a5479a8b132c"
        }
      }
    },
    {
      "fullUrl": "urn:uuid:4842ad77-170d-4f81-a0b9-a5479a8b132c",
      "resource": {
        "resourceType": "Organization",
        "id": "4842ad77-170d-4f81-a0b9-a5479a8b132c",
        "meta": {
          "profile": [
            "http://hl7.eu/fhir/base/StructureDefinition/organization-eu"
          ]
        },
        "identifier": [
          {
            "assigner": {
              "display": "HL7 Europe"
            },
            "system": "urn:oid:2.16.840.1.113883.2.51.999",
            "value": "b1e0bb83-55c7-4f12-9149-733ef7e526b2"
          }
        ],
        "address": [
          {
            "line": [
              "Parnell Square West nan"
            ],
            "city": "Dublin",
            "postalCode": "D01",
            "country": "Ireland"
          }
        ],
        "text": {
          "status": "generated",
          "div": "<div xmlns=\"http://www.w3.org/1999/xhtml\">Provider Organization: Rotunda Hospital</div>"
        },
        "name": "Rotunda Hospital"
      }
    },
    {
      "fullUrl": "urn:uuid:a59fbea0-437b-4d68-aa2e-56bafd5f8f64",
      "resource": {
        "resourceType": "Specimen",
        "id": "a59fbea0-437b-4d68-aa2e-56bafd5f8f64",
        "meta": {
          "profile": [
            "http://hl7.eu/fhir/laboratory/StructureDefinition/Specimen-eu-lab"
          ]
        },
        "collection": {
          "collectedDateTime": "2018-09-24"
        },
        "text": {
          "status": "generated",
          "div": "<div xmlns=\"http://www.w3.org/1999/xhtml\"><table class=\"hl7__eu__lab__report\"><tr><th>Specimen</th><th>Collection Date</th></tr><tr><td>Acellular blood (serum or plasma) specimen</td><td><span class=\"nb\">24-Sep-2018</span></td></tr></table></div>"
        },
        "type": {
          "coding": [
            {
              "code": "122592007",
              "system": "http://snomed.info/sct",
              "display": "Acellular blood (serum or plasma) specimen"
            }
          ]
        }
      }
    },
    {
      "fullUrl": "urn:uuid:b5ffc9da-6b7a-452d-af7b-2e60048c6ca1",
      "resource": {
        "resourceType": "Specimen",
        "id": "b5ffc9da-6b7a-452d-af7b-2e60048c6ca1",
        "meta": {
          "profile": [
            "http://hl7.eu/fhir/laboratory/StructureDefinition/Specimen-eu-lab"
          ]
        },
        "collection": {
          "collectedDateTime": "2018-09-24"
        },
        "text": {
          "status": "generated",
          "div": "<div xmlns=\"http://www.w3.org/1999/xhtml\"><table class=\"hl7__eu__lab__report\"><tr><th>Specimen</th><th>Collection Date</th></tr><tr><td>Urine specimen</td><td><span class=\"nb\">24-Sep-2018</span></td></tr></table></div>"
        },
        "type": {
          "coding": [
            {
              "code": "122575003",
              "system": "http://snomed.info/sct",
              "display": "Urine specimen"
            }
          ]
        }
      }
    },
    {
      "fullUrl": "urn:uuid:6daf7629-8ade-4b4e-9dc8-e581b04b865e",
      "resource": {
        "resourceType": "Specimen",
        "id": "6daf7629-8ade-4b4e-9dc8-e581b04b865e",
        "meta": {
          "profile": [
            "http://hl7.eu/fhir/laboratory/StructureDefinition/Specimen-eu-lab"
          ]
        },
        "collection": {
          "collectedDateTime": "2018-09-24"
        },
        "text": {
          "status": "generated",
          "div": "<div xmlns=\"http://www.w3.org/1999/xhtml\"><table class=\"hl7__eu__lab__report\"><tr><th>Specimen</th><th>Collection Date</th></tr><tr><td>Whole blood specimen (specimen)</td><td><span class=\"nb\">24-Sep-2018</span></td></tr></table></div>"
        },
        "type": {
          "coding": [
            {
              "code": "258580003",
              "system": "http://snomed.info/sct",
              "display": "Whole blood specimen (specimen)"
            }
          ]
        }
      }
    },
    {
      "fullUrl": "urn:uuid:8cbbc587-0a46-43b5-aa2c-e9276d713616",
      "resource": {
        "resourceType": "Observation",
        "id": "8cbbc587-0a46-43b5-aa2c-e9276d713616",
        "meta": {
          "profile": [
            "http://hl7.eu/fhir/laboratory/StructureDefinition/Observation-resultslab-eu-lab"
          ]
        },
        "performer": [
          {
            "display": "The Central European Lab"
          }
        ],
        "category": [
          {
            "coding": [
              {
                "system": "http://terminology.hl7.org/CodeSystem/observation-category",
                "code": "laboratory"
              }
            ]
          }
        ],
        "code": {
          "coding": [
            {
              "code": "2345-7",
              "system": "http://loinc.org",
              "display": "Glucose [Mass/volume] in Serum or Plasma"
            }
          ],
          "text": "Glucose [Mass/volume] in Serum or Plasma"
        },
        "valueQuantity": {
          "system": "http://unitsofmeasure.org",
          "value": 68.9,
          "unit": "mg/dL",
          "code": "mg/dL"
        },
        "referenceRange": [
          {
            "low": {
              "value": 70,
              "code": "mg/dL",
              "system": "http://unitsofmeasure.org"
            }
          },
          {
            "high": {
              "value": 99,
              "code": "mg/dL",
              "system": "http://unitsofmeasure.org"
            }
          }
        ],
        "interpretation": [
          {
            "coding": [
              {
                "code": "L",
                "system": "http://terminology.hl7.org/CodeSystem/v3-ObservationInterpretation",
                "display": "Low"
              }
            ]
          }
        ],
        "text": {
          "status": "generated",
          "div": "<div xmlns=\"http://www.w3.org/1999/xhtml\"><table class=\"hl7__eu__lab__report\"><tr><th>Test</th><th>25-Sep-2018</th><th>Reference&#xA0;Range</th><th>Unit</th></tr><tr><td>Glucose [Mass/volume] in Serum or Plasma</td><td>68.9</td><td>70 - 99</td><td>L</td><td>mg/dL</td></tr></table></div>"
        },
        "status": "final",
        "subject": {
          "reference": "urn:uuid:9ba9ac57-5d95-4094-82a6-c6cd3db7c1ae",
          "display": "Meaghan Neary"
        },
        "effectiveDateTime": "2018-09-24T22:11:04Z",
        "specimen": {
          "reference": "urn:uuid:a59fbea0-437b-4d68-aa2e-56bafd5f8f64"
        }
      }
    },
    {
      "fullUrl": "urn:uuid:309e0858-f880-4617-a6b0-6c27074aae87",
      "resource": {
        "resourceType": "Observation",
        "id": "309e0858-f880-4617-a6b0-6c27074aae87",
        "meta": {
          "profile": [
            "http://hl7.eu/fhir/laboratory/StructureDefinition/Observation-resultslab-eu-lab"
          ]
        },
        "performer": [
          {
            "display": "The Central European Lab"
          }
        ],
        "category": [
          {
            "coding": [
              {
                "system": "http://terminology.hl7.org/CodeSystem/observation-category",
                "code": "laboratory"
              }
            ]
          }
        ],
        "code": {
          "coding": [
            {
              "code": "3094-0",
              "system": "http://loinc.org",
              "display": "Urea nitrogen [Mass/volume] in Serum or Plasma"
            }
          ],
          "text": "Urea nitrogen [Mass/volume] in Serum or Plasma"
        },
        "valueQuantity": {
          "system": "http://unitsofmeasure.org",
          "value": 16.6,
          "unit": "mg/dL",
          "code": "mg/dL"
        },
        "referenceRange": [
          {
            "low": {
              "value": 7,
              "code": "mg/dL",
              "system": "http://unitsofmeasure.org"
            }
          },
          {
            "high": {
              "value": 50,
              "code": "mg/dL",
              "system": "http://unitsofmeasure.org"
            }
          }
        ],
        "text": {
          "status": "generated",
          "div": "<div xmlns=\"http://www.w3.org/1999/xhtml\"><table class=\"hl7__eu__lab__report\"><tr><th>Test</th><th>25-Sep-2018</th><th>Reference&#xA0;Range</th><th>Unit</th></tr><tr><td>Urea nitrogen [Mass/volume] in Serum or Plasma</td><td>16.6</td><td>7 - 50</td><td></td><td>mg/dL</td></tr></table></div>"
        },
        "status": "final",
        "subject": {
          "reference": "urn:uuid:9ba9ac57-5d95-4094-82a6-c6cd3db7c1ae",
          "display": "Meaghan Neary"
        },
        "effectiveDateTime": "2018-09-24T22:11:04Z",
        "specimen": {
          "reference": "urn:uuid:a59fbea0-437b-4d68-aa2e-56bafd5f8f64"
        }
      }
    },
    {
      "fullUrl": "urn:uuid:6f653562-9af1-4111-9d97-27399308cd9a",
      "resource": {
        "resourceType": "Observation",
        "id": "6f653562-9af1-4111-9d97-27399308cd9a",
        "meta": {
          "profile": [
            "http://hl7.eu/fhir/laboratory/StructureDefinition/Observation-resultslab-eu-lab"
          ]
        },
        "performer": [
          {
            "display": "The Central European Lab"
          }
        ],
        "category": [
          {
            "coding": [
              {
                "system": "http://terminology.hl7.org/CodeSystem/observation-category",
                "code": "laboratory"
              }
            ]
          }
        ],
        "code": {
          "coding": [
            {
              "code": "2160-0",
              "system": "http://loinc.org",
              "display": "Creatinine [Mass/volume] in Serum or Plasma"
            }
          ],
          "text": "Creatinine [Mass/volume] in Serum or Plasma"
        },
        "valueQuantity": {
          "system": "http://unitsofmeasure.org",
          "value": 1.9,
          "unit": "mg/dL",
          "code": "mg/dL"
        },
        "referenceRange": [
          {
            "low": {
              "value": 0.6,
              "code": "mg/dL",
              "system": "http://unitsofmeasure.org"
            }
          },
          {
            "high": {
              "value": 1.1,
              "code": "mg/dL",
              "system": "http://unitsofmeasure.org"
            }
          }
        ],
        "interpretation": [
          {
            "coding": [
              {
                "code": "H",
                "system": "http://terminology.hl7.org/CodeSystem/v3-ObservationInterpretation",
                "display": "High"
              }
            ]
          }
        ],
        "text": {
          "status": "generated",
          "div": "<div xmlns=\"http://www.w3.org/1999/xhtml\"><table class=\"hl7__eu__lab__report\"><tr><th>Test</th><th>25-Sep-2018</th><th>Reference&#xA0;Range</th><th>Unit</th></tr><tr><td>Creatinine [Mass/volume] in Serum or Plasma</td><td>1.9</td><td>0.6 - 1.1</td><td>H</td><td>mg/dL</td></tr></table></div>"
        },
        "status": "final",
        "subject": {
          "reference": "urn:uuid:9ba9ac57-5d95-4094-82a6-c6cd3db7c1ae",
          "display": "Meaghan Neary"
        },
        "effectiveDateTime": "2018-09-24T22:11:04Z",
        "specimen": {
          "reference": "urn:uuid:a59fbea0-437b-4d68-aa2e-56bafd5f8f64"
        }
      }
    },
    {
      "fullUrl": "urn:uuid:79612162-6709-4b09-ac67-643c557bb462",
      "resource": {
        "resourceType": "Observation",
        "id": "79612162-6709-4b09-ac67-643c557bb462",
        "meta": {
          "profile": [
            "http://hl7.eu/fhir/laboratory/StructureDefinition/Observation-resultslab-eu-lab"
          ]
        },
        "performer": [
          {
            "display": "The Central European Lab"
          }
        ],
        "category": [
          {
            "coding": [
              {
                "system": "http://terminology.hl7.org/CodeSystem/observation-category",
                "code": "laboratory"
              }
            ]
          }
        ],
        "code": {
          "coding": [
            {
              "code": "17861-6",
              "system": "http://loinc.org",
              "display": "Calcium [Mass/volume] in Serum or Plasma"
            }
          ],
          "text": "Calcium [Mass/volume] in Serum or Plasma"
        },
        "valueQuantity": {
          "system": "http://unitsofmeasure.org",
          "value": 9.6,
          "unit": "mg/dL",
          "code": "mg/dL"
        },
        "referenceRange": [
          {
            "low": {
              "value": 8.6,
              "code": "mg/dL",
              "system": "http://unitsofmeasure.org"
            }
          },
          {
            "high": {
              "value": 10.4,
              "code": "mg/dL",
              "system": "http://unitsofmeasure.org"
            }
          }
        ],
        "text": {
          "status": "generated",
          "div": "<div xmlns=\"http://www.w3.org/1999/xhtml\"><table class=\"hl7__eu__lab__report\"><tr><th>Test</th><th>25-Sep-2018</th><th>Reference&#xA0;Range</th><th>Unit</th></tr><tr><td>Calcium [Mass/volume] in Serum or Plasma</td><td>9.6</td><td>8.6 - 10.4</td><td></td><td>mg/dL</td></tr></table></div>"
        },
        "status": "final",
        "subject": {
          "reference": "urn:uuid:9ba9ac57-5d95-4094-82a6-c6cd3db7c1ae",
          "display": "Meaghan Neary"
        },
        "effectiveDateTime": "2018-09-24T22:11:04Z",
        "specimen": {
          "reference": "urn:uuid:a59fbea0-437b-4d68-aa2e-56bafd5f8f64"
        }
      }
    },
    {
      "fullUrl": "urn:uuid:1e2bdb1c-4121-41d8-823b-1eafd720bcc6",
      "resource": {
        "resourceType": "Observation",
        "id": "1e2bdb1c-4121-41d8-823b-1eafd720bcc6",
        "meta": {
          "profile": [
            "http://hl7.eu/fhir/laboratory/StructureDefinition/Observation-resultslab-eu-lab"
          ]
        },
        "performer": [
          {
            "display": "The Central European Lab"
          }
        ],
        "category": [
          {
            "coding": [
              {
                "system": "http://terminology.hl7.org/CodeSystem/observation-category",
                "code": "laboratory"
              }
            ]
          }
        ],
        "code": {
          "coding": [
            {
              "code": "2951-2",
              "system": "http://loinc.org",
              "display": "Sodium [Moles/volume] in Serum or Plasma"
            }
          ],
          "text": "Sodium [Moles/volume] in Serum or Plasma"
        },
        "valueQuantity": {
          "system": "http://unitsofmeasure.org",
          "value": 139.2,
          "unit": "mmol/L",
          "code": "mmol/L"
        },
        "referenceRange": [
          {
            "low": {
              "value": 135,
              "code": "mmol/L",
              "system": "http://unitsofmeasure.org"
            }
          },
          {
            "high": {
              "value": 145,
              "code": "mmol/L",
              "system": "http://unitsofmeasure.org"
            }
          }
        ],
        "text": {
          "status": "generated",
          "div": "<div xmlns=\"http://www.w3.org/1999/xhtml\"><table class=\"hl7__eu__lab__report\"><tr><th>Test</th><th>25-Sep-2018</th><th>Reference&#xA0;Range</th><th>Unit</th></tr><tr><td>Sodium [Moles/volume] in Serum or Plasma</td><td>139.2</td><td>135 - 145</td><td></td><td>mmol/L</td></tr></table></div>"
        },
        "status": "final",
        "subject": {
          "reference": "urn:uuid:9ba9ac57-5d95-4094-82a6-c6cd3db7c1ae",
          "display": "Meaghan Neary"
        },
        "effectiveDateTime": "2018-09-24T22:11:04Z",
        "specimen": {
          "reference": "urn:uuid:a59fbea0-437b-4d68-aa2e-56bafd5f8f64"
        }
      }
    },
    {
      "fullUrl": "urn:uuid:fdd50a68-7674-4eec-b119-dc23242e1e75",
      "resource": {
        "resourceType": "Observation",
        "id": "fdd50a68-7674-4eec-b119-dc23242e1e75",
        "meta": {
          "profile": [
            "http://hl7.eu/fhir/laboratory/StructureDefinition/Observation-resultslab-eu-lab"
          ]
        },
        "performer": [
          {
            "display": "The Central European Lab"
          }
        ],
        "category": [
          {
            "coding": [
              {
                "system": "http://terminology.hl7.org/CodeSystem/observation-category",
                "code": "laboratory"
              }
            ]
          }
        ],
        "code": {
          "coding": [
            {
              "code": "2823-3",
              "system": "http://loinc.org",
              "display": "Potassium [Moles/volume] in Serum or Plasma"
            }
          ],
          "text": "Potassium [Moles/volume] in Serum or Plasma"
        },
        "valueQuantity": {
          "system": "http://unitsofmeasure.org",
          "value": 4.3,
          "unit": "mmol/L",
          "code": "mmol/L"
        },
        "referenceRange": [
          {
            "low": {
              "value": 3.5,
              "code": "mmol/L",
              "system": "http://unitsofmeasure.org"
            }
          },
          {
            "high": {
              "value": 5.1,
              "code": "mmol/L",
              "system": "http://unitsofmeasure.org"
            }
          }
        ],
        "text": {
          "status": "generated",
          "div": "<div xmlns=\"http://www.w3.org/1999/xhtml\"><table class=\"hl7__eu__lab__report\"><tr><th>Test</th><th>25-Sep-2018</th><th>Reference&#xA0;Range</th><th>Unit</th></tr><tr><td>Potassium [Moles/volume] in Serum or Plasma</td><td>4.3</td><td>3.5 - 5.1</td><td></td><td>mmol/L</td></tr></table></div>"
        },
        "status": "final",
        "subject": {
          "reference": "urn:uuid:9ba9ac57-5d95-4094-82a6-c6cd3db7c1ae",
          "display": "Meaghan Neary"
        },
        "effectiveDateTime": "2018-09-24T22:11:04Z",
        "specimen": {
          "reference": "urn:uuid:a59fbea0-437b-4d68-aa2e-56bafd5f8f64"
        }
      }
    },
    {
      "fullUrl": "urn:uuid:b810500f-8ee8-4f0b-aff3-820ca16936c6",
      "resource": {
        "resourceType": "Observation",
        "id": "b810500f-8ee8-4f0b-aff3-820ca16936c6",
        "meta": {
          "profile": [
            "http://hl7.eu/fhir/laboratory/StructureDefinition/Observation-resultslab-eu-lab"
          ]
        },
        "performer": [
          {
            "display": "The Central European Lab"
          }
        ],
        "category": [
          {
            "coding": [
              {
                "system": "http://terminology.hl7.org/CodeSystem/observation-category",
                "code": "laboratory"
              }
            ]
          }
        ],
        "code": {
          "coding": [
            {
              "code": "2075-0",
              "system": "http://loinc.org",
              "display": "Chloride [Moles/volume] in Serum or Plasma"
            }
          ],
          "text": "Chloride [Moles/volume] in Serum or Plasma"
        },
        "valueQuantity": {
          "system": "http://unitsofmeasure.org",
          "value": 106.2,
          "unit": "mmol/L",
          "code": "mmol/L"
        },
        "referenceRange": [
          {
            "low": {
              "value": 98,
              "code": "mmol/L",
              "system": "http://unitsofmeasure.org"
            }
          },
          {
            "high": {
              "value": 108,
              "code": "mmol/L",
              "system": "http://unitsofmeasure.org"
            }
          }
        ],
        "text": {
          "status": "generated",
          "div": "<div xmlns=\"http://www.w3.org/1999/xhtml\"><table class=\"hl7__eu__lab__report\"><tr><th>Test</th><th>25-Sep-2018</th><th>Reference&#xA0;Range</th><th>Unit</th></tr><tr><td>Chloride [Moles/volume] in Serum or Plasma</td><td>106.2</td><td>98 - 108</td><td></td><td>mmol/L</td></tr></table></div>"
        },
        "status": "final",
        "subject": {
          "reference": "urn:uuid:9ba9ac57-5d95-4094-82a6-c6cd3db7c1ae",
          "display": "Meaghan Neary"
        },
        "effectiveDateTime": "2018-09-24T22:11:04Z",
        "specimen": {
          "reference": "urn:uuid:a59fbea0-437b-4d68-aa2e-56bafd5f8f64"
        }
      }
    },
    {
      "fullUrl": "urn:uuid:d6930433-a43c-40b6-84e8-d31f2398fa71",
      "resource": {
        "resourceType": "Observation",
        "id": "d6930433-a43c-40b6-84e8-d31f2398fa71",
        "meta": {
          "profile": [
            "http://hl7.eu/fhir/laboratory/StructureDefinition/Observation-resultslab-eu-lab"
          ]
        },
        "performer": [
          {
            "display": "The Central European Lab"
          }
        ],
        "category": [
          {
            "coding": [
              {
                "system": "http://terminology.hl7.org/CodeSystem/observation-category",
                "code": "laboratory"
              }
            ]
          }
        ],
        "code": {
          "coding": [
            {
              "code": "2028-9",
              "system": "http://loinc.org",
              "display": "Carbon dioxide, total [Moles/volume] in Serum or Plasma"
            }
          ],
          "text": "Carbon dioxide, total [Moles/volume] in Serum or Plasma"
        },
        "valueQuantity": {
          "system": "http://unitsofmeasure.org",
          "value": 27.8,
          "unit": "mmol/L",
          "code": "mmol/L"
        },
        "referenceRange": [
          {
            "low": {
              "value": 22,
              "code": "mmol/L",
              "system": "http://unitsofmeasure.org"
            }
          },
          {
            "high": {
              "value": 32,
              "code": "mmol/L",
              "system": "http://unitsofmeasure.org"
            }
          }
        ],
        "text": {
          "status": "generated",
          "div": "<div xmlns=\"http://www.w3.org/1999/xhtml\"><table class=\"hl7__eu__lab__report\"><tr><th>Test</th><th>25-Sep-2018</th><th>Reference&#xA0;Range</th><th>Unit</th></tr><tr><td>Carbon dioxide, total [Moles/volume] in Serum or Plasma</td><td>27.8</td><td>22 - 32</td><td></td><td>mmol/L</td></tr></table></div>"
        },
        "status": "final",
        "subject": {
          "reference": "urn:uuid:9ba9ac57-5d95-4094-82a6-c6cd3db7c1ae",
          "display": "Meaghan Neary"
        },
        "effectiveDateTime": "2018-09-24T22:11:04Z",
        "specimen": {
          "reference": "urn:uuid:a59fbea0-437b-4d68-aa2e-56bafd5f8f64"
        }
      }
    },
    {
      "fullUrl": "urn:uuid:c09d4289-eb00-482b-8aea-b546ea6480fc",
      "resource": {
        "resourceType": "Observation",
        "id": "c09d4289-eb00-482b-8aea-b546ea6480fc",
        "meta": {
          "profile": [
            "http://hl7.eu/fhir/laboratory/StructureDefinition/Observation-resultslab-eu-lab"
          ]
        },
        "performer": [
          {
            "display": "The Central European Lab"
          }
        ],
        "category": [
          {
            "coding": [
              {
                "system": "http://terminology.hl7.org/CodeSystem/observation-category",
                "code": "laboratory"
              }
            ]
          }
        ],
        "code": {
          "coding": [
            {
              "code": "5767-9",
              "system": "http://loinc.org",
              "display": "Appearance of Urine"
            }
          ],
          "text": "Appearance of Urine"
        },
        "text": {
          "status": "generated",
          "div": "<div xmlns=\"http://www.w3.org/1999/xhtml\"><table class=\"hl7__eu__lab__report\"><tr><th>Test</th><th>25-Sep-2018</th><th>Reference&#xA0;Range</th><th>Unit</th></tr><tr><td>Appearance of Urine</td></tr></table></div>"
        },
        "status": "final",
        "subject": {
          "reference": "urn:uuid:9ba9ac57-5d95-4094-82a6-c6cd3db7c1ae",
          "display": "Meaghan Neary"
        },
        "effectiveDateTime": "2018-09-24T22:11:04Z",
        "specimen": {
          "reference": "urn:uuid:b5ffc9da-6b7a-452d-af7b-2e60048c6ca1"
        }
      }
    },
    {
      "fullUrl": "urn:uuid:83f51826-932c-4451-838e-6db2a10abf1c",
      "resource": {
        "resourceType": "Observation",
        "id": "83f51826-932c-4451-838e-6db2a10abf1c",
        "meta": {
          "profile": [
            "http://hl7.eu/fhir/laboratory/StructureDefinition/Observation-resultslab-eu-lab"
          ]
        },
        "performer": [
          {
            "display": "The Central European Lab"
          }
        ],
        "category": [
          {
            "coding": [
              {
                "system": "http://terminology.hl7.org/CodeSystem/observation-category",
                "code": "laboratory"
              }
            ]
          }
        ],
        "code": {
          "coding": [
            {
              "code": "34533-0",
              "system": "http://loinc.org",
              "display": "Odor of Urine"
            }
          ],
          "text": "Odor of Urine"
        },
        "text": {
          "status": "generated",
          "div": "<div xmlns=\"http://www.w3.org/1999/xhtml\"><table class=\"hl7__eu__lab__report\"><tr><th>Test</th><th>25-Sep-2018</th><th>Reference&#xA0;Range</th><th>Unit</th></tr><tr><td>Odor of Urine</td></tr></table></div>"
        },
        "status": "final",
        "subject": {
          "reference": "urn:uuid:9ba9ac57-5d95-4094-82a6-c6cd3db7c1ae",
          "display": "Meaghan Neary"
        },
        "effectiveDateTime": "2018-09-24T22:11:04Z",
        "specimen": {
          "reference": "urn:uuid:b5ffc9da-6b7a-452d-af7b-2e60048c6ca1"
        }
      }
    },
    {
      "fullUrl": "urn:uuid:255606a9-b7e5-4826-ab7a-7826138c510c",
      "resource": {
        "resourceType": "Observation",
        "id": "255606a9-b7e5-4826-ab7a-7826138c510c",
        "meta": {
          "profile": [
            "http://hl7.eu/fhir/laboratory/StructureDefinition/Observation-resultslab-eu-lab"
          ]
        },
        "performer": [
          {
            "display": "The Central European Lab"
          }
        ],
        "category": [
          {
            "coding": [
              {
                "system": "http://terminology.hl7.org/CodeSystem/observation-category",
                "code": "laboratory"
              }
            ]
          }
        ],
        "code": {
          "coding": [
            {
              "code": "32167-9",
              "system": "http://loinc.org",
              "display": "Clarity of Urine"
            }
          ],
          "text": "Clarity of Urine"
        },
        "text": {
          "status": "generated",
          "div": "<div xmlns=\"http://www.w3.org/1999/xhtml\"><table class=\"hl7__eu__lab__report\"><tr><th>Test</th><th>25-Sep-2018</th><th>Reference&#xA0;Range</th><th>Unit</th></tr><tr><td>Clarity of Urine</td></tr></table></div>"
        },
        "status": "final",
        "subject": {
          "reference": "urn:uuid:9ba9ac57-5d95-4094-82a6-c6cd3db7c1ae",
          "display": "Meaghan Neary"
        },
        "effectiveDateTime": "2018-09-24T22:11:04Z",
        "specimen": {
          "reference": "urn:uuid:b5ffc9da-6b7a-452d-af7b-2e60048c6ca1"
        }
      }
    },
    {
      "fullUrl": "urn:uuid:ca767e69-10cc-4b76-a0c1-65dacdf89f55",
      "resource": {
        "resourceType": "Observation",
        "id": "ca767e69-10cc-4b76-a0c1-65dacdf89f55",
        "meta": {
          "profile": [
            "http://hl7.eu/fhir/laboratory/StructureDefinition/Observation-resultslab-eu-lab"
          ]
        },
        "performer": [
          {
            "display": "The Central European Lab"
          }
        ],
        "category": [
          {
            "coding": [
              {
                "system": "http://terminology.hl7.org/CodeSystem/observation-category",
                "code": "laboratory"
              }
            ]
          }
        ],
        "code": {
          "coding": [
            {
              "code": "5778-6",
              "system": "http://loinc.org",
              "display": "Color of Urine"
            }
          ],
          "text": "Color of Urine"
        },
        "text": {
          "status": "generated",
          "div": "<div xmlns=\"http://www.w3.org/1999/xhtml\"><table class=\"hl7__eu__lab__report\"><tr><th>Test</th><th>25-Sep-2018</th><th>Reference&#xA0;Range</th><th>Unit</th></tr><tr><td>Color of Urine</td></tr></table></div>"
        },
        "status": "final",
        "subject": {
          "reference": "urn:uuid:9ba9ac57-5d95-4094-82a6-c6cd3db7c1ae",
          "display": "Meaghan Neary"
        },
        "effectiveDateTime": "2018-09-24T22:11:04Z",
        "specimen": {
          "reference": "urn:uuid:b5ffc9da-6b7a-452d-af7b-2e60048c6ca1"
        }
      }
    },
    {
      "fullUrl": "urn:uuid:b4d25b00-6448-4026-a8d7-de7e1e3f8778",
      "resource": {
        "resourceType": "Observation",
        "id": "b4d25b00-6448-4026-a8d7-de7e1e3f8778",
        "meta": {
          "profile": [
            "http://hl7.eu/fhir/laboratory/StructureDefinition/Observation-resultslab-eu-lab"
          ]
        },
        "performer": [
          {
            "display": "The Central European Lab"
          }
        ],
        "category": [
          {
            "coding": [
              {
                "system": "http://terminology.hl7.org/CodeSystem/observation-category",
                "code": "laboratory"
              }
            ]
          }
        ],
        "code": {
          "coding": [
            {
              "code": "5792-7",
              "system": "http://loinc.org",
              "display": "Glucose [Mass/volume] in Urine by Test strip"
            }
          ],
          "text": "Glucose [Mass/volume] in Urine by Test strip"
        },
        "valueQuantity": {
          "system": "http://unitsofmeasure.org",
          "value": 1.6,
          "unit": "mg/dL",
          "code": "mg/dL"
        },
        "referenceRange": [
          {
            "low": {
              "value": 0.8,
              "code": "mg/dL",
              "system": "http://unitsofmeasure.org"
            }
          },
          {
            "high": {
              "value": 0,
              "code": "mg/dL",
              "system": "http://unitsofmeasure.org"
            }
          }
        ],
        "interpretation": [
          {
            "coding": [
              {
                "code": "H",
                "system": "http://terminology.hl7.org/CodeSystem/v3-ObservationInterpretation",
                "display": "High"
              }
            ]
          }
        ],
        "text": {
          "status": "generated",
          "div": "<div xmlns=\"http://www.w3.org/1999/xhtml\"><table class=\"hl7__eu__lab__report\"><tr><th>Test</th><th>25-Sep-2018</th><th>Reference&#xA0;Range</th><th>Unit</th></tr><tr><td>Glucose [Mass/volume] in Urine by Test strip</td><td>1.6</td><td>0.8 - 0</td><td>H</td><td>mg/dL</td></tr></table></div>"
        },
        "status": "final",
        "subject": {
          "reference": "urn:uuid:9ba9ac57-5d95-4094-82a6-c6cd3db7c1ae",
          "display": "Meaghan Neary"
        },
        "effectiveDateTime": "2018-09-24T22:11:04Z",
        "specimen": {
          "reference": "urn:uuid:b5ffc9da-6b7a-452d-af7b-2e60048c6ca1"
        }
      }
    },
    {
      "fullUrl": "urn:uuid:f6f4eedf-b5f5-455a-b582-d4d9749ecdb6",
      "resource": {
        "resourceType": "Observation",
        "id": "f6f4eedf-b5f5-455a-b582-d4d9749ecdb6",
        "meta": {
          "profile": [
            "http://hl7.eu/fhir/laboratory/StructureDefinition/Observation-resultslab-eu-lab"
          ]
        },
        "performer": [
          {
            "display": "The Central European Lab"
          }
        ],
        "category": [
          {
            "coding": [
              {
                "system": "http://terminology.hl7.org/CodeSystem/observation-category",
                "code": "laboratory"
              }
            ]
          }
        ],
        "code": {
          "coding": [
            {
              "code": "25428-4",
              "system": "http://loinc.org",
              "display": "Glucose [Presence] in Urine by Test strip"
            }
          ],
          "text": "Glucose [Presence] in Urine by Test strip"
        },
        "text": {
          "status": "generated",
          "div": "<div xmlns=\"http://www.w3.org/1999/xhtml\"><table class=\"hl7__eu__lab__report\"><tr><th>Test</th><th>25-Sep-2018</th><th>Reference&#xA0;Range</th><th>Unit</th></tr><tr><td>Glucose [Presence] in Urine by Test strip</td></tr></table></div>"
        },
        "status": "final",
        "subject": {
          "reference": "urn:uuid:9ba9ac57-5d95-4094-82a6-c6cd3db7c1ae",
          "display": "Meaghan Neary"
        },
        "effectiveDateTime": "2018-09-24T22:11:04Z",
        "specimen": {
          "reference": "urn:uuid:b5ffc9da-6b7a-452d-af7b-2e60048c6ca1"
        }
      }
    },
    {
      "fullUrl": "urn:uuid:b56b7ac1-d2be-4375-bfa0-b27811f89d62",
      "resource": {
        "resourceType": "Observation",
        "id": "b56b7ac1-d2be-4375-bfa0-b27811f89d62",
        "meta": {
          "profile": [
            "http://hl7.eu/fhir/laboratory/StructureDefinition/Observation-resultslab-eu-lab"
          ]
        },
        "performer": [
          {
            "display": "The Central European Lab"
          }
        ],
        "category": [
          {
            "coding": [
              {
                "system": "http://terminology.hl7.org/CodeSystem/observation-category",
                "code": "laboratory"
              }
            ]
          }
        ],
        "code": {
          "coding": [
            {
              "code": "20505-4",
              "system": "http://loinc.org",
              "display": "Bilirubin.total [Mass/volume] in Urine by Test strip"
            }
          ],
          "text": "Bilirubin.total [Mass/volume] in Urine by Test strip"
        },
        "valueQuantity": {
          "system": "http://unitsofmeasure.org",
          "value": 1.2,
          "unit": "mg/dL",
          "code": "mg/dL"
        },
        "referenceRange": [
          {
            "low": {
              "value": 0,
              "code": "mg/dL",
              "system": "http://unitsofmeasure.org"
            }
          },
          {
            "high": {
              "value": 1,
              "code": "mg/dL",
              "system": "http://unitsofmeasure.org"
            }
          }
        ],
        "interpretation": [
          {
            "coding": [
              {
                "code": "H",
                "system": "http://terminology.hl7.org/CodeSystem/v3-ObservationInterpretation",
                "display": "High"
              }
            ]
          }
        ],
        "text": {
          "status": "generated",
          "div": "<div xmlns=\"http://www.w3.org/1999/xhtml\"><table class=\"hl7__eu__lab__report\"><tr><th>Test</th><th>25-Sep-2018</th><th>Reference&#xA0;Range</th><th>Unit</th></tr><tr><td>Bilirubin.total [Mass/volume] in Urine by Test strip</td><td>1.2</td><td>0 - 1</td><td>H</td><td>mg/dL</td></tr></table></div>"
        },
        "status": "final",
        "subject": {
          "reference": "urn:uuid:9ba9ac57-5d95-4094-82a6-c6cd3db7c1ae",
          "display": "Meaghan Neary"
        },
        "effectiveDateTime": "2018-09-24T22:11:04Z",
        "specimen": {
          "reference": "urn:uuid:b5ffc9da-6b7a-452d-af7b-2e60048c6ca1"
        }
      }
    },
    {
      "fullUrl": "urn:uuid:8bc55a70-948b-48b7-97a2-1e1786cfa180",
      "resource": {
        "resourceType": "Observation",
        "id": "8bc55a70-948b-48b7-97a2-1e1786cfa180",
        "meta": {
          "profile": [
            "http://hl7.eu/fhir/laboratory/StructureDefinition/Observation-resultslab-eu-lab"
          ]
        },
        "performer": [
          {
            "display": "The Central European Lab"
          }
        ],
        "category": [
          {
            "coding": [
              {
                "system": "http://terminology.hl7.org/CodeSystem/observation-category",
                "code": "laboratory"
              }
            ]
          }
        ],
        "code": {
          "coding": [
            {
              "code": "5770-3",
              "system": "http://loinc.org",
              "display": "Bilirubin.total [Presence] in Urine by Test strip"
            }
          ],
          "text": "Bilirubin.total [Presence] in Urine by Test strip"
        },
        "text": {
          "status": "generated",
          "div": "<div xmlns=\"http://www.w3.org/1999/xhtml\"><table class=\"hl7__eu__lab__report\"><tr><th>Test</th><th>25-Sep-2018</th><th>Reference&#xA0;Range</th><th>Unit</th></tr><tr><td>Bilirubin.total [Presence] in Urine by Test strip</td></tr></table></div>"
        },
        "status": "final",
        "subject": {
          "reference": "urn:uuid:9ba9ac57-5d95-4094-82a6-c6cd3db7c1ae",
          "display": "Meaghan Neary"
        },
        "effectiveDateTime": "2018-09-24T22:11:04Z",
        "specimen": {
          "reference": "urn:uuid:b5ffc9da-6b7a-452d-af7b-2e60048c6ca1"
        }
      }
    },
    {
      "fullUrl": "urn:uuid:86a1f12e-c2d5-46d9-97df-f62a15c835fe",
      "resource": {
        "resourceType": "Observation",
        "id": "86a1f12e-c2d5-46d9-97df-f62a15c835fe",
        "meta": {
          "profile": [
            "http://hl7.eu/fhir/laboratory/StructureDefinition/Observation-resultslab-eu-lab"
          ]
        },
        "performer": [
          {
            "display": "The Central European Lab"
          }
        ],
        "category": [
          {
            "coding": [
              {
                "system": "http://terminology.hl7.org/CodeSystem/observation-category",
                "code": "laboratory"
              }
            ]
          }
        ],
        "code": {
          "coding": [
            {
              "code": "5797-6",
              "system": "http://loinc.org",
              "display": "Ketones [Mass/volume] in Urine by Test strip"
            }
          ],
          "text": "Ketones [Mass/volume] in Urine by Test strip"
        },
        "valueQuantity": {
          "system": "http://unitsofmeasure.org",
          "value": 15.5,
          "unit": "mg/dL",
          "code": "mg/dL"
        },
        "referenceRange": [
          {
            "low": {
              "value": 0,
              "code": "mg/dL",
              "system": "http://unitsofmeasure.org"
            }
          },
          {
            "high": {
              "value": 4,
              "code": "mg/dL",
              "system": "http://unitsofmeasure.org"
            }
          }
        ],
        "interpretation": [
          {
            "coding": [
              {
                "code": "H",
                "system": "http://terminology.hl7.org/CodeSystem/v3-ObservationInterpretation",
                "display": "High"
              }
            ]
          }
        ],
        "text": {
          "status": "generated",
          "div": "<div xmlns=\"http://www.w3.org/1999/xhtml\"><table class=\"hl7__eu__lab__report\"><tr><th>Test</th><th>25-Sep-2018</th><th>Reference&#xA0;Range</th><th>Unit</th></tr><tr><td>Ketones [Mass/volume] in Urine by Test strip</td><td>15.5</td><td>0 - 4</td><td>H</td><td>mg/dL</td></tr></table></div>"
        },
        "status": "final",
        "subject": {
          "reference": "urn:uuid:9ba9ac57-5d95-4094-82a6-c6cd3db7c1ae",
          "display": "Meaghan Neary"
        },
        "effectiveDateTime": "2018-09-24T22:11:04Z",
        "specimen": {
          "reference": "urn:uuid:b5ffc9da-6b7a-452d-af7b-2e60048c6ca1"
        }
      }
    },
    {
      "fullUrl": "urn:uuid:8686eefc-910f-4f31-916e-e95ff9cbe7f6",
      "resource": {
        "resourceType": "Observation",
        "id": "8686eefc-910f-4f31-916e-e95ff9cbe7f6",
        "meta": {
          "profile": [
            "http://hl7.eu/fhir/laboratory/StructureDefinition/Observation-resultslab-eu-lab"
          ]
        },
        "performer": [
          {
            "display": "The Central European Lab"
          }
        ],
        "category": [
          {
            "coding": [
              {
                "system": "http://terminology.hl7.org/CodeSystem/observation-category",
                "code": "laboratory"
              }
            ]
          }
        ],
        "code": {
          "coding": [
            {
              "code": "2514-8",
              "system": "http://loinc.org",
              "display": "Ketones [Presence] in Urine by Test strip"
            }
          ],
          "text": "Ketones [Presence] in Urine by Test strip"
        },
        "text": {
          "status": "generated",
          "div": "<div xmlns=\"http://www.w3.org/1999/xhtml\"><table class=\"hl7__eu__lab__report\"><tr><th>Test</th><th>25-Sep-2018</th><th>Reference&#xA0;Range</th><th>Unit</th></tr><tr><td>Ketones [Presence] in Urine by Test strip</td></tr></table></div>"
        },
        "status": "final",
        "subject": {
          "reference": "urn:uuid:9ba9ac57-5d95-4094-82a6-c6cd3db7c1ae",
          "display": "Meaghan Neary"
        },
        "effectiveDateTime": "2018-09-24T22:11:04Z",
        "specimen": {
          "reference": "urn:uuid:b5ffc9da-6b7a-452d-af7b-2e60048c6ca1"
        }
      }
    },
    {
      "fullUrl": "urn:uuid:1e6541c4-c5de-49be-99f9-439bed1aeae8",
      "resource": {
        "resourceType": "Observation",
        "id": "1e6541c4-c5de-49be-99f9-439bed1aeae8",
        "meta": {
          "profile": [
            "http://hl7.eu/fhir/laboratory/StructureDefinition/Observation-resultslab-eu-lab"
          ]
        },
        "performer": [
          {
            "display": "The Central European Lab"
          }
        ],
        "category": [
          {
            "coding": [
              {
                "system": "http://terminology.hl7.org/CodeSystem/observation-category",
                "code": "laboratory"
              }
            ]
          }
        ],
        "code": {
          "coding": [
            {
              "code": "5811-5",
              "system": "http://loinc.org",
              "display": "Specific gravity of Urine by Test strip"
            }
          ],
          "text": "Specific gravity of Urine by Test strip"
        },
        "valueQuantity": {
          "system": "http://unitsofmeasure.org",
          "value": 1,
          "unit": "{nominal}",
          "code": "{nominal}"
        },
        "referenceRange": [
          {
            "low": {
              "value": 1.005,
              "code": "g/mL",
              "system": "http://unitsofmeasure.org"
            }
          },
          {
            "high": {
              "value": 1.03,
              "code": "g/mL",
              "system": "http://unitsofmeasure.org"
            }
          }
        ],
        "interpretation": [
          {
            "coding": [
              {
                "code": "L",
                "system": "http://terminology.hl7.org/CodeSystem/v3-ObservationInterpretation",
                "display": "Low"
              }
            ]
          }
        ],
        "text": {
          "status": "generated",
          "div": "<div xmlns=\"http://www.w3.org/1999/xhtml\"><table class=\"hl7__eu__lab__report\"><tr><th>Test</th><th>25-Sep-2018</th><th>Reference&#xA0;Range</th><th>Unit</th></tr><tr><td>Specific gravity of Urine by Test strip</td><td>1.0</td><td>1.005 - 1.03</td><td>L</td><td>{nominal}</td></tr></table></div>"
        },
        "status": "final",
        "subject": {
          "reference": "urn:uuid:9ba9ac57-5d95-4094-82a6-c6cd3db7c1ae",
          "display": "Meaghan Neary"
        },
        "effectiveDateTime": "2018-09-24T22:11:04Z",
        "specimen": {
          "reference": "urn:uuid:b5ffc9da-6b7a-452d-af7b-2e60048c6ca1"
        }
      }
    },
    {
      "fullUrl": "urn:uuid:6fa6ae36-132c-4061-8fe6-c59d6df868c5",
      "resource": {
        "resourceType": "Observation",
        "id": "6fa6ae36-132c-4061-8fe6-c59d6df868c5",
        "meta": {
          "profile": [
            "http://hl7.eu/fhir/laboratory/StructureDefinition/Observation-resultslab-eu-lab"
          ]
        },
        "performer": [
          {
            "display": "The Central European Lab"
          }
        ],
        "category": [
          {
            "coding": [
              {
                "system": "http://terminology.hl7.org/CodeSystem/observation-category",
                "code": "laboratory"
              }
            ]
          }
        ],
        "code": {
          "coding": [
            {
              "code": "5803-2",
              "system": "http://loinc.org",
              "display": "pH of Urine by Test strip"
            }
          ],
          "text": "pH of Urine by Test strip"
        },
        "valueQuantity": {
          "system": "http://unitsofmeasure.org",
          "value": 5.6,
          "unit": "pH",
          "code": "pH"
        },
        "referenceRange": [
          {
            "low": {
              "value": 4.6,
              "code": "pH",
              "system": "http://unitsofmeasure.org"
            }
          },
          {
            "high": {
              "value": 7,
              "code": "pH",
              "system": "http://unitsofmeasure.org"
            }
          }
        ],
        "text": {
          "status": "generated",
          "div": "<div xmlns=\"http://www.w3.org/1999/xhtml\"><table class=\"hl7__eu__lab__report\"><tr><th>Test</th><th>25-Sep-2018</th><th>Reference&#xA0;Range</th><th>Unit</th></tr><tr><td>pH of Urine by Test strip</td><td>5.6</td><td>4.6 - 7</td><td></td><td>pH</td></tr></table></div>"
        },
        "status": "final",
        "subject": {
          "reference": "urn:uuid:9ba9ac57-5d95-4094-82a6-c6cd3db7c1ae",
          "display": "Meaghan Neary"
        },
        "effectiveDateTime": "2018-09-24T22:11:04Z",
        "specimen": {
          "reference": "urn:uuid:b5ffc9da-6b7a-452d-af7b-2e60048c6ca1"
        }
      }
    },
    {
      "fullUrl": "urn:uuid:7b7a4f77-6d93-49f4-affb-b0a0375ea157",
      "resource": {
        "resourceType": "Observation",
        "id": "7b7a4f77-6d93-49f4-affb-b0a0375ea157",
        "meta": {
          "profile": [
            "http://hl7.eu/fhir/laboratory/StructureDefinition/Observation-resultslab-eu-lab"
          ]
        },
        "performer": [
          {
            "display": "The Central European Lab"
          }
        ],
        "category": [
          {
            "coding": [
              {
                "system": "http://terminology.hl7.org/CodeSystem/observation-category",
                "code": "laboratory"
              }
            ]
          }
        ],
        "code": {
          "coding": [
            {
              "code": "5804-0",
              "system": "http://loinc.org",
              "display": "Protein [Mass/volume] in Urine by Test strip"
            }
          ],
          "text": "Protein [Mass/volume] in Urine by Test strip"
        },
        "valueQuantity": {
          "system": "http://unitsofmeasure.org",
          "value": 175.4,
          "unit": "mg/dL",
          "code": "mg/dL"
        },
        "referenceRange": [
          {
            "low": {
              "value": 0,
              "code": "mg/dL",
              "system": "http://unitsofmeasure.org"
            }
          },
          {
            "high": {
              "value": 14,
              "code": "mg/dL",
              "system": "http://unitsofmeasure.org"
            }
          }
        ],
        "interpretation": [
          {
            "coding": [
              {
                "code": "H",
                "system": "http://terminology.hl7.org/CodeSystem/v3-ObservationInterpretation",
                "display": "High"
              }
            ]
          }
        ],
        "text": {
          "status": "generated",
          "div": "<div xmlns=\"http://www.w3.org/1999/xhtml\"><table class=\"hl7__eu__lab__report\"><tr><th>Test</th><th>25-Sep-2018</th><th>Reference&#xA0;Range</th><th>Unit</th></tr><tr><td>Protein [Mass/volume] in Urine by Test strip</td><td>175.4</td><td>0 - 14</td><td>H</td><td>mg/dL</td></tr></table></div>"
        },
        "status": "final",
        "subject": {
          "reference": "urn:uuid:9ba9ac57-5d95-4094-82a6-c6cd3db7c1ae",
          "display": "Meaghan Neary"
        },
        "effectiveDateTime": "2018-09-24T22:11:04Z",
        "specimen": {
          "reference": "urn:uuid:b5ffc9da-6b7a-452d-af7b-2e60048c6ca1"
        }
      }
    },
    {
      "fullUrl": "urn:uuid:8fa775eb-308a-4f27-8648-ea60bbc91960",
      "resource": {
        "resourceType": "Observation",
        "id": "8fa775eb-308a-4f27-8648-ea60bbc91960",
        "meta": {
          "profile": [
            "http://hl7.eu/fhir/laboratory/StructureDefinition/Observation-resultslab-eu-lab"
          ]
        },
        "performer": [
          {
            "display": "The Central European Lab"
          }
        ],
        "category": [
          {
            "coding": [
              {
                "system": "http://terminology.hl7.org/CodeSystem/observation-category",
                "code": "laboratory"
              }
            ]
          }
        ],
        "code": {
          "coding": [
            {
              "code": "20454-5",
              "system": "http://loinc.org",
              "display": "Protein [Presence] in Urine by Test strip"
            }
          ],
          "text": "Protein [Presence] in Urine by Test strip"
        },
        "text": {
          "status": "generated",
          "div": "<div xmlns=\"http://www.w3.org/1999/xhtml\"><table class=\"hl7__eu__lab__report\"><tr><th>Test</th><th>25-Sep-2018</th><th>Reference&#xA0;Range</th><th>Unit</th></tr><tr><td>Protein [Presence] in Urine by Test strip</td></tr></table></div>"
        },
        "status": "final",
        "subject": {
          "reference": "urn:uuid:9ba9ac57-5d95-4094-82a6-c6cd3db7c1ae",
          "display": "Meaghan Neary"
        },
        "effectiveDateTime": "2018-09-24T22:11:04Z",
        "specimen": {
          "reference": "urn:uuid:b5ffc9da-6b7a-452d-af7b-2e60048c6ca1"
        }
      }
    },
    {
      "fullUrl": "urn:uuid:bbe59b7a-5256-408e-8418-19b03635f1ee",
      "resource": {
        "resourceType": "Observation",
        "id": "bbe59b7a-5256-408e-8418-19b03635f1ee",
        "meta": {
          "profile": [
            "http://hl7.eu/fhir/laboratory/StructureDefinition/Observation-resultslab-eu-lab"
          ]
        },
        "performer": [
          {
            "display": "The Central European Lab"
          }
        ],
        "category": [
          {
            "coding": [
              {
                "system": "http://terminology.hl7.org/CodeSystem/observation-category",
                "code": "laboratory"
              }
            ]
          }
        ],
        "code": {
          "coding": [
            {
              "code": "5802-4",
              "system": "http://loinc.org",
              "display": "Nitrite [Presence] in Urine by Test strip"
            }
          ],
          "text": "Nitrite [Presence] in Urine by Test strip"
        },
        "text": {
          "status": "generated",
          "div": "<div xmlns=\"http://www.w3.org/1999/xhtml\"><table class=\"hl7__eu__lab__report\"><tr><th>Test</th><th>25-Sep-2018</th><th>Reference&#xA0;Range</th><th>Unit</th></tr><tr><td>Nitrite [Presence] in Urine by Test strip</td></tr></table></div>"
        },
        "status": "final",
        "subject": {
          "reference": "urn:uuid:9ba9ac57-5d95-4094-82a6-c6cd3db7c1ae",
          "display": "Meaghan Neary"
        },
        "effectiveDateTime": "2018-09-24T22:11:04Z",
        "specimen": {
          "reference": "urn:uuid:b5ffc9da-6b7a-452d-af7b-2e60048c6ca1"
        }
      }
    },
    {
      "fullUrl": "urn:uuid:9ec97e2f-9080-4116-922a-bc15168ad257",
      "resource": {
        "resourceType": "Observation",
        "id": "9ec97e2f-9080-4116-922a-bc15168ad257",
        "meta": {
          "profile": [
            "http://hl7.eu/fhir/laboratory/StructureDefinition/Observation-resultslab-eu-lab"
          ]
        },
        "performer": [
          {
            "display": "The Central European Lab"
          }
        ],
        "category": [
          {
            "coding": [
              {
                "system": "http://terminology.hl7.org/CodeSystem/observation-category",
                "code": "laboratory"
              }
            ]
          }
        ],
        "code": {
          "coding": [
            {
              "code": "5794-3",
              "system": "http://loinc.org",
              "display": "Hemoglobin [Presence] in Urine by Test strip"
            }
          ],
          "text": "Hemoglobin [Presence] in Urine by Test strip"
        },
        "text": {
          "status": "generated",
          "div": "<div xmlns=\"http://www.w3.org/1999/xhtml\"><table class=\"hl7__eu__lab__report\"><tr><th>Test</th><th>25-Sep-2018</th><th>Reference&#xA0;Range</th><th>Unit</th></tr><tr><td>Hemoglobin [Presence] in Urine by Test strip</td></tr></table></div>"
        },
        "status": "final",
        "subject": {
          "reference": "urn:uuid:9ba9ac57-5d95-4094-82a6-c6cd3db7c1ae",
          "display": "Meaghan Neary"
        },
        "effectiveDateTime": "2018-09-24T22:11:04Z",
        "specimen": {
          "reference": "urn:uuid:b5ffc9da-6b7a-452d-af7b-2e60048c6ca1"
        }
      }
    },
    {
      "fullUrl": "urn:uuid:0d2ae344-50cd-40e2-9feb-65deba75ab2d",
      "resource": {
        "resourceType": "Observation",
        "id": "0d2ae344-50cd-40e2-9feb-65deba75ab2d",
        "meta": {
          "profile": [
            "http://hl7.eu/fhir/laboratory/StructureDefinition/Observation-resultslab-eu-lab"
          ]
        },
        "performer": [
          {
            "display": "The Central European Lab"
          }
        ],
        "category": [
          {
            "coding": [
              {
                "system": "http://terminology.hl7.org/CodeSystem/observation-category",
                "code": "laboratory"
              }
            ]
          }
        ],
        "code": {
          "coding": [
            {
              "code": "5799-2",
              "system": "http://loinc.org",
              "display": "Leukocyte esterase [Presence] in Urine by Test strip"
            }
          ],
          "text": "Leukocyte esterase [Presence] in Urine by Test strip"
        },
        "text": {
          "status": "generated",
          "div": "<div xmlns=\"http://www.w3.org/1999/xhtml\"><table class=\"hl7__eu__lab__report\"><tr><th>Test</th><th>25-Sep-2018</th><th>Reference&#xA0;Range</th><th>Unit</th></tr><tr><td>Leukocyte esterase [Presence] in Urine by Test strip</td></tr></table></div>"
        },
        "status": "final",
        "subject": {
          "reference": "urn:uuid:9ba9ac57-5d95-4094-82a6-c6cd3db7c1ae",
          "display": "Meaghan Neary"
        },
        "effectiveDateTime": "2018-09-24T22:11:04Z",
        "specimen": {
          "reference": "urn:uuid:b5ffc9da-6b7a-452d-af7b-2e60048c6ca1"
        }
      }
    },
    {
      "fullUrl": "urn:uuid:59f38546-75eb-4826-a3cb-66e333425807",
      "resource": {
        "resourceType": "Observation",
        "id": "59f38546-75eb-4826-a3cb-66e333425807",
        "meta": {
          "profile": [
            "http://hl7.eu/fhir/laboratory/StructureDefinition/Observation-resultslab-eu-lab"
          ]
        },
        "performer": [
          {
            "display": "The Central European Lab"
          }
        ],
        "category": [
          {
            "coding": [
              {
                "system": "http://terminology.hl7.org/CodeSystem/observation-category",
                "code": "laboratory"
              }
            ]
          }
        ],
        "code": {
          "coding": [
            {
              "code": "4548-4",
              "system": "http://loinc.org",
              "display": "Hemoglobin A1c/Hemoglobin.total in Blood"
            }
          ],
          "text": "Hemoglobin A1c/Hemoglobin.total in Blood"
        },
        "valueQuantity": {
          "system": "http://unitsofmeasure.org",
          "value": 3,
          "unit": "%",
          "code": "%"
        },
        "referenceRange": [
          {
            "low": {
              "value": 4,
              "code": "%",
              "system": "http://unitsofmeasure.org"
            }
          },
          {
            "high": {
              "value": 6.4,
              "code": "%",
              "system": "http://unitsofmeasure.org"
            }
          }
        ],
        "interpretation": [
          {
            "coding": [
              {
                "code": "L",
                "system": "http://terminology.hl7.org/CodeSystem/v3-ObservationInterpretation",
                "display": "Low"
              }
            ]
          }
        ],
        "text": {
          "status": "generated",
          "div": "<div xmlns=\"http://www.w3.org/1999/xhtml\"><table class=\"hl7__eu__lab__report\"><tr><th>Test</th><th>25-Sep-2018</th><th>Reference&#xA0;Range</th><th>Unit</th></tr><tr><td>Hemoglobin A1c/Hemoglobin.total in Blood</td><td>3.0</td><td>4 - 6.4</td><td>L</td><td>%</td></tr></table></div>"
        },
        "status": "final",
        "subject": {
          "reference": "urn:uuid:9ba9ac57-5d95-4094-82a6-c6cd3db7c1ae",
          "display": "Meaghan Neary"
        },
        "effectiveDateTime": "2018-09-24T22:11:04Z",
        "specimen": {
          "reference": "urn:uuid:6daf7629-8ade-4b4e-9dc8-e581b04b865e"
        }
      }
    },
    {
      "fullUrl": "urn:uuid:80c41ed8-fc57-496d-b419-6a4215e10bf9",
      "resource": {
        "resourceType": "Observation",
        "id": "80c41ed8-fc57-496d-b419-6a4215e10bf9",
        "meta": {
          "profile": [
            "http://hl7.eu/fhir/laboratory/StructureDefinition/Observation-resultslab-eu-lab"
          ]
        },
        "performer": [
          {
            "display": "The Central European Lab"
          }
        ],
        "category": [
          {
            "coding": [
              {
                "system": "http://terminology.hl7.org/CodeSystem/observation-category",
                "code": "laboratory"
              }
            ]
          }
        ],
        "code": {
          "coding": [
            {
              "code": "2339-0",
              "system": "http://loinc.org",
              "display": "Glucose [Mass/volume] in Blood"
            }
          ],
          "text": "Glucose [Mass/volume] in Blood"
        },
        "valueQuantity": {
          "system": "http://unitsofmeasure.org",
          "value": 68.9,
          "unit": "mg/dL",
          "code": "mg/dL"
        },
        "referenceRange": [
          {
            "low": {
              "value": 70,
              "code": "mg/dL",
              "system": "http://unitsofmeasure.org"
            }
          },
          {
            "high": {
              "value": 100,
              "code": "mg/dL",
              "system": "http://unitsofmeasure.org"
            }
          }
        ],
        "interpretation": [
          {
            "coding": [
              {
                "code": "L",
                "system": "http://terminology.hl7.org/CodeSystem/v3-ObservationInterpretation",
                "display": "Low"
              }
            ]
          }
        ],
        "text": {
          "status": "generated",
          "div": "<div xmlns=\"http://www.w3.org/1999/xhtml\"><table class=\"hl7__eu__lab__report\"><tr><th>Test</th><th>25-Sep-2018</th><th>Reference&#xA0;Range</th><th>Unit</th></tr><tr><td>Glucose [Mass/volume] in Blood</td><td>68.9</td><td>70 - 100</td><td>L</td><td>mg/dL</td></tr></table></div>"
        },
        "status": "final",
        "subject": {
          "reference": "urn:uuid:9ba9ac57-5d95-4094-82a6-c6cd3db7c1ae",
          "display": "Meaghan Neary"
        },
        "effectiveDateTime": "2018-09-24T22:11:04Z",
        "specimen": {
          "reference": "urn:uuid:6daf7629-8ade-4b4e-9dc8-e581b04b865e"
        }
      }
    },
    {
      "fullUrl": "urn:uuid:a1d94550-5cbd-4b58-af72-2afcad10e4a6",
      "resource": {
        "resourceType": "Observation",
        "id": "a1d94550-5cbd-4b58-af72-2afcad10e4a6",
        "meta": {
          "profile": [
            "http://hl7.eu/fhir/laboratory/StructureDefinition/Observation-resultslab-eu-lab"
          ]
        },
        "performer": [
          {
            "display": "The Central European Lab"
          }
        ],
        "category": [
          {
            "coding": [
              {
                "system": "http://terminology.hl7.org/CodeSystem/observation-category",
                "code": "laboratory"
              }
            ]
          }
        ],
        "code": {
          "coding": [
            {
              "code": "6299-2",
              "system": "http://loinc.org",
              "display": "Urea nitrogen [Mass/volume] in Blood"
            }
          ],
          "text": "Urea nitrogen [Mass/volume] in Blood"
        },
        "valueQuantity": {
          "system": "http://unitsofmeasure.org",
          "value": 16.6,
          "unit": "mg/dL",
          "code": "mg/dL"
        },
        "referenceRange": [
          {
            "low": {
              "value": 7,
              "code": "mg/dL",
              "system": "http://unitsofmeasure.org"
            }
          },
          {
            "high": {
              "value": 43,
              "code": "mg/dL",
              "system": "http://unitsofmeasure.org"
            }
          }
        ],
        "text": {
          "status": "generated",
          "div": "<div xmlns=\"http://www.w3.org/1999/xhtml\"><table class=\"hl7__eu__lab__report\"><tr><th>Test</th><th>25-Sep-2018</th><th>Reference&#xA0;Range</th><th>Unit</th></tr><tr><td>Urea nitrogen [Mass/volume] in Blood</td><td>16.6</td><td>7 - 43</td><td></td><td>mg/dL</td></tr></table></div>"
        },
        "status": "final",
        "subject": {
          "reference": "urn:uuid:9ba9ac57-5d95-4094-82a6-c6cd3db7c1ae",
          "display": "Meaghan Neary"
        },
        "effectiveDateTime": "2018-09-24T22:11:04Z",
        "specimen": {
          "reference": "urn:uuid:6daf7629-8ade-4b4e-9dc8-e581b04b865e"
        }
      }
    },
    {
      "fullUrl": "urn:uuid:286419ce-0d1f-4f8e-aab5-321a9996e1bc",
      "resource": {
        "resourceType": "Observation",
        "id": "286419ce-0d1f-4f8e-aab5-321a9996e1bc",
        "meta": {
          "profile": [
            "http://hl7.eu/fhir/laboratory/StructureDefinition/Observation-resultslab-eu-lab"
          ]
        },
        "performer": [
          {
            "display": "The Central European Lab"
          }
        ],
        "category": [
          {
            "coding": [
              {
                "system": "http://terminology.hl7.org/CodeSystem/observation-category",
                "code": "laboratory"
              }
            ]
          }
        ],
        "code": {
          "coding": [
            {
              "code": "38483-4",
              "system": "http://loinc.org",
              "display": "Creatinine [Mass/volume] in Blood"
            }
          ],
          "text": "Creatinine [Mass/volume] in Blood"
        },
        "valueQuantity": {
          "system": "http://unitsofmeasure.org",
          "value": 2.4,
          "unit": "mg/dL",
          "code": "mg/dL"
        },
        "referenceRange": [
          {
            "low": {
              "value": 0.6,
              "code": "mg/dL",
              "system": "http://unitsofmeasure.org"
            }
          },
          {
            "high": {
              "value": 1.1,
              "code": "mg/dL",
              "system": "http://unitsofmeasure.org"
            }
          }
        ],
        "interpretation": [
          {
            "coding": [
              {
                "code": "H",
                "system": "http://terminology.hl7.org/CodeSystem/v3-ObservationInterpretation",
                "display": "High"
              }
            ]
          }
        ],
        "text": {
          "status": "generated",
          "div": "<div xmlns=\"http://www.w3.org/1999/xhtml\"><table class=\"hl7__eu__lab__report\"><tr><th>Test</th><th>25-Sep-2018</th><th>Reference&#xA0;Range</th><th>Unit</th></tr><tr><td>Creatinine [Mass/volume] in Blood</td><td>2.4</td><td>0.6 - 1.1</td><td>H</td><td>mg/dL</td></tr></table></div>"
        },
        "status": "final",
        "subject": {
          "reference": "urn:uuid:9ba9ac57-5d95-4094-82a6-c6cd3db7c1ae",
          "display": "Meaghan Neary"
        },
        "effectiveDateTime": "2018-09-24T22:11:04Z",
        "specimen": {
          "reference": "urn:uuid:6daf7629-8ade-4b4e-9dc8-e581b04b865e"
        }
      }
    },
    {
      "fullUrl": "urn:uuid:684f9da8-b031-4095-8e22-d0294801ebae",
      "resource": {
        "resourceType": "Observation",
        "id": "684f9da8-b031-4095-8e22-d0294801ebae",
        "meta": {
          "profile": [
            "http://hl7.eu/fhir/laboratory/StructureDefinition/Observation-resultslab-eu-lab"
          ]
        },
        "performer": [
          {
            "display": "The Central European Lab"
          }
        ],
        "category": [
          {
            "coding": [
              {
                "system": "http://terminology.hl7.org/CodeSystem/observation-category",
                "code": "laboratory"
              }
            ]
          }
        ],
        "code": {
          "coding": [
            {
              "code": "49765-1",
              "system": "http://loinc.org",
              "display": "Calcium [Mass/volume] in Blood"
            }
          ],
          "text": "Calcium [Mass/volume] in Blood"
        },
        "valueQuantity": {
          "system": "http://unitsofmeasure.org",
          "value": 9.6,
          "unit": "mg/dL",
          "code": "mg/dL"
        },
        "referenceRange": [
          {
            "low": {
              "value": 8.5,
              "code": "mg/dL",
              "system": "http://unitsofmeasure.org"
            }
          },
          {
            "high": {
              "value": 10.5,
              "code": "mg/dL",
              "system": "http://unitsofmeasure.org"
            }
          }
        ],
        "text": {
          "status": "generated",
          "div": "<div xmlns=\"http://www.w3.org/1999/xhtml\"><table class=\"hl7__eu__lab__report\"><tr><th>Test</th><th>25-Sep-2018</th><th>Reference&#xA0;Range</th><th>Unit</th></tr><tr><td>Calcium [Mass/volume] in Blood</td><td>9.6</td><td>8.5 - 10.5</td><td></td><td>mg/dL</td></tr></table></div>"
        },
        "status": "final",
        "subject": {
          "reference": "urn:uuid:9ba9ac57-5d95-4094-82a6-c6cd3db7c1ae",
          "display": "Meaghan Neary"
        },
        "effectiveDateTime": "2018-09-24T22:11:04Z",
        "specimen": {
          "reference": "urn:uuid:6daf7629-8ade-4b4e-9dc8-e581b04b865e"
        }
      }
    },
    {
      "fullUrl": "urn:uuid:1af5f4aa-2dd5-4267-a0af-4df279b8eb36",
      "resource": {
        "resourceType": "Observation",
        "id": "1af5f4aa-2dd5-4267-a0af-4df279b8eb36",
        "meta": {
          "profile": [
            "http://hl7.eu/fhir/laboratory/StructureDefinition/Observation-resultslab-eu-lab"
          ]
        },
        "performer": [
          {
            "display": "The Central European Lab"
          }
        ],
        "category": [
          {
            "coding": [
              {
                "system": "http://terminology.hl7.org/CodeSystem/observation-category",
                "code": "laboratory"
              }
            ]
          }
        ],
        "code": {
          "coding": [
            {
              "code": "2947-0",
              "system": "http://loinc.org",
              "display": "Sodium [Moles/volume] in Blood"
            }
          ],
          "text": "Sodium [Moles/volume] in Blood"
        },
        "valueQuantity": {
          "system": "http://unitsofmeasure.org",
          "value": 139.2,
          "unit": "mmol/L",
          "code": "mmol/L"
        },
        "referenceRange": [
          {
            "low": {
              "value": 135,
              "code": "mmol/L",
              "system": "http://unitsofmeasure.org"
            }
          },
          {
            "high": {
              "value": 145,
              "code": "mmol/L",
              "system": "http://unitsofmeasure.org"
            }
          }
        ],
        "text": {
          "status": "generated",
          "div": "<div xmlns=\"http://www.w3.org/1999/xhtml\"><table class=\"hl7__eu__lab__report\"><tr><th>Test</th><th>25-Sep-2018</th><th>Reference&#xA0;Range</th><th>Unit</th></tr><tr><td>Sodium [Moles/volume] in Blood</td><td>139.2</td><td>135 - 145</td><td></td><td>mmol/L</td></tr></table></div>"
        },
        "status": "final",
        "subject": {
          "reference": "urn:uuid:9ba9ac57-5d95-4094-82a6-c6cd3db7c1ae",
          "display": "Meaghan Neary"
        },
        "effectiveDateTime": "2018-09-24T22:11:04Z",
        "specimen": {
          "reference": "urn:uuid:6daf7629-8ade-4b4e-9dc8-e581b04b865e"
        }
      }
    },
    {
      "fullUrl": "urn:uuid:9484ca9a-1f43-4886-9c75-5b1d4df72a45",
      "resource": {
        "resourceType": "Observation",
        "id": "9484ca9a-1f43-4886-9c75-5b1d4df72a45",
        "meta": {
          "profile": [
            "http://hl7.eu/fhir/laboratory/StructureDefinition/Observation-resultslab-eu-lab"
          ]
        },
        "performer": [
          {
            "display": "The Central European Lab"
          }
        ],
        "category": [
          {
            "coding": [
              {
                "system": "http://terminology.hl7.org/CodeSystem/observation-category",
                "code": "laboratory"
              }
            ]
          }
        ],
        "code": {
          "coding": [
            {
              "code": "6298-4",
              "system": "http://loinc.org",
              "display": "Potassium [Moles/volume] in Blood"
            }
          ],
          "text": "Potassium [Moles/volume] in Blood"
        },
        "valueQuantity": {
          "system": "http://unitsofmeasure.org",
          "value": 4.3,
          "unit": "mmol/L",
          "code": "mmol/L"
        },
        "referenceRange": [
          {
            "low": {
              "value": 3.5,
              "code": "mmol/L",
              "system": "http://unitsofmeasure.org"
            }
          },
          {
            "high": {
              "value": 5.1,
              "code": "mmol/L",
              "system": "http://unitsofmeasure.org"
            }
          }
        ],
        "text": {
          "status": "generated",
          "div": "<div xmlns=\"http://www.w3.org/1999/xhtml\"><table class=\"hl7__eu__lab__report\"><tr><th>Test</th><th>25-Sep-2018</th><th>Reference&#xA0;Range</th><th>Unit</th></tr><tr><td>Potassium [Moles/volume] in Blood</td><td>4.3</td><td>3.5 - 5.1</td><td></td><td>mmol/L</td></tr></table></div>"
        },
        "status": "final",
        "subject": {
          "reference": "urn:uuid:9ba9ac57-5d95-4094-82a6-c6cd3db7c1ae",
          "display": "Meaghan Neary"
        },
        "effectiveDateTime": "2018-09-24T22:11:04Z",
        "specimen": {
          "reference": "urn:uuid:6daf7629-8ade-4b4e-9dc8-e581b04b865e"
        }
      }
    },
    {
      "fullUrl": "urn:uuid:2d8b97ad-5a0c-4ef1-82dc-fc73cf6007c4",
      "resource": {
        "resourceType": "Observation",
        "id": "2d8b97ad-5a0c-4ef1-82dc-fc73cf6007c4",
        "meta": {
          "profile": [
            "http://hl7.eu/fhir/laboratory/StructureDefinition/Observation-resultslab-eu-lab"
          ]
        },
        "performer": [
          {
            "display": "The Central European Lab"
          }
        ],
        "category": [
          {
            "coding": [
              {
                "system": "http://terminology.hl7.org/CodeSystem/observation-category",
                "code": "laboratory"
              }
            ]
          }
        ],
        "code": {
          "coding": [
            {
              "code": "2069-3",
              "system": "http://loinc.org",
              "display": "Chloride [Moles/volume] in Blood"
            }
          ],
          "text": "Chloride [Moles/volume] in Blood"
        },
        "valueQuantity": {
          "system": "http://unitsofmeasure.org",
          "value": 106.2,
          "unit": "mmol/L",
          "code": "mmol/L"
        },
        "referenceRange": [
          {
            "low": {
              "value": 98,
              "code": "mmol/L",
              "system": "http://unitsofmeasure.org"
            }
          },
          {
            "high": {
              "value": 108,
              "code": "mmol/L",
              "system": "http://unitsofmeasure.org"
            }
          }
        ],
        "text": {
          "status": "generated",
          "div": "<div xmlns=\"http://www.w3.org/1999/xhtml\"><table class=\"hl7__eu__lab__report\"><tr><th>Test</th><th>25-Sep-2018</th><th>Reference&#xA0;Range</th><th>Unit</th></tr><tr><td>Chloride [Moles/volume] in Blood</td><td>106.2</td><td>98 - 108</td><td></td><td>mmol/L</td></tr></table></div>"
        },
        "status": "final",
        "subject": {
          "reference": "urn:uuid:9ba9ac57-5d95-4094-82a6-c6cd3db7c1ae",
          "display": "Meaghan Neary"
        },
        "effectiveDateTime": "2018-09-24T22:11:04Z",
        "specimen": {
          "reference": "urn:uuid:6daf7629-8ade-4b4e-9dc8-e581b04b865e"
        }
      }
    },
    {
      "fullUrl": "urn:uuid:a9bae839-f95d-4689-ac47-5bb1d914959e",
      "resource": {
        "resourceType": "Observation",
        "id": "a9bae839-f95d-4689-ac47-5bb1d914959e",
        "meta": {
          "profile": [
            "http://hl7.eu/fhir/laboratory/StructureDefinition/Observation-resultslab-eu-lab"
          ]
        },
        "performer": [
          {
            "display": "The Central European Lab"
          }
        ],
        "category": [
          {
            "coding": [
              {
                "system": "http://terminology.hl7.org/CodeSystem/observation-category",
                "code": "laboratory"
              }
            ]
          }
        ],
        "code": {
          "coding": [
            {
              "code": "20565-8",
              "system": "http://loinc.org",
              "display": "Carbon dioxide, total [Moles/volume] in Blood"
            }
          ],
          "text": "Carbon dioxide, total [Moles/volume] in Blood"
        },
        "valueQuantity": {
          "system": "http://unitsofmeasure.org",
          "value": 27.8,
          "unit": "mmol/L",
          "code": "mmol/L"
        },
        "referenceRange": [
          {
            "low": {
              "value": 22,
              "code": "mmol/L",
              "system": "http://unitsofmeasure.org"
            }
          },
          {
            "high": {
              "value": 29,
              "code": "mmol/L",
              "system": "http://unitsofmeasure.org"
            }
          }
        ],
        "text": {
          "status": "generated",
          "div": "<div xmlns=\"http://www.w3.org/1999/xhtml\"><table class=\"hl7__eu__lab__report\"><tr><th>Test</th><th>25-Sep-2018</th><th>Reference&#xA0;Range</th><th>Unit</th></tr><tr><td>Carbon dioxide, total [Moles/volume] in Blood</td><td>27.8</td><td>22 - 29</td><td></td><td>mmol/L</td></tr></table></div>"
        },
        "status": "final",
        "subject": {
          "reference": "urn:uuid:9ba9ac57-5d95-4094-82a6-c6cd3db7c1ae",
          "display": "Meaghan Neary"
        },
        "effectiveDateTime": "2018-09-24T22:11:04Z",
        "specimen": {
          "reference": "urn:uuid:6daf7629-8ade-4b4e-9dc8-e581b04b865e"
        }
      }
    },
    {
      "fullUrl": "urn:uuid:e2fe4c8b-732d-401a-b1cd-52051d536006",
      "resource": {
        "resourceType": "Device",
        "id": "e2fe4c8b-732d-401a-b1cd-52051d536006",
        "deviceName": [
          {
            "name": "SYNDERAI Synthetic Generator",
            "type": "manufacturer-name"
          }
        ],
        "version": [
          {
            "value": "5.0"
          }
        ],
        "text": {
          "status": "generated",
          "div": "<div xmlns=\"http://www.w3.org/1999/xhtml\">SYNDERAI Synthetic Generator v5.0</div>"
        },
        "status": "active\"",
        "distinctIdentifier": "synderai-generator-50",
        "manufacturer": "SYNDERAI Project"
      }
    },
    {
      "fullUrl": "urn:uuid:f1531ae8-6148-45e5-9be9-9c3a7e782be9",
      "resource": {
        "resourceType": "Provenance",
        "id": "f1531ae8-6148-45e5-9be9-9c3a7e782be9",
        "target": [
          {
            "reference": "Patient/9ba9ac57-5d95-4094-82a6-c6cd3db7c1ae"
          },
          {
            "reference": "Bundle/121b9698-bc51-48ab-a033-807930f5a7a9"
          },
          {
            "reference": "Composition/0a470bab-3410-4121-872d-a4d88d2a595b"
          },
          {
            "reference": "PractitionerRole/9f3e18fb-293d-43d3-8f14-6faa2e84d33f"
          },
          {
            "reference": "Practitioner/c1cf64df-e50d-42e8-948b-8a7a7c733e63"
          },
          {
            "reference": "PractitionerRole/59f416b4-e294-46ba-9436-40d41245cf0c"
          },
          {
            "reference": "Organization/4842ad77-170d-4f81-a0b9-a5479a8b132c"
          }
        ],
        "activity": {
          "text": "Synthetic Example Data Generation"
        },
        "policy": [
          "https://synderai.net/synderai-synthetic-data-policy"
        ],
        "agent": [
          {
            "type": {
              "text": "author"
            },
            "who": {
              "reference": "Device/e2fe4c8b-732d-401a-b1cd-52051d536006"
            }
          }
        ],
        "reason": [
          {
            "text": "Interoperability Testing and Training (non-clinical use)"
          }
        ],
        "text": {
          "status": "generated",
          "div": "<div xmlns=\"http://www.w3.org/1999/xhtml\">Provenance for SYNDERAI Synthetic Example Data Resource</div>"
        },
        "recorded": "2018-09-25T00:11:04Z"
      }
    },
    {
      "fullUrl": "urn:uuid:9f3e18fb-293d-43d3-8f14-6faa2e84d33f",
      "resource": {
        "resourceType": "PractitionerRole",
        "id": "9f3e18fb-293d-43d3-8f14-6faa2e84d33f",
        "meta": {
          "profile": [
            "http://hl7.eu/fhir/base/StructureDefinition/practitionerRole-eu"
          ]
        },
        "text": {
          "status": "generated",
          "div": "<div xmlns=\"http://www.w3.org/1999/xhtml\">Laboratory Role Id: 9f3e18fb-293d-43d3-8f14-6faa2e84d33f</div>"
        },
        "practitioner": {
          "reference": "urn:uuid:c1cf64df-e50d-42e8-948b-8a7a7c733e63"
        }
      }
    },
    {
      "fullUrl": "urn:uuid:c1cf64df-e50d-42e8-948b-8a7a7c733e63",
      "resource": {
        "resourceType": "Practitioner",
        "id": "c1cf64df-e50d-42e8-948b-8a7a7c733e63",
        "meta": {
          "profile": [
            "http://hl7.eu/fhir/base/StructureDefinition/practitioner-eu"
          ]
        },
        "identifier": [
          {
            "assigner": {
              "display": "HL7 Europe"
            },
            "system": "urn:oid:2.16.840.1.113883.2.51.999",
            "value": "ac6c41ef-2a7c-4425-a110-abbdfbba6324"
          }
        ],
        "name": [
          {
            "prefix": [
              "dr"
            ],
            "given": [
              "Ex"
            ],
            "family": "Ample"
          }
        ],
        "address": [
          {
            "line": [
              "Laboratoire Central Européenne",
              "Boulevard du Jardin Botanique 32"
            ],
            "postalCode": "1000",
            "city": "Brussels",
            "country": "Belgium"
          }
        ],
        "text": {
          "status": "generated",
          "div": "<div xmlns=\"http://www.w3.org/1999/xhtml\">Laboratory: Laboratoire Central Européenne, 1000 Brussels, Belgium</div>"
        }
      }
    }
  ],
  "type": "document",
  "timestamp": "2018-09-25T00:11:04Z"
}
