{
  "resourceType": "Bundle",
  "id": "ea49d59c-e556-4f7a-a905-87e4f6776aca",
  "meta": {
    "profile": [
      "http://hl7.eu/fhir/laboratory/StructureDefinition/Bundle-eu-lab"
    ]
  },
  "identifier": {
    "assigner": {
      "display": "HL7 Europe"
    },
    "system": "urn:oid:2.16.840.1.113883.2.51.999",
    "value": "33fb32c8-b93d-4287-951e-f2d6903e36d6"
  },
  "entry": [
    {
      "fullUrl": "urn:uuid:c9806349-ff43-4f95-81ce-025fee43a4a0",
      "resource": {
        "resourceType": "Composition",
        "id": "c9806349-ff43-4f95-81ce-025fee43a4a0",
        "meta": {
          "profile": [
            "http://hl7.eu/fhir/laboratory/StructureDefinition/Composition-eu-lab"
          ]
        },
        "identifier": {
          "assigner": {
            "display": "HL7 Europe"
          },
          "system": "urn:oid:2.16.840.1.113883.2.51.999",
          "value": "906341e5-1aaf-4d19-a042-6e118b583478"
        },
        "author": [
          {
            "reference": "urn:uuid:d021a889-4881-4439-b902-cee6887cea29"
          }
        ],
        "category": [
          {
            "coding": [
              {
                "code": "26436-6",
                "system": "http://loinc.org",
                "display": "Laboratory studies (set)"
              }
            ]
          }
        ],
        "type": {
          "coding": [
            {
              "code": "11502-2",
              "system": "http://loinc.org",
              "display": "Laboratory report"
            }
          ],
          "text": "Laboratory Report"
        },
        "section": [
          {
            "code": {
              "coding": [
                {
                  "code": "26436-6",
                  "system": "http://loinc.org",
                  "display": "Laboratory studies (set)"
                }
              ],
              "text": "Laboratory studies"
            },
            "section": [
              {
                "code": {
                  "coding": [
                    {
                      "code": "$18719-5",
                      "system": "http://loinc.org",
                      "display": "Chemistry studies (set)"
                    }
                  ],
                  "text": "Chemistry"
                },
                "entry": [
                  {
                    "reference": "urn:uuid:d6366a9a-560a-45bc-8aed-f21e5cba3992"
                  },
                  {
                    "reference": "urn:uuid:8e28bcef-1739-464a-8c69-b6e38895a3f2"
                  },
                  {
                    "reference": "urn:uuid:42eaff65-e3b6-4282-8638-8f0d07b8f09e"
                  },
                  {
                    "reference": "urn:uuid:b63f163d-d701-4181-b3fb-ebdf02be18e2"
                  },
                  {
                    "reference": "urn:uuid:33eada45-dd89-4356-8a1c-6b8e7e300e86"
                  },
                  {
                    "reference": "urn:uuid:5741f949-e19e-4b37-8360-5ae4abeac1fc"
                  },
                  {
                    "reference": "urn:uuid:3987b875-1eaf-4f02-8ac2-ee74fdf88779"
                  },
                  {
                    "reference": "urn:uuid:cf474f92-cdf9-4a08-8dfe-cccaa6e927a6"
                  },
                  {
                    "reference": "urn:uuid:279e70aa-3f10-48ea-af7a-116f0715e627"
                  },
                  {
                    "reference": "urn:uuid:8144c9c4-abb8-4f48-81e5-2f09c75fced1"
                  },
                  {
                    "reference": "urn:uuid:a01f3145-7b38-4f30-bcb0-b113571198fd"
                  },
                  {
                    "reference": "urn:uuid:70845046-d964-440e-baeb-013c2d5738d5"
                  },
                  {
                    "reference": "urn:uuid:1614e0ce-c373-4a43-9d9c-f01875d44658"
                  }
                ],
                "text": {
                  "status": "generated",
                  "div": "<div xmlns=\"http://www.w3.org/1999/xhtml\"><h3>Chemistry</h3><table class=\"hl7__eu__lab__report\"><thead><tr><th>Test</th><th>18-AUG-2017</th><th>Reference&#xA0;Range</th><th>Unit</th></tr></thead><tbody><tr><td>Hemoglobin A1c/Hemoglobin.total in Blood</td><td><strong>6.0 H</strong></td><td>4.8 - 5.7</td><td>%</td></tr><tr><td>Glucose [Mass/volume] in Blood</td><td>93.0</td><td>70 - 140</td><td>mg/dL</td></tr><tr><td>Urea nitrogen [Mass/volume] in Blood</td><td>15.1</td><td>7 - 20</td><td>mg/dL</td></tr><tr><td>Creatinine [Mass/volume] in Blood</td><td>1.0</td><td>0.6 - 1.3</td><td>mg/dL</td></tr><tr><td>Calcium [Mass/volume] in Blood</td><td>8.6</td><td>8.5 - 10.5</td><td>mg/dL</td></tr><tr><td>Sodium [Moles/volume] in Blood</td><td>143.6</td><td>135 - 145</td><td>mmol/L</td></tr><tr><td>Potassium [Moles/volume] in Blood</td><td>4.1</td><td>3.5 - 5.1</td><td>mmol/L</td></tr><tr><td>Chloride [Moles/volume] in Blood</td><td>106.5</td><td>98 - 108</td><td>mmol/L</td></tr><tr><td>Carbon dioxide, total [Moles/volume] in Blood</td><td>26.1</td><td>22 - 32</td><td>mmol/L</td></tr><tr><td>Cholesterol [Mass/volume] in Serum or Plasma</td><td><strong>282.1 H</strong></td><td>125 - 200</td><td>mg/dL</td></tr><tr><td>Triglyceride [Mass/volume] in Serum or Plasma</td><td>117.1</td><td>40 - 150</td><td>mg/dL</td></tr><tr><td>Cholesterol in LDL [Mass/volume] in Serum or Plasma by Direct assay</td><td><strong>210.1 H</strong></td><td>0 - 190</td><td>mg/dL</td></tr><tr><td>Cholesterol in HDL [Mass/volume] in Serum or Plasma</td><td>48.6</td><td>40 - 60</td><td>mg/dL</td></tr></tbody></table></div>"
                },
                "title": "Chemistry"
              }
            ],
            "title": "Laboratory Report"
          },
          {
            "text": {
              "status": "generated",
              "div": "<div xmlns=\"http://www.w3.org/1999/xhtml\"><h3>Annotation</h3><table class=\"hl7__eu__lab__report\"><tr><th>Conclusion and Recommendations based on this report and previous findings known to us</th></tr><tr><td>The patient shows elevated HbA1c, indicating suboptimal long-term glucose control, and significantly increased total and LDL cholesterol, suggesting heightened cardiovascular risk. Other parameters, including renal function, electrolytes, and triglycerides, are within normal limits. Recommend further evaluation and management of dyslipidemia and glycemic control.</td></tr></table></div>"
            },
            "code": {
              "coding": [
                {
                  "system": "http://loinc.org",
                  "code": "48767-8",
                  "display": "Annotation comment"
                }
              ]
            },
            "title": "Annotation comment"
          }
        ],
        "status": "final",
        "subject": {
          "reference": "urn:uuid:4f7dcc3d-a272-43df-9cde-7f3c151b98b8",
          "display": "Leonhard Köhler"
        },
        "date": "2017-08-18T04:48:23Z",
        "title": "Laboratory Report",
        "confidentiality": "N"
      }
    },
    {
      "fullUrl": "urn:uuid:e31a4d1f-5050-4cd4-aaf4-ec34620cc5bf",
      "resource": {
        "resourceType": "DiagnosticReport",
        "id": "e31a4d1f-5050-4cd4-aaf4-ec34620cc5bf",
        "meta": {
          "profile": [
            "http://hl7.eu/fhir/laboratory/StructureDefinition/DiagnosticReport-eu-lab"
          ]
        },
        "identifier": [
          {
            "assigner": {
              "display": "HL7 Europe"
            },
            "system": "urn:oid:2.16.840.1.113883.2.51.999",
            "value": "5b057458-8121-40dc-9463-e127d9e686aa"
          }
        ],
        "extension": [
          {
            "url": "http://hl7.org/fhir/5.0/StructureDefinition/extension-DiagnosticReport.composition",
            "valueReference": {
              "reference": "urn:uuid:906341e5-1aaf-4d19-a042-6e118b583478"
            }
          }
        ],
        "category": [
          {
            "coding": [
              {
                "code": "26436-6",
                "system": "http://loinc.org",
                "display": "Laboratory studies (set)"
              }
            ]
          }
        ],
        "specimen": [
          {
            "reference": "urn:uuid:2707951c-ef65-4ac8-95c6-401818b6381f"
          },
          {
            "reference": "urn:uuid:0ea8c9cf-797e-45ec-9d89-5aa3093509c4"
          }
        ],
        "result": [
          {
            "reference": "urn:uuid:d6366a9a-560a-45bc-8aed-f21e5cba3992"
          },
          {
            "reference": "urn:uuid:8e28bcef-1739-464a-8c69-b6e38895a3f2"
          },
          {
            "reference": "urn:uuid:42eaff65-e3b6-4282-8638-8f0d07b8f09e"
          },
          {
            "reference": "urn:uuid:b63f163d-d701-4181-b3fb-ebdf02be18e2"
          },
          {
            "reference": "urn:uuid:33eada45-dd89-4356-8a1c-6b8e7e300e86"
          },
          {
            "reference": "urn:uuid:5741f949-e19e-4b37-8360-5ae4abeac1fc"
          },
          {
            "reference": "urn:uuid:3987b875-1eaf-4f02-8ac2-ee74fdf88779"
          },
          {
            "reference": "urn:uuid:cf474f92-cdf9-4a08-8dfe-cccaa6e927a6"
          },
          {
            "reference": "urn:uuid:279e70aa-3f10-48ea-af7a-116f0715e627"
          },
          {
            "reference": "urn:uuid:8144c9c4-abb8-4f48-81e5-2f09c75fced1"
          },
          {
            "reference": "urn:uuid:a01f3145-7b38-4f30-bcb0-b113571198fd"
          },
          {
            "reference": "urn:uuid:70845046-d964-440e-baeb-013c2d5738d5"
          },
          {
            "reference": "urn:uuid:1614e0ce-c373-4a43-9d9c-f01875d44658"
          }
        ],
        "status": "registered",
        "code": {
          "coding": [
            {
              "code": "11502-2",
              "system": "http://loinc.org",
              "display": "Laboratory report"
            }
          ]
        },
        "subject": {
          "reference": "urn:uuid:4f7dcc3d-a272-43df-9cde-7f3c151b98b8",
          "display": "Leonhard Köhler"
        }
      }
    },
    {
      "fullUrl": "urn:uuid:4f7dcc3d-a272-43df-9cde-7f3c151b98b8",
      "resource": {
        "resourceType": "Patient",
        "id": "4f7dcc3d-a272-43df-9cde-7f3c151b98b8",
        "meta": {
          "security": [
            {
              "system": "http://terminology.hl7.org/CodeSystem/v3-ActReason",
              "code": "HTEST"
            },
            {
              "system": "http://terminology.hl7.org/CodeSystem/v3-ActReason",
              "code": "TRAIN"
            }
          ],
          "tag": [
            {
              "system": "https://synderai.net/fhir/CodeSystem/tags",
              "code": "synthetic",
              "display": "SYNDERAI Synthetic data"
            }
          ],
          "profile": [
            "http://hl7.eu/fhir/base/StructureDefinition/patient-eu-core"
          ]
        },
        "identifier": [
          {
            "type": {
              "coding": [
                {
                  "code": "PT",
                  "system": "http://terminology.hl7.org/CodeSystem/v2-0203"
                }
              ]
            },
            "system": "http://ec.europa.eu/identifier/eci",
            "value": "5321-442678-4"
          },
          {
            "type": {
              "coding": [
                {
                  "code": "MR",
                  "system": "http://terminology.hl7.org/CodeSystem/v2-0203"
                }
              ]
            },
            "system": "http://local.setting.eu/identifier",
            "value": "ffa9f0d8-c016-d46c-e666-000f53715b47"
          }
        ],
        "name": [
          {
            "family": "Köhler"
          },
          {
            "given": [
              "Leonhard"
            ]
          },
          {
            "text": "Leonhard Köhler"
          }
        ],
        "address": [
          {
            "line": [
              "Henckweg 97/34"
            ],
            "use": "home",
            "type": "physical",
            "postalCode": "87629",
            "city": "Füssen",
            "country": "Germany"
          }
        ],
        "telecom": [
          {
            "system": "phone",
            "value": "00028839855"
          }
        ],
        "extension": [
          {
            "url": "http://hl7.org/fhir/StructureDefinition/patient-nationality",
            "valueCodeableConcept": {
              "coding": [
                {
                  "code": "DE",
                  "system": "http://hl7.org/fhir/ValueSet/country"
                }
              ]
            }
          }
        ],
        "text": {
          "status": "generated",
          "div": "<div xmlns=\"http://www.w3.org/1999/xhtml\"><table class=\"hl7__ips\"><tr><td>Leonhard Köhler</td><td>male</td><td>19-Dec-1949</td></tr></table></div>"
        },
        "gender": "male",
        "birthDate": "1949-12-19"
      }
    },
    {
      "fullUrl": "urn:uuid:b864ceb4-82ca-4f16-ad7f-45bb1e941623",
      "resource": {
        "resourceType": "ServiceRequest",
        "id": "b864ceb4-82ca-4f16-ad7f-45bb1e941623",
        "meta": {
          "profile": [
            "http://hl7.eu/fhir/laboratory/StructureDefinition/ServiceRequest-eu-lab"
          ]
        },
        "identifier": [
          {
            "system": "http://example.org",
            "value": "17302dff-9adb-4a7a-ba2d-84c8b7264d82"
          }
        ],
        "specimen": [
          {
            "reference": "urn:uuid:2707951c-ef65-4ac8-95c6-401818b6381f"
          },
          {
            "reference": "urn:uuid:0ea8c9cf-797e-45ec-9d89-5aa3093509c4"
          }
        ],
        "reasonCode": [
          {
            "coding": [
              {
                "code": "55822004",
                "system": "http://snomed.info/sct",
                "display": "Hyperlipidemia"
              }
            ]
          },
          {
            "coding": [
              {
                "code": "414545008",
                "system": "http://snomed.info/sct",
                "display": "Ischemic heart disease"
              }
            ]
          },
          {
            "coding": [
              {
                "code": "59621000",
                "system": "http://snomed.info/sct",
                "display": "Essential hypertension"
              }
            ]
          },
          {
            "coding": [
              {
                "code": "239873007",
                "system": "http://snomed.info/sct",
                "display": "Osteoarthritis of knee"
              }
            ]
          },
          {
            "coding": [
              {
                "code": "271737000",
                "system": "http://snomed.info/sct",
                "display": "Anemia"
              }
            ]
          },
          {
            "coding": [
              {
                "code": "15777000",
                "system": "http://snomed.info/sct",
                "display": "Prediabetes"
              }
            ]
          }
        ],
        "status": "active",
        "intent": "order",
        "code": {
          "coding": [
            {
              "code": "108252007",
              "system": "http://snomed.info/sct",
              "display": "Laboratory procedure"
            }
          ]
        },
        "subject": {
          "reference": "urn:uuid:4f7dcc3d-a272-43df-9cde-7f3c151b98b8",
          "display": "Leonhard Köhler"
        },
        "requester": {
          "reference": "urn:uuid:97dd09ee-ca7f-4659-adb2-c60896f691aa"
        }
      }
    },
    {
      "fullUrl": "urn:uuid:97dd09ee-ca7f-4659-adb2-c60896f691aa",
      "resource": {
        "resourceType": "PractitionerRole",
        "id": "97dd09ee-ca7f-4659-adb2-c60896f691aa",
        "meta": {
          "profile": [
            "http://hl7.eu/fhir/base/StructureDefinition/practitionerRole-eu"
          ]
        },
        "text": {
          "status": "generated",
          "div": "<div xmlns=\"http://www.w3.org/1999/xhtml\">Provider Role Id: 97dd09ee-ca7f-4659-adb2-c60896f691aa</div>"
        },
        "organization": {
          "reference": "urn:uuid:8c23a93f-b86d-4043-b4e3-3ebec11a00b7"
        }
      }
    },
    {
      "fullUrl": "urn:uuid:8c23a93f-b86d-4043-b4e3-3ebec11a00b7",
      "resource": {
        "resourceType": "Organization",
        "id": "8c23a93f-b86d-4043-b4e3-3ebec11a00b7",
        "meta": {
          "profile": [
            "http://hl7.eu/fhir/base/StructureDefinition/organization-eu"
          ]
        },
        "identifier": [
          {
            "assigner": {
              "display": "HL7 Europe"
            },
            "system": "urn:oid:2.16.840.1.113883.2.51.999",
            "value": "4de61659-c89b-4134-b129-97a1c706be62"
          }
        ],
        "address": [
          {
            "line": [
              "Feistlestraße 2"
            ],
            "city": "Füssen",
            "postalCode": "87629",
            "country": "Germany"
          }
        ],
        "text": {
          "status": "generated",
          "div": "<div xmlns=\"http://www.w3.org/1999/xhtml\">Provider Organization: hier ist kein Ärztehaus</div>"
        },
        "name": "hier ist kein Ärztehaus"
      }
    },
    {
      "fullUrl": "urn:uuid:2707951c-ef65-4ac8-95c6-401818b6381f",
      "resource": {
        "resourceType": "Specimen",
        "id": "2707951c-ef65-4ac8-95c6-401818b6381f",
        "meta": {
          "profile": [
            "http://hl7.eu/fhir/laboratory/StructureDefinition/Specimen-eu-lab"
          ]
        },
        "collection": {
          "collectedDateTime": "2017-08-18"
        },
        "text": {
          "status": "generated",
          "div": "<div xmlns=\"http://www.w3.org/1999/xhtml\"><table class=\"hl7__eu__lab__report\"><tr><th>Specimen</th><th>Collection Date</th></tr><tr><td>Whole blood specimen (specimen)</td><td><span class=\"nb\">18-Aug-2017</span></td></tr></table></div>"
        },
        "type": {
          "coding": [
            {
              "code": "258580003",
              "system": "http://snomed.info/sct",
              "display": "Whole blood specimen (specimen)"
            }
          ]
        }
      }
    },
    {
      "fullUrl": "urn:uuid:0ea8c9cf-797e-45ec-9d89-5aa3093509c4",
      "resource": {
        "resourceType": "Specimen",
        "id": "0ea8c9cf-797e-45ec-9d89-5aa3093509c4",
        "meta": {
          "profile": [
            "http://hl7.eu/fhir/laboratory/StructureDefinition/Specimen-eu-lab"
          ]
        },
        "collection": {
          "collectedDateTime": "2017-08-18"
        },
        "text": {
          "status": "generated",
          "div": "<div xmlns=\"http://www.w3.org/1999/xhtml\"><table class=\"hl7__eu__lab__report\"><tr><th>Specimen</th><th>Collection Date</th></tr><tr><td>Acellular blood (serum or plasma) specimen</td><td><span class=\"nb\">18-Aug-2017</span></td></tr></table></div>"
        },
        "type": {
          "coding": [
            {
              "code": "122592007",
              "system": "http://snomed.info/sct",
              "display": "Acellular blood (serum or plasma) specimen"
            }
          ]
        }
      }
    },
    {
      "fullUrl": "urn:uuid:d6366a9a-560a-45bc-8aed-f21e5cba3992",
      "resource": {
        "resourceType": "Observation",
        "id": "d6366a9a-560a-45bc-8aed-f21e5cba3992",
        "meta": {
          "profile": [
            "http://hl7.eu/fhir/laboratory/StructureDefinition/Observation-resultslab-eu-lab"
          ]
        },
        "performer": [
          {
            "display": "The Central European Lab"
          }
        ],
        "category": [
          {
            "coding": [
              {
                "system": "http://terminology.hl7.org/CodeSystem/observation-category",
                "code": "laboratory"
              }
            ]
          }
        ],
        "code": {
          "coding": [
            {
              "code": "4548-4",
              "system": "http://loinc.org",
              "display": "Hemoglobin A1c/Hemoglobin.total in Blood"
            }
          ],
          "text": "Hemoglobin A1c/Hemoglobin.total in Blood"
        },
        "valueQuantity": {
          "system": "http://unitsofmeasure.org",
          "value": 6,
          "unit": "%",
          "code": "%"
        },
        "referenceRange": [
          {
            "low": {
              "value": 4.8,
              "code": "%",
              "system": "http://unitsofmeasure.org"
            }
          },
          {
            "high": {
              "value": 5.7,
              "code": "%",
              "system": "http://unitsofmeasure.org"
            }
          }
        ],
        "interpretation": [
          {
            "coding": [
              {
                "code": "H",
                "system": "http://terminology.hl7.org/CodeSystem/v3-ObservationInterpretation",
                "display": "High"
              }
            ]
          }
        ],
        "text": {
          "status": "generated",
          "div": "<div xmlns=\"http://www.w3.org/1999/xhtml\"><table class=\"hl7__eu__lab__report\"><tr><th>Test</th><th>18-Aug-2017</th><th>Reference&#xA0;Range</th><th>Unit</th></tr><tr><td>Hemoglobin A1c/Hemoglobin.total in Blood</td><td>6.0</td><td>4.8 - 5.7</td><td>H</td><td>%</td></tr></table></div>"
        },
        "status": "final",
        "subject": {
          "reference": "urn:uuid:4f7dcc3d-a272-43df-9cde-7f3c151b98b8",
          "display": "Leonhard Köhler"
        },
        "effectiveDateTime": "2017-08-18T02:48:23Z",
        "specimen": {
          "reference": "urn:uuid:2707951c-ef65-4ac8-95c6-401818b6381f"
        }
      }
    },
    {
      "fullUrl": "urn:uuid:8e28bcef-1739-464a-8c69-b6e38895a3f2",
      "resource": {
        "resourceType": "Observation",
        "id": "8e28bcef-1739-464a-8c69-b6e38895a3f2",
        "meta": {
          "profile": [
            "http://hl7.eu/fhir/laboratory/StructureDefinition/Observation-resultslab-eu-lab"
          ]
        },
        "performer": [
          {
            "display": "The Central European Lab"
          }
        ],
        "category": [
          {
            "coding": [
              {
                "system": "http://terminology.hl7.org/CodeSystem/observation-category",
                "code": "laboratory"
              }
            ]
          }
        ],
        "code": {
          "coding": [
            {
              "code": "2339-0",
              "system": "http://loinc.org",
              "display": "Glucose [Mass/volume] in Blood"
            }
          ],
          "text": "Glucose [Mass/volume] in Blood"
        },
        "valueQuantity": {
          "system": "http://unitsofmeasure.org",
          "value": 93,
          "unit": "mg/dL",
          "code": "mg/dL"
        },
        "referenceRange": [
          {
            "low": {
              "value": 70,
              "code": "mg/dL",
              "system": "http://unitsofmeasure.org"
            }
          },
          {
            "high": {
              "value": 140,
              "code": "mg/dL",
              "system": "http://unitsofmeasure.org"
            }
          }
        ],
        "text": {
          "status": "generated",
          "div": "<div xmlns=\"http://www.w3.org/1999/xhtml\"><table class=\"hl7__eu__lab__report\"><tr><th>Test</th><th>18-Aug-2017</th><th>Reference&#xA0;Range</th><th>Unit</th></tr><tr><td>Glucose [Mass/volume] in Blood</td><td>93.0</td><td>70 - 140</td><td></td><td>mg/dL</td></tr></table></div>"
        },
        "status": "final",
        "subject": {
          "reference": "urn:uuid:4f7dcc3d-a272-43df-9cde-7f3c151b98b8",
          "display": "Leonhard Köhler"
        },
        "effectiveDateTime": "2017-08-18T02:48:23Z",
        "specimen": {
          "reference": "urn:uuid:2707951c-ef65-4ac8-95c6-401818b6381f"
        }
      }
    },
    {
      "fullUrl": "urn:uuid:42eaff65-e3b6-4282-8638-8f0d07b8f09e",
      "resource": {
        "resourceType": "Observation",
        "id": "42eaff65-e3b6-4282-8638-8f0d07b8f09e",
        "meta": {
          "profile": [
            "http://hl7.eu/fhir/laboratory/StructureDefinition/Observation-resultslab-eu-lab"
          ]
        },
        "performer": [
          {
            "display": "The Central European Lab"
          }
        ],
        "category": [
          {
            "coding": [
              {
                "system": "http://terminology.hl7.org/CodeSystem/observation-category",
                "code": "laboratory"
              }
            ]
          }
        ],
        "code": {
          "coding": [
            {
              "code": "6299-2",
              "system": "http://loinc.org",
              "display": "Urea nitrogen [Mass/volume] in Blood"
            }
          ],
          "text": "Urea nitrogen [Mass/volume] in Blood"
        },
        "valueQuantity": {
          "system": "http://unitsofmeasure.org",
          "value": 15.1,
          "unit": "mg/dL",
          "code": "mg/dL"
        },
        "referenceRange": [
          {
            "low": {
              "value": 7,
              "code": "mg/dL",
              "system": "http://unitsofmeasure.org"
            }
          },
          {
            "high": {
              "value": 20,
              "code": "mg/dL",
              "system": "http://unitsofmeasure.org"
            }
          }
        ],
        "text": {
          "status": "generated",
          "div": "<div xmlns=\"http://www.w3.org/1999/xhtml\"><table class=\"hl7__eu__lab__report\"><tr><th>Test</th><th>18-Aug-2017</th><th>Reference&#xA0;Range</th><th>Unit</th></tr><tr><td>Urea nitrogen [Mass/volume] in Blood</td><td>15.1</td><td>7 - 20</td><td></td><td>mg/dL</td></tr></table></div>"
        },
        "status": "final",
        "subject": {
          "reference": "urn:uuid:4f7dcc3d-a272-43df-9cde-7f3c151b98b8",
          "display": "Leonhard Köhler"
        },
        "effectiveDateTime": "2017-08-18T02:48:23Z",
        "specimen": {
          "reference": "urn:uuid:2707951c-ef65-4ac8-95c6-401818b6381f"
        }
      }
    },
    {
      "fullUrl": "urn:uuid:b63f163d-d701-4181-b3fb-ebdf02be18e2",
      "resource": {
        "resourceType": "Observation",
        "id": "b63f163d-d701-4181-b3fb-ebdf02be18e2",
        "meta": {
          "profile": [
            "http://hl7.eu/fhir/laboratory/StructureDefinition/Observation-resultslab-eu-lab"
          ]
        },
        "performer": [
          {
            "display": "The Central European Lab"
          }
        ],
        "category": [
          {
            "coding": [
              {
                "system": "http://terminology.hl7.org/CodeSystem/observation-category",
                "code": "laboratory"
              }
            ]
          }
        ],
        "code": {
          "coding": [
            {
              "code": "38483-4",
              "system": "http://loinc.org",
              "display": "Creatinine [Mass/volume] in Blood"
            }
          ],
          "text": "Creatinine [Mass/volume] in Blood"
        },
        "valueQuantity": {
          "system": "http://unitsofmeasure.org",
          "value": 1,
          "unit": "mg/dL",
          "code": "mg/dL"
        },
        "referenceRange": [
          {
            "low": {
              "value": 0.6,
              "code": "mg/dL",
              "system": "http://unitsofmeasure.org"
            }
          },
          {
            "high": {
              "value": 1.3,
              "code": "mg/dL",
              "system": "http://unitsofmeasure.org"
            }
          }
        ],
        "text": {
          "status": "generated",
          "div": "<div xmlns=\"http://www.w3.org/1999/xhtml\"><table class=\"hl7__eu__lab__report\"><tr><th>Test</th><th>18-Aug-2017</th><th>Reference&#xA0;Range</th><th>Unit</th></tr><tr><td>Creatinine [Mass/volume] in Blood</td><td>1.0</td><td>0.6 - 1.3</td><td></td><td>mg/dL</td></tr></table></div>"
        },
        "status": "final",
        "subject": {
          "reference": "urn:uuid:4f7dcc3d-a272-43df-9cde-7f3c151b98b8",
          "display": "Leonhard Köhler"
        },
        "effectiveDateTime": "2017-08-18T02:48:23Z",
        "specimen": {
          "reference": "urn:uuid:2707951c-ef65-4ac8-95c6-401818b6381f"
        }
      }
    },
    {
      "fullUrl": "urn:uuid:33eada45-dd89-4356-8a1c-6b8e7e300e86",
      "resource": {
        "resourceType": "Observation",
        "id": "33eada45-dd89-4356-8a1c-6b8e7e300e86",
        "meta": {
          "profile": [
            "http://hl7.eu/fhir/laboratory/StructureDefinition/Observation-resultslab-eu-lab"
          ]
        },
        "performer": [
          {
            "display": "The Central European Lab"
          }
        ],
        "category": [
          {
            "coding": [
              {
                "system": "http://terminology.hl7.org/CodeSystem/observation-category",
                "code": "laboratory"
              }
            ]
          }
        ],
        "code": {
          "coding": [
            {
              "code": "49765-1",
              "system": "http://loinc.org",
              "display": "Calcium [Mass/volume] in Blood"
            }
          ],
          "text": "Calcium [Mass/volume] in Blood"
        },
        "valueQuantity": {
          "system": "http://unitsofmeasure.org",
          "value": 8.6,
          "unit": "mg/dL",
          "code": "mg/dL"
        },
        "referenceRange": [
          {
            "low": {
              "value": 8.5,
              "code": "mg/dL",
              "system": "http://unitsofmeasure.org"
            }
          },
          {
            "high": {
              "value": 10.5,
              "code": "mg/dL",
              "system": "http://unitsofmeasure.org"
            }
          }
        ],
        "text": {
          "status": "generated",
          "div": "<div xmlns=\"http://www.w3.org/1999/xhtml\"><table class=\"hl7__eu__lab__report\"><tr><th>Test</th><th>18-Aug-2017</th><th>Reference&#xA0;Range</th><th>Unit</th></tr><tr><td>Calcium [Mass/volume] in Blood</td><td>8.6</td><td>8.5 - 10.5</td><td></td><td>mg/dL</td></tr></table></div>"
        },
        "status": "final",
        "subject": {
          "reference": "urn:uuid:4f7dcc3d-a272-43df-9cde-7f3c151b98b8",
          "display": "Leonhard Köhler"
        },
        "effectiveDateTime": "2017-08-18T02:48:23Z",
        "specimen": {
          "reference": "urn:uuid:2707951c-ef65-4ac8-95c6-401818b6381f"
        }
      }
    },
    {
      "fullUrl": "urn:uuid:5741f949-e19e-4b37-8360-5ae4abeac1fc",
      "resource": {
        "resourceType": "Observation",
        "id": "5741f949-e19e-4b37-8360-5ae4abeac1fc",
        "meta": {
          "profile": [
            "http://hl7.eu/fhir/laboratory/StructureDefinition/Observation-resultslab-eu-lab"
          ]
        },
        "performer": [
          {
            "display": "The Central European Lab"
          }
        ],
        "category": [
          {
            "coding": [
              {
                "system": "http://terminology.hl7.org/CodeSystem/observation-category",
                "code": "laboratory"
              }
            ]
          }
        ],
        "code": {
          "coding": [
            {
              "code": "2947-0",
              "system": "http://loinc.org",
              "display": "Sodium [Moles/volume] in Blood"
            }
          ],
          "text": "Sodium [Moles/volume] in Blood"
        },
        "valueQuantity": {
          "system": "http://unitsofmeasure.org",
          "value": 143.6,
          "unit": "mmol/L",
          "code": "mmol/L"
        },
        "referenceRange": [
          {
            "low": {
              "value": 135,
              "code": "mmol/L",
              "system": "http://unitsofmeasure.org"
            }
          },
          {
            "high": {
              "value": 145,
              "code": "mmol/L",
              "system": "http://unitsofmeasure.org"
            }
          }
        ],
        "text": {
          "status": "generated",
          "div": "<div xmlns=\"http://www.w3.org/1999/xhtml\"><table class=\"hl7__eu__lab__report\"><tr><th>Test</th><th>18-Aug-2017</th><th>Reference&#xA0;Range</th><th>Unit</th></tr><tr><td>Sodium [Moles/volume] in Blood</td><td>143.6</td><td>135 - 145</td><td></td><td>mmol/L</td></tr></table></div>"
        },
        "status": "final",
        "subject": {
          "reference": "urn:uuid:4f7dcc3d-a272-43df-9cde-7f3c151b98b8",
          "display": "Leonhard Köhler"
        },
        "effectiveDateTime": "2017-08-18T02:48:23Z",
        "specimen": {
          "reference": "urn:uuid:2707951c-ef65-4ac8-95c6-401818b6381f"
        }
      }
    },
    {
      "fullUrl": "urn:uuid:3987b875-1eaf-4f02-8ac2-ee74fdf88779",
      "resource": {
        "resourceType": "Observation",
        "id": "3987b875-1eaf-4f02-8ac2-ee74fdf88779",
        "meta": {
          "profile": [
            "http://hl7.eu/fhir/laboratory/StructureDefinition/Observation-resultslab-eu-lab"
          ]
        },
        "performer": [
          {
            "display": "The Central European Lab"
          }
        ],
        "category": [
          {
            "coding": [
              {
                "system": "http://terminology.hl7.org/CodeSystem/observation-category",
                "code": "laboratory"
              }
            ]
          }
        ],
        "code": {
          "coding": [
            {
              "code": "6298-4",
              "system": "http://loinc.org",
              "display": "Potassium [Moles/volume] in Blood"
            }
          ],
          "text": "Potassium [Moles/volume] in Blood"
        },
        "valueQuantity": {
          "system": "http://unitsofmeasure.org",
          "value": 4.1,
          "unit": "mmol/L",
          "code": "mmol/L"
        },
        "referenceRange": [
          {
            "low": {
              "value": 3.5,
              "code": "mmol/L",
              "system": "http://unitsofmeasure.org"
            }
          },
          {
            "high": {
              "value": 5.1,
              "code": "mmol/L",
              "system": "http://unitsofmeasure.org"
            }
          }
        ],
        "text": {
          "status": "generated",
          "div": "<div xmlns=\"http://www.w3.org/1999/xhtml\"><table class=\"hl7__eu__lab__report\"><tr><th>Test</th><th>18-Aug-2017</th><th>Reference&#xA0;Range</th><th>Unit</th></tr><tr><td>Potassium [Moles/volume] in Blood</td><td>4.1</td><td>3.5 - 5.1</td><td></td><td>mmol/L</td></tr></table></div>"
        },
        "status": "final",
        "subject": {
          "reference": "urn:uuid:4f7dcc3d-a272-43df-9cde-7f3c151b98b8",
          "display": "Leonhard Köhler"
        },
        "effectiveDateTime": "2017-08-18T02:48:23Z",
        "specimen": {
          "reference": "urn:uuid:2707951c-ef65-4ac8-95c6-401818b6381f"
        }
      }
    },
    {
      "fullUrl": "urn:uuid:cf474f92-cdf9-4a08-8dfe-cccaa6e927a6",
      "resource": {
        "resourceType": "Observation",
        "id": "cf474f92-cdf9-4a08-8dfe-cccaa6e927a6",
        "meta": {
          "profile": [
            "http://hl7.eu/fhir/laboratory/StructureDefinition/Observation-resultslab-eu-lab"
          ]
        },
        "performer": [
          {
            "display": "The Central European Lab"
          }
        ],
        "category": [
          {
            "coding": [
              {
                "system": "http://terminology.hl7.org/CodeSystem/observation-category",
                "code": "laboratory"
              }
            ]
          }
        ],
        "code": {
          "coding": [
            {
              "code": "2069-3",
              "system": "http://loinc.org",
              "display": "Chloride [Moles/volume] in Blood"
            }
          ],
          "text": "Chloride [Moles/volume] in Blood"
        },
        "valueQuantity": {
          "system": "http://unitsofmeasure.org",
          "value": 106.5,
          "unit": "mmol/L",
          "code": "mmol/L"
        },
        "referenceRange": [
          {
            "low": {
              "value": 98,
              "code": "mmol/L",
              "system": "http://unitsofmeasure.org"
            }
          },
          {
            "high": {
              "value": 108,
              "code": "mmol/L",
              "system": "http://unitsofmeasure.org"
            }
          }
        ],
        "text": {
          "status": "generated",
          "div": "<div xmlns=\"http://www.w3.org/1999/xhtml\"><table class=\"hl7__eu__lab__report\"><tr><th>Test</th><th>18-Aug-2017</th><th>Reference&#xA0;Range</th><th>Unit</th></tr><tr><td>Chloride [Moles/volume] in Blood</td><td>106.5</td><td>98 - 108</td><td></td><td>mmol/L</td></tr></table></div>"
        },
        "status": "final",
        "subject": {
          "reference": "urn:uuid:4f7dcc3d-a272-43df-9cde-7f3c151b98b8",
          "display": "Leonhard Köhler"
        },
        "effectiveDateTime": "2017-08-18T02:48:23Z",
        "specimen": {
          "reference": "urn:uuid:2707951c-ef65-4ac8-95c6-401818b6381f"
        }
      }
    },
    {
      "fullUrl": "urn:uuid:279e70aa-3f10-48ea-af7a-116f0715e627",
      "resource": {
        "resourceType": "Observation",
        "id": "279e70aa-3f10-48ea-af7a-116f0715e627",
        "meta": {
          "profile": [
            "http://hl7.eu/fhir/laboratory/StructureDefinition/Observation-resultslab-eu-lab"
          ]
        },
        "performer": [
          {
            "display": "The Central European Lab"
          }
        ],
        "category": [
          {
            "coding": [
              {
                "system": "http://terminology.hl7.org/CodeSystem/observation-category",
                "code": "laboratory"
              }
            ]
          }
        ],
        "code": {
          "coding": [
            {
              "code": "20565-8",
              "system": "http://loinc.org",
              "display": "Carbon dioxide, total [Moles/volume] in Blood"
            }
          ],
          "text": "Carbon dioxide, total [Moles/volume] in Blood"
        },
        "valueQuantity": {
          "system": "http://unitsofmeasure.org",
          "value": 26.1,
          "unit": "mmol/L",
          "code": "mmol/L"
        },
        "referenceRange": [
          {
            "low": {
              "value": 22,
              "code": "mmol/L",
              "system": "http://unitsofmeasure.org"
            }
          },
          {
            "high": {
              "value": 32,
              "code": "mmol/L",
              "system": "http://unitsofmeasure.org"
            }
          }
        ],
        "text": {
          "status": "generated",
          "div": "<div xmlns=\"http://www.w3.org/1999/xhtml\"><table class=\"hl7__eu__lab__report\"><tr><th>Test</th><th>18-Aug-2017</th><th>Reference&#xA0;Range</th><th>Unit</th></tr><tr><td>Carbon dioxide, total [Moles/volume] in Blood</td><td>26.1</td><td>22 - 32</td><td></td><td>mmol/L</td></tr></table></div>"
        },
        "status": "final",
        "subject": {
          "reference": "urn:uuid:4f7dcc3d-a272-43df-9cde-7f3c151b98b8",
          "display": "Leonhard Köhler"
        },
        "effectiveDateTime": "2017-08-18T02:48:23Z",
        "specimen": {
          "reference": "urn:uuid:2707951c-ef65-4ac8-95c6-401818b6381f"
        }
      }
    },
    {
      "fullUrl": "urn:uuid:8144c9c4-abb8-4f48-81e5-2f09c75fced1",
      "resource": {
        "resourceType": "Observation",
        "id": "8144c9c4-abb8-4f48-81e5-2f09c75fced1",
        "meta": {
          "profile": [
            "http://hl7.eu/fhir/laboratory/StructureDefinition/Observation-resultslab-eu-lab"
          ]
        },
        "performer": [
          {
            "display": "The Central European Lab"
          }
        ],
        "category": [
          {
            "coding": [
              {
                "system": "http://terminology.hl7.org/CodeSystem/observation-category",
                "code": "laboratory"
              }
            ]
          }
        ],
        "code": {
          "coding": [
            {
              "code": "2093-3",
              "system": "http://loinc.org",
              "display": "Cholesterol [Mass/volume] in Serum or Plasma"
            }
          ],
          "text": "Cholesterol [Mass/volume] in Serum or Plasma"
        },
        "valueQuantity": {
          "system": "http://unitsofmeasure.org",
          "value": 282.1,
          "unit": "mg/dL",
          "code": "mg/dL"
        },
        "referenceRange": [
          {
            "low": {
              "value": 125,
              "code": "mg/dL",
              "system": "http://unitsofmeasure.org"
            }
          },
          {
            "high": {
              "value": 200,
              "code": "mg/dL",
              "system": "http://unitsofmeasure.org"
            }
          }
        ],
        "interpretation": [
          {
            "coding": [
              {
                "code": "H",
                "system": "http://terminology.hl7.org/CodeSystem/v3-ObservationInterpretation",
                "display": "High"
              }
            ]
          }
        ],
        "text": {
          "status": "generated",
          "div": "<div xmlns=\"http://www.w3.org/1999/xhtml\"><table class=\"hl7__eu__lab__report\"><tr><th>Test</th><th>18-Aug-2017</th><th>Reference&#xA0;Range</th><th>Unit</th></tr><tr><td>Cholesterol [Mass/volume] in Serum or Plasma</td><td>282.1</td><td>125 - 200</td><td>H</td><td>mg/dL</td></tr></table></div>"
        },
        "status": "final",
        "subject": {
          "reference": "urn:uuid:4f7dcc3d-a272-43df-9cde-7f3c151b98b8",
          "display": "Leonhard Köhler"
        },
        "effectiveDateTime": "2017-08-18T02:48:23Z",
        "specimen": {
          "reference": "urn:uuid:0ea8c9cf-797e-45ec-9d89-5aa3093509c4"
        }
      }
    },
    {
      "fullUrl": "urn:uuid:a01f3145-7b38-4f30-bcb0-b113571198fd",
      "resource": {
        "resourceType": "Observation",
        "id": "a01f3145-7b38-4f30-bcb0-b113571198fd",
        "meta": {
          "profile": [
            "http://hl7.eu/fhir/laboratory/StructureDefinition/Observation-resultslab-eu-lab"
          ]
        },
        "performer": [
          {
            "display": "The Central European Lab"
          }
        ],
        "category": [
          {
            "coding": [
              {
                "system": "http://terminology.hl7.org/CodeSystem/observation-category",
                "code": "laboratory"
              }
            ]
          }
        ],
        "code": {
          "coding": [
            {
              "code": "2571-8",
              "system": "http://loinc.org",
              "display": "Triglyceride [Mass/volume] in Serum or Plasma"
            }
          ],
          "text": "Triglyceride [Mass/volume] in Serum or Plasma"
        },
        "valueQuantity": {
          "system": "http://unitsofmeasure.org",
          "value": 117.1,
          "unit": "mg/dL",
          "code": "mg/dL"
        },
        "referenceRange": [
          {
            "low": {
              "value": 40,
              "code": "mg/dL",
              "system": "http://unitsofmeasure.org"
            }
          },
          {
            "high": {
              "value": 150,
              "code": "mg/dL",
              "system": "http://unitsofmeasure.org"
            }
          }
        ],
        "text": {
          "status": "generated",
          "div": "<div xmlns=\"http://www.w3.org/1999/xhtml\"><table class=\"hl7__eu__lab__report\"><tr><th>Test</th><th>18-Aug-2017</th><th>Reference&#xA0;Range</th><th>Unit</th></tr><tr><td>Triglyceride [Mass/volume] in Serum or Plasma</td><td>117.1</td><td>40 - 150</td><td></td><td>mg/dL</td></tr></table></div>"
        },
        "status": "final",
        "subject": {
          "reference": "urn:uuid:4f7dcc3d-a272-43df-9cde-7f3c151b98b8",
          "display": "Leonhard Köhler"
        },
        "effectiveDateTime": "2017-08-18T02:48:23Z",
        "specimen": {
          "reference": "urn:uuid:0ea8c9cf-797e-45ec-9d89-5aa3093509c4"
        }
      }
    },
    {
      "fullUrl": "urn:uuid:70845046-d964-440e-baeb-013c2d5738d5",
      "resource": {
        "resourceType": "Observation",
        "id": "70845046-d964-440e-baeb-013c2d5738d5",
        "meta": {
          "profile": [
            "http://hl7.eu/fhir/laboratory/StructureDefinition/Observation-resultslab-eu-lab"
          ]
        },
        "performer": [
          {
            "display": "The Central European Lab"
          }
        ],
        "category": [
          {
            "coding": [
              {
                "system": "http://terminology.hl7.org/CodeSystem/observation-category",
                "code": "laboratory"
              }
            ]
          }
        ],
        "code": {
          "coding": [
            {
              "code": "18262-6",
              "system": "http://loinc.org",
              "display": "Cholesterol in LDL [Mass/volume] in Serum or Plasma by Direct assay"
            }
          ],
          "text": "Cholesterol in LDL [Mass/volume] in Serum or Plasma by Direct assay"
        },
        "valueQuantity": {
          "system": "http://unitsofmeasure.org",
          "value": 210.1,
          "unit": "mg/dL",
          "code": "mg/dL"
        },
        "referenceRange": [
          {
            "low": {
              "value": 0,
              "code": "mg/dL",
              "system": "http://unitsofmeasure.org"
            }
          },
          {
            "high": {
              "value": 190,
              "code": "mg/dL",
              "system": "http://unitsofmeasure.org"
            }
          }
        ],
        "interpretation": [
          {
            "coding": [
              {
                "code": "H",
                "system": "http://terminology.hl7.org/CodeSystem/v3-ObservationInterpretation",
                "display": "High"
              }
            ]
          }
        ],
        "text": {
          "status": "generated",
          "div": "<div xmlns=\"http://www.w3.org/1999/xhtml\"><table class=\"hl7__eu__lab__report\"><tr><th>Test</th><th>18-Aug-2017</th><th>Reference&#xA0;Range</th><th>Unit</th></tr><tr><td>Cholesterol in LDL [Mass/volume] in Serum or Plasma by Direct assay</td><td>210.1</td><td>0 - 190</td><td>H</td><td>mg/dL</td></tr></table></div>"
        },
        "status": "final",
        "subject": {
          "reference": "urn:uuid:4f7dcc3d-a272-43df-9cde-7f3c151b98b8",
          "display": "Leonhard Köhler"
        },
        "effectiveDateTime": "2017-08-18T02:48:23Z",
        "specimen": {
          "reference": "urn:uuid:0ea8c9cf-797e-45ec-9d89-5aa3093509c4"
        }
      }
    },
    {
      "fullUrl": "urn:uuid:1614e0ce-c373-4a43-9d9c-f01875d44658",
      "resource": {
        "resourceType": "Observation",
        "id": "1614e0ce-c373-4a43-9d9c-f01875d44658",
        "meta": {
          "profile": [
            "http://hl7.eu/fhir/laboratory/StructureDefinition/Observation-resultslab-eu-lab"
          ]
        },
        "performer": [
          {
            "display": "The Central European Lab"
          }
        ],
        "category": [
          {
            "coding": [
              {
                "system": "http://terminology.hl7.org/CodeSystem/observation-category",
                "code": "laboratory"
              }
            ]
          }
        ],
        "code": {
          "coding": [
            {
              "code": "2085-9",
              "system": "http://loinc.org",
              "display": "Cholesterol in HDL [Mass/volume] in Serum or Plasma"
            }
          ],
          "text": "Cholesterol in HDL [Mass/volume] in Serum or Plasma"
        },
        "valueQuantity": {
          "system": "http://unitsofmeasure.org",
          "value": 48.6,
          "unit": "mg/dL",
          "code": "mg/dL"
        },
        "referenceRange": [
          {
            "low": {
              "value": 40,
              "code": "mg/dL",
              "system": "http://unitsofmeasure.org"
            }
          },
          {
            "high": {
              "value": 60,
              "code": "mg/dL",
              "system": "http://unitsofmeasure.org"
            }
          }
        ],
        "text": {
          "status": "generated",
          "div": "<div xmlns=\"http://www.w3.org/1999/xhtml\"><table class=\"hl7__eu__lab__report\"><tr><th>Test</th><th>18-Aug-2017</th><th>Reference&#xA0;Range</th><th>Unit</th></tr><tr><td>Cholesterol in HDL [Mass/volume] in Serum or Plasma</td><td>48.6</td><td>40 - 60</td><td></td><td>mg/dL</td></tr></table></div>"
        },
        "status": "final",
        "subject": {
          "reference": "urn:uuid:4f7dcc3d-a272-43df-9cde-7f3c151b98b8",
          "display": "Leonhard Köhler"
        },
        "effectiveDateTime": "2017-08-18T02:48:23Z",
        "specimen": {
          "reference": "urn:uuid:0ea8c9cf-797e-45ec-9d89-5aa3093509c4"
        }
      }
    },
    {
      "fullUrl": "urn:uuid:bd4ab454-7626-4eff-bfdd-0eaa6abe5fed",
      "resource": {
        "resourceType": "Device",
        "id": "bd4ab454-7626-4eff-bfdd-0eaa6abe5fed",
        "deviceName": [
          {
            "name": "SYNDERAI Synthetic Generator",
            "type": "manufacturer-name"
          }
        ],
        "version": [
          {
            "value": "5.0"
          }
        ],
        "text": {
          "status": "generated",
          "div": "<div xmlns=\"http://www.w3.org/1999/xhtml\">SYNDERAI Synthetic Generator v5.0</div>"
        },
        "status": "active\"",
        "distinctIdentifier": "synderai-generator-50",
        "manufacturer": "SYNDERAI Project"
      }
    },
    {
      "fullUrl": "urn:uuid:95a60336-e39a-4717-b602-4ec5d13c9242",
      "resource": {
        "resourceType": "Provenance",
        "id": "95a60336-e39a-4717-b602-4ec5d13c9242",
        "target": [
          {
            "reference": "Patient/4f7dcc3d-a272-43df-9cde-7f3c151b98b8"
          },
          {
            "reference": "Bundle/ea49d59c-e556-4f7a-a905-87e4f6776aca"
          },
          {
            "reference": "Composition/c9806349-ff43-4f95-81ce-025fee43a4a0"
          },
          {
            "reference": "PractitionerRole/d021a889-4881-4439-b902-cee6887cea29"
          },
          {
            "reference": "Practitioner/4928acaf-9383-4af9-aabf-48bc04c28138"
          },
          {
            "reference": "PractitionerRole/97dd09ee-ca7f-4659-adb2-c60896f691aa"
          },
          {
            "reference": "Organization/8c23a93f-b86d-4043-b4e3-3ebec11a00b7"
          }
        ],
        "activity": {
          "text": "Synthetic Example Data Generation"
        },
        "policy": [
          "https://synderai.net/synderai-synthetic-data-policy"
        ],
        "agent": [
          {
            "type": {
              "text": "author"
            },
            "who": {
              "reference": "Device/bd4ab454-7626-4eff-bfdd-0eaa6abe5fed"
            }
          }
        ],
        "reason": [
          {
            "text": "Interoperability Testing and Training (non-clinical use)"
          }
        ],
        "text": {
          "status": "generated",
          "div": "<div xmlns=\"http://www.w3.org/1999/xhtml\">Provenance for SYNDERAI Synthetic Example Data Resource</div>"
        },
        "recorded": "2017-08-18T04:48:23Z"
      }
    },
    {
      "fullUrl": "urn:uuid:d021a889-4881-4439-b902-cee6887cea29",
      "resource": {
        "resourceType": "PractitionerRole",
        "id": "d021a889-4881-4439-b902-cee6887cea29",
        "meta": {
          "profile": [
            "http://hl7.eu/fhir/base/StructureDefinition/practitionerRole-eu"
          ]
        },
        "text": {
          "status": "generated",
          "div": "<div xmlns=\"http://www.w3.org/1999/xhtml\">Laboratory Role Id: d021a889-4881-4439-b902-cee6887cea29</div>"
        },
        "practitioner": {
          "reference": "urn:uuid:4928acaf-9383-4af9-aabf-48bc04c28138"
        }
      }
    },
    {
      "fullUrl": "urn:uuid:4928acaf-9383-4af9-aabf-48bc04c28138",
      "resource": {
        "resourceType": "Practitioner",
        "id": "4928acaf-9383-4af9-aabf-48bc04c28138",
        "meta": {
          "profile": [
            "http://hl7.eu/fhir/base/StructureDefinition/practitioner-eu"
          ]
        },
        "identifier": [
          {
            "assigner": {
              "display": "HL7 Europe"
            },
            "system": "urn:oid:2.16.840.1.113883.2.51.999",
            "value": "2ae3a011-dbf5-40cb-9e8b-ed16691bbfa1"
          }
        ],
        "name": [
          {
            "prefix": [
              "dr"
            ],
            "given": [
              "Ex"
            ],
            "family": "Ample"
          }
        ],
        "address": [
          {
            "line": [
              "Laboratoire Central Européenne",
              "Boulevard du Jardin Botanique 32"
            ],
            "postalCode": "1000",
            "city": "Brussels",
            "country": "Belgium"
          }
        ],
        "text": {
          "status": "generated",
          "div": "<div xmlns=\"http://www.w3.org/1999/xhtml\">Laboratory: Laboratoire Central Européenne, 1000 Brussels, Belgium</div>"
        }
      }
    }
  ],
  "type": "document",
  "timestamp": "2017-08-18T04:48:23Z"
}
