{
  "resourceType": "Bundle",
  "id": "d379e34f-a8a8-4e49-8290-f8357431175d",
  "meta": {
    "profile": [
      "http://hl7.eu/fhir/laboratory/StructureDefinition/Bundle-eu-lab"
    ]
  },
  "identifier": {
    "assigner": {
      "display": "HL7 Europe"
    },
    "system": "urn:oid:2.16.840.1.113883.2.51.999",
    "value": "c2c2b730-fd69-461a-8b5d-8c7aa76208b8"
  },
  "entry": [
    {
      "fullUrl": "urn:uuid:cf07b99a-517f-4d54-864a-1f703e0aa159",
      "resource": {
        "resourceType": "Composition",
        "id": "cf07b99a-517f-4d54-864a-1f703e0aa159",
        "meta": {
          "profile": [
            "http://hl7.eu/fhir/laboratory/StructureDefinition/Composition-eu-lab"
          ]
        },
        "identifier": {
          "assigner": {
            "display": "HL7 Europe"
          },
          "system": "urn:oid:2.16.840.1.113883.2.51.999",
          "value": "af68ae48-b79e-4313-9170-ebe3f2373a85"
        },
        "author": [
          {
            "reference": "urn:uuid:0b77a616-b16e-45da-b35f-987cca554732"
          }
        ],
        "category": [
          {
            "coding": [
              {
                "code": "26436-6",
                "system": "http://loinc.org",
                "display": "Laboratory studies (set)"
              }
            ]
          }
        ],
        "type": {
          "coding": [
            {
              "code": "11502-2",
              "system": "http://loinc.org",
              "display": "Laboratory report"
            }
          ],
          "text": "Laboratory Report"
        },
        "section": [
          {
            "code": {
              "coding": [
                {
                  "code": "26436-6",
                  "system": "http://loinc.org",
                  "display": "Laboratory studies (set)"
                }
              ],
              "text": "Laboratory studies"
            },
            "section": [
              {
                "code": {
                  "coding": [
                    {
                      "code": "$18719-5",
                      "system": "http://loinc.org",
                      "display": "Chemistry studies (set)"
                    }
                  ],
                  "text": "Chemistry"
                },
                "entry": [
                  {
                    "reference": "urn:uuid:208272d9-1210-481b-961a-8545ec853d74"
                  },
                  {
                    "reference": "urn:uuid:60a648b3-29dc-4594-a21a-b81a4d49a222"
                  },
                  {
                    "reference": "urn:uuid:89ab6f3f-ce22-471d-aba2-ef358b36c293"
                  },
                  {
                    "reference": "urn:uuid:c0dddf4f-626d-4cad-9f56-e6bfbcf07c21"
                  },
                  {
                    "reference": "urn:uuid:8d6fe129-d064-4225-9a0a-f56959da8b2c"
                  },
                  {
                    "reference": "urn:uuid:0ed94168-f8aa-40ef-a34f-cc8ef95e27a9"
                  },
                  {
                    "reference": "urn:uuid:e9ae3973-bc79-4cac-931f-32fbef263805"
                  },
                  {
                    "reference": "urn:uuid:29b5979a-2742-4c10-b0c2-0146ac9df169"
                  },
                  {
                    "reference": "urn:uuid:1178337c-bb6c-4bf8-8979-0791c19f7335"
                  },
                  {
                    "reference": "urn:uuid:d1a2b8fc-4741-4df8-9f8f-7f51696f104a"
                  },
                  {
                    "reference": "urn:uuid:a78fd84e-935d-4559-853e-82af79ac3ab8"
                  },
                  {
                    "reference": "urn:uuid:f8cd2d47-3f7c-4e4f-9199-11b557ac18e8"
                  },
                  {
                    "reference": "urn:uuid:ee553fd7-6cf6-4552-9b53-9e8e2b85fdab"
                  },
                  {
                    "reference": "urn:uuid:3f997714-95aa-4f89-8e39-fb6310f5ee6f"
                  },
                  {
                    "reference": "urn:uuid:21cf9da6-ead1-4456-99db-47d81be3738c"
                  },
                  {
                    "reference": "urn:uuid:5358d03f-e860-4279-bc41-66672f0cbf6d"
                  },
                  {
                    "reference": "urn:uuid:91d23e8a-ae68-436f-b95b-032910deb662"
                  },
                  {
                    "reference": "urn:uuid:b7d0378c-a03d-4dd4-bbc7-776d3d3fe37a"
                  }
                ],
                "text": {
                  "status": "generated",
                  "div": "<div xmlns=\"http://www.w3.org/1999/xhtml\"><h3>Chemistry</h3><table class=\"hl7__eu__lab__report\"><thead><tr><th>Test</th><th>25-DEC-2023</th><th>Reference&#xA0;Range</th><th>Unit</th></tr></thead><tbody><tr><td>Glucose [Mass/volume] in Serum or Plasma</td><td>74.2</td><td>70 - 99</td><td>mg/dL</td></tr><tr><td>Urea nitrogen [Mass/volume] in Serum or Plasma</td><td>16.4</td><td>7 - 50</td><td>mg/dL</td></tr><tr><td>Creatinine [Mass/volume] in Serum or Plasma</td><td><strong>2.0 H</strong></td><td>0.6 - 1.1</td><td>mg/dL</td></tr><tr><td>Calcium [Mass/volume] in Serum or Plasma</td><td>9.7</td><td>8.6 - 10.4</td><td>mg/dL</td></tr><tr><td>Sodium [Moles/volume] in Serum or Plasma</td><td>137.7</td><td>135 - 145</td><td>mmol/L</td></tr><tr><td>Potassium [Moles/volume] in Serum or Plasma</td><td>4.5</td><td>3.5 - 5.1</td><td>mmol/L</td></tr><tr><td>Chloride [Moles/volume] in Serum or Plasma</td><td>103.5</td><td>98 - 108</td><td>mmol/L</td></tr><tr><td>Carbon dioxide, total [Moles/volume] in Serum or Plasma</td><td><strong>21.1 L</strong></td><td>22 - 32</td><td>mmol/L</td></tr><tr><td>Ketones [Presence] in Urine by Test strip</td><td>Urine ketone test = ++</td><td></td><td></td></tr><tr><td>Hemoglobin A1c/Hemoglobin.total in Blood</td><td>4.0</td><td>4 - 6.4</td><td>%</td></tr><tr><td>Glucose [Mass/volume] in Blood</td><td>74.2</td><td>70 - 100</td><td>mg/dL</td></tr><tr><td>Urea nitrogen [Mass/volume] in Blood</td><td>16.4</td><td>7 - 43</td><td>mg/dL</td></tr><tr><td>Creatinine [Mass/volume] in Blood</td><td><strong>4.0 H</strong></td><td>0.6 - 1.1</td><td>mg/dL</td></tr><tr><td>Calcium [Mass/volume] in Blood</td><td>9.7</td><td>8.5 - 10.5</td><td>mg/dL</td></tr><tr><td>Sodium [Moles/volume] in Blood</td><td>137.7</td><td>135 - 145</td><td>mmol/L</td></tr><tr><td>Potassium [Moles/volume] in Blood</td><td>4.5</td><td>3.5 - 5.1</td><td>mmol/L</td></tr><tr><td>Chloride [Moles/volume] in Blood</td><td>103.5</td><td>98 - 108</td><td>mmol/L</td></tr><tr><td>Carbon dioxide, total [Moles/volume] in Blood</td><td><strong>21.1 L</strong></td><td>22 - 29</td><td>mmol/L</td></tr></tbody></table></div>"
                },
                "title": "Chemistry"
              },
              {
                "code": {
                  "coding": [
                    {
                      "code": "$18729-4",
                      "system": "http://loinc.org",
                      "display": "Urinalysis studies (set)"
                    }
                  ],
                  "text": "Urinalysis"
                },
                "entry": [
                  {
                    "reference": "urn:uuid:ab9580da-079a-4f9c-8cc0-325ef650bf7e"
                  },
                  {
                    "reference": "urn:uuid:b477e2eb-e174-484f-bb8d-17171846b585"
                  },
                  {
                    "reference": "urn:uuid:7f2d7069-3e91-4115-921b-06ce2c879604"
                  },
                  {
                    "reference": "urn:uuid:19727cc5-20da-46f2-833c-19409b2ebf0a"
                  },
                  {
                    "reference": "urn:uuid:9d3f2506-78b8-42cf-874f-130986de597f"
                  },
                  {
                    "reference": "urn:uuid:f43b2904-9c91-4da7-9d49-740ec4e89fb2"
                  },
                  {
                    "reference": "urn:uuid:5e3efa52-635e-470f-9679-cd4d780065fb"
                  },
                  {
                    "reference": "urn:uuid:2cb5162d-1bf5-43ab-bc49-ff5baf3f5404"
                  },
                  {
                    "reference": "urn:uuid:0169fcbf-cbe6-4211-bd58-ce5a0d5940fe"
                  },
                  {
                    "reference": "urn:uuid:6024040f-4b08-440e-9c19-96372cd37c08"
                  },
                  {
                    "reference": "urn:uuid:fc8dd1a4-5d40-4b46-b6ea-cb2c12d65c42"
                  },
                  {
                    "reference": "urn:uuid:d310f3b9-0ef9-4442-aa9e-57681fa98fdd"
                  }
                ],
                "text": {
                  "status": "generated",
                  "div": "<div xmlns=\"http://www.w3.org/1999/xhtml\"><h3>Urinalysis</h3><table class=\"hl7__eu__lab__report\"><thead><tr><th>Test</th><th>25-DEC-2023</th><th>Reference&#xA0;Range</th><th>Unit</th></tr></thead><tbody><tr><td>Glucose [Mass/volume] in Urine by Test strip</td><td><strong>1.8 H</strong></td><td>0.8 - 0</td><td>mg/dL</td></tr><tr><td>Glucose [Presence] in Urine by Test strip</td><td>++</td><td></td><td></td></tr><tr><td>Bilirubin.total [Mass/volume] in Urine by Test strip</td><td><strong>1.5 H</strong></td><td>0 - 1</td><td>mg/dL</td></tr><tr><td>Bilirubin.total [Presence] in Urine by Test strip</td><td>Finding of bilirubin in urine</td><td></td><td></td></tr><tr><td>Ketones [Mass/volume] in Urine by Test strip</td><td><strong>17.7 H</strong></td><td>0 - 4</td><td>mg/dL</td></tr><tr><td>Specific gravity of Urine by Test strip</td><td><strong>1.0 L</strong></td><td>1.005 - 1.03</td><td>{nominal}</td></tr><tr><td>pH of Urine by Test strip</td><td>6.0</td><td>4.6 - 7</td><td>pH</td></tr><tr><td>Protein [Mass/volume] in Urine by Test strip</td><td><strong>285.7 H</strong></td><td>0 - 14</td><td>mg/dL</td></tr><tr><td>Protein [Presence] in Urine by Test strip</td><td>Urine protein test = ++</td><td></td><td></td></tr><tr><td>Nitrite [Presence] in Urine by Test strip</td><td>Urine nitrite negative</td><td></td><td></td></tr><tr><td>Hemoglobin [Presence] in Urine by Test strip</td><td>Urine blood test = negative</td><td></td><td></td></tr><tr><td>Leukocyte esterase [Presence] in Urine by Test strip</td><td>Urine leukocyte test negative</td><td></td><td></td></tr></tbody></table></div>"
                },
                "title": "Urinalysis"
              },
              {
                "code": {
                  "coding": [
                    {
                      "code": "$LP7846-1",
                      "system": "http://loinc.org",
                      "display": "Specimen information"
                    }
                  ],
                  "text": "Specimen information"
                },
                "entry": [
                  {
                    "reference": "urn:uuid:80388aea-c390-4059-94b9-e45c380f6796"
                  },
                  {
                    "reference": "urn:uuid:26b70982-fe79-4402-b6ea-258297f4625d"
                  },
                  {
                    "reference": "urn:uuid:740a372d-3da9-42a1-852e-2c5dcc890997"
                  },
                  {
                    "reference": "urn:uuid:482a761a-a846-4b2a-8723-6da962899144"
                  }
                ],
                "text": {
                  "status": "generated",
                  "div": "<div xmlns=\"http://www.w3.org/1999/xhtml\"><h3>Specimen information</h3><table class=\"hl7__eu__lab__report\"><thead><tr><th>Test</th><th>25-DEC-2023</th><th>Specimen</th><th></th></tr></thead><tbody><tr><td>Appearance of Urine</td><td>Cloudy urine</td><td>Urine</td><td></td></tr><tr><td>Odor of Urine</td><td>Urine smell ammoniacal</td><td>Urine</td><td></td></tr><tr><td>Clarity of Urine</td><td>Translucent</td><td>Urine</td><td></td></tr><tr><td>Color of Urine</td><td>Brown color</td><td>Urine</td><td></td></tr></tbody></table></div>"
                },
                "title": "Specimen information"
              }
            ],
            "title": "Laboratory Report"
          },
          {
            "text": {
              "status": "generated",
              "div": "<div xmlns=\"http://www.w3.org/1999/xhtml\"><h3>Annotation</h3><table class=\"hl7__eu__lab__report\"><tr><th>Conclusion and Recommendations based on this report and previous findings known to us</th></tr><tr><td>The patient shows significantly elevated creatinine, proteinuria, glucosuria, ketonuria, and bilirubinuria, with low urine specific gravity and low serum CO₂, suggesting impaired renal function (possible acute or chronic kidney disease) and metabolic acidosis. Urine findings (cloudy, brown, ammoniacal) may indicate underlying renal or hepatic pathology. Blood glucose and HbA1c are normal, making diabetes less likely. Recommend urgent nephrology evaluation and further workup for renal and hepatic dysfunction.</td></tr></table></div>"
            },
            "code": {
              "coding": [
                {
                  "system": "http://loinc.org",
                  "code": "48767-8",
                  "display": "Annotation comment"
                }
              ]
            },
            "title": "Annotation comment"
          }
        ],
        "status": "final",
        "subject": {
          "reference": "urn:uuid:ba9ff3ec-d3cd-45d9-8bb6-1422ce98a6cf",
          "display": "Meaghan Neary"
        },
        "date": "2023-12-25T23:11:04Z",
        "title": "Laboratory Report",
        "confidentiality": "N"
      }
    },
    {
      "fullUrl": "urn:uuid:f3d55824-c1d6-4792-997b-0aaef40483c5",
      "resource": {
        "resourceType": "DiagnosticReport",
        "id": "f3d55824-c1d6-4792-997b-0aaef40483c5",
        "meta": {
          "profile": [
            "http://hl7.eu/fhir/laboratory/StructureDefinition/DiagnosticReport-eu-lab"
          ]
        },
        "identifier": [
          {
            "assigner": {
              "display": "HL7 Europe"
            },
            "system": "urn:oid:2.16.840.1.113883.2.51.999",
            "value": "cc41b444-4042-40f7-9290-43d819163929"
          }
        ],
        "extension": [
          {
            "url": "http://hl7.org/fhir/5.0/StructureDefinition/extension-DiagnosticReport.composition",
            "valueReference": {
              "reference": "urn:uuid:af68ae48-b79e-4313-9170-ebe3f2373a85"
            }
          }
        ],
        "category": [
          {
            "coding": [
              {
                "code": "26436-6",
                "system": "http://loinc.org",
                "display": "Laboratory studies (set)"
              }
            ]
          }
        ],
        "specimen": [
          {
            "reference": "urn:uuid:e73269cd-9afb-47ff-9431-78988517806c"
          },
          {
            "reference": "urn:uuid:eab556de-1766-4491-a4ca-75441c9edac5"
          },
          {
            "reference": "urn:uuid:cf969c6f-28b7-4876-96e0-2869b78fc583"
          }
        ],
        "result": [
          {
            "reference": "urn:uuid:208272d9-1210-481b-961a-8545ec853d74"
          },
          {
            "reference": "urn:uuid:60a648b3-29dc-4594-a21a-b81a4d49a222"
          },
          {
            "reference": "urn:uuid:89ab6f3f-ce22-471d-aba2-ef358b36c293"
          },
          {
            "reference": "urn:uuid:c0dddf4f-626d-4cad-9f56-e6bfbcf07c21"
          },
          {
            "reference": "urn:uuid:8d6fe129-d064-4225-9a0a-f56959da8b2c"
          },
          {
            "reference": "urn:uuid:0ed94168-f8aa-40ef-a34f-cc8ef95e27a9"
          },
          {
            "reference": "urn:uuid:e9ae3973-bc79-4cac-931f-32fbef263805"
          },
          {
            "reference": "urn:uuid:29b5979a-2742-4c10-b0c2-0146ac9df169"
          },
          {
            "reference": "urn:uuid:80388aea-c390-4059-94b9-e45c380f6796"
          },
          {
            "reference": "urn:uuid:26b70982-fe79-4402-b6ea-258297f4625d"
          },
          {
            "reference": "urn:uuid:740a372d-3da9-42a1-852e-2c5dcc890997"
          },
          {
            "reference": "urn:uuid:482a761a-a846-4b2a-8723-6da962899144"
          },
          {
            "reference": "urn:uuid:ab9580da-079a-4f9c-8cc0-325ef650bf7e"
          },
          {
            "reference": "urn:uuid:b477e2eb-e174-484f-bb8d-17171846b585"
          },
          {
            "reference": "urn:uuid:7f2d7069-3e91-4115-921b-06ce2c879604"
          },
          {
            "reference": "urn:uuid:19727cc5-20da-46f2-833c-19409b2ebf0a"
          },
          {
            "reference": "urn:uuid:9d3f2506-78b8-42cf-874f-130986de597f"
          },
          {
            "reference": "urn:uuid:1178337c-bb6c-4bf8-8979-0791c19f7335"
          },
          {
            "reference": "urn:uuid:f43b2904-9c91-4da7-9d49-740ec4e89fb2"
          },
          {
            "reference": "urn:uuid:5e3efa52-635e-470f-9679-cd4d780065fb"
          },
          {
            "reference": "urn:uuid:2cb5162d-1bf5-43ab-bc49-ff5baf3f5404"
          },
          {
            "reference": "urn:uuid:0169fcbf-cbe6-4211-bd58-ce5a0d5940fe"
          },
          {
            "reference": "urn:uuid:6024040f-4b08-440e-9c19-96372cd37c08"
          },
          {
            "reference": "urn:uuid:fc8dd1a4-5d40-4b46-b6ea-cb2c12d65c42"
          },
          {
            "reference": "urn:uuid:d310f3b9-0ef9-4442-aa9e-57681fa98fdd"
          },
          {
            "reference": "urn:uuid:d1a2b8fc-4741-4df8-9f8f-7f51696f104a"
          },
          {
            "reference": "urn:uuid:a78fd84e-935d-4559-853e-82af79ac3ab8"
          },
          {
            "reference": "urn:uuid:f8cd2d47-3f7c-4e4f-9199-11b557ac18e8"
          },
          {
            "reference": "urn:uuid:ee553fd7-6cf6-4552-9b53-9e8e2b85fdab"
          },
          {
            "reference": "urn:uuid:3f997714-95aa-4f89-8e39-fb6310f5ee6f"
          },
          {
            "reference": "urn:uuid:21cf9da6-ead1-4456-99db-47d81be3738c"
          },
          {
            "reference": "urn:uuid:5358d03f-e860-4279-bc41-66672f0cbf6d"
          },
          {
            "reference": "urn:uuid:91d23e8a-ae68-436f-b95b-032910deb662"
          },
          {
            "reference": "urn:uuid:b7d0378c-a03d-4dd4-bbc7-776d3d3fe37a"
          }
        ],
        "status": "registered",
        "code": {
          "coding": [
            {
              "code": "11502-2",
              "system": "http://loinc.org",
              "display": "Laboratory report"
            }
          ]
        },
        "subject": {
          "reference": "urn:uuid:ba9ff3ec-d3cd-45d9-8bb6-1422ce98a6cf",
          "display": "Meaghan Neary"
        }
      }
    },
    {
      "fullUrl": "urn:uuid:ba9ff3ec-d3cd-45d9-8bb6-1422ce98a6cf",
      "resource": {
        "resourceType": "Patient",
        "id": "ba9ff3ec-d3cd-45d9-8bb6-1422ce98a6cf",
        "meta": {
          "security": [
            {
              "system": "http://terminology.hl7.org/CodeSystem/v3-ActReason",
              "code": "HTEST"
            },
            {
              "system": "http://terminology.hl7.org/CodeSystem/v3-ActReason",
              "code": "TRAIN"
            }
          ],
          "tag": [
            {
              "system": "https://synderai.net/fhir/CodeSystem/tags",
              "code": "synthetic",
              "display": "SYNDERAI Synthetic data"
            }
          ],
          "profile": [
            "http://hl7.eu/fhir/base/StructureDefinition/patient-eu-core"
          ]
        },
        "identifier": [
          {
            "type": {
              "coding": [
                {
                  "code": "PT",
                  "system": "http://terminology.hl7.org/CodeSystem/v2-0203"
                }
              ]
            },
            "system": "http://ec.europa.eu/identifier/eci",
            "value": "1586-567257-8"
          },
          {
            "type": {
              "coding": [
                {
                  "code": "MR",
                  "system": "http://terminology.hl7.org/CodeSystem/v2-0203"
                }
              ]
            },
            "system": "http://local.setting.eu/identifier",
            "value": "443e6379-f231-b364-3ccb-644740a1aa2a"
          }
        ],
        "name": [
          {
            "family": "Neary"
          },
          {
            "given": [
              "Meaghan"
            ]
          },
          {
            "text": "Meaghan Neary"
          }
        ],
        "address": [
          {
            "line": [
              "64 Linskey Street"
            ],
            "use": "home",
            "type": "physical",
            "postalCode": "D02",
            "city": "Dublin",
            "country": "Ireland"
          }
        ],
        "telecom": [
          {
            "system": "phone",
            "value": "001-967-573-0911x465"
          }
        ],
        "extension": [
          {
            "url": "http://hl7.org/fhir/StructureDefinition/patient-nationality",
            "valueCodeableConcept": {
              "coding": [
                {
                  "code": "IE",
                  "system": "http://hl7.org/fhir/ValueSet/country"
                }
              ]
            }
          }
        ],
        "text": {
          "status": "generated",
          "div": "<div xmlns=\"http://www.w3.org/1999/xhtml\"><table class=\"hl7__ips\"><tr><td>Meaghan Neary</td><td>female</td><td>19-Dec-1960</td></tr></table></div>"
        },
        "gender": "female",
        "birthDate": "1960-12-19"
      }
    },
    {
      "fullUrl": "urn:uuid:3f537c58-db48-47be-8ae0-5dc547bb9491",
      "resource": {
        "resourceType": "ServiceRequest",
        "id": "3f537c58-db48-47be-8ae0-5dc547bb9491",
        "meta": {
          "profile": [
            "http://hl7.eu/fhir/laboratory/StructureDefinition/ServiceRequest-eu-lab"
          ]
        },
        "identifier": [
          {
            "system": "http://example.org",
            "value": "b2c74418-5644-4d63-9828-024a53a9f287"
          }
        ],
        "specimen": [
          {
            "reference": "urn:uuid:e73269cd-9afb-47ff-9431-78988517806c"
          },
          {
            "reference": "urn:uuid:eab556de-1766-4491-a4ca-75441c9edac5"
          },
          {
            "reference": "urn:uuid:cf969c6f-28b7-4876-96e0-2869b78fc583"
          }
        ],
        "reasonCode": [
          {
            "coding": [
              {
                "code": "55822004",
                "system": "http://snomed.info/sct",
                "display": "Hyperlipidemia"
              }
            ]
          },
          {
            "coding": [
              {
                "code": "433144002",
                "system": "http://snomed.info/sct",
                "display": "Chronic kidney disease stage 3"
              }
            ]
          },
          {
            "coding": [
              {
                "code": "157141000119108",
                "system": "http://snomed.info/sct",
                "display": "Proteinuria due to type 2 diabetes mellitus"
              }
            ]
          },
          {
            "coding": [
              {
                "code": "431856006",
                "system": "http://snomed.info/sct",
                "display": "Chronic kidney disease stage 2"
              }
            ]
          },
          {
            "coding": [
              {
                "code": "90781000119102",
                "system": "http://snomed.info/sct",
                "display": "Microalbuminuria due to type 2 diabetes mellitus"
              }
            ]
          },
          {
            "coding": [
              {
                "code": "127013003",
                "system": "http://snomed.info/sct",
                "display": "Disorder of kidney due to diabetes mellitus"
              }
            ]
          },
          {
            "coding": [
              {
                "code": "431855005",
                "system": "http://snomed.info/sct",
                "display": "Chronic kidney disease stage 1"
              }
            ]
          },
          {
            "coding": [
              {
                "code": "237602007",
                "system": "http://snomed.info/sct",
                "display": "Metabolic syndrome X"
              }
            ]
          },
          {
            "coding": [
              {
                "code": "271737000",
                "system": "http://snomed.info/sct",
                "display": "Anemia"
              }
            ]
          },
          {
            "coding": [
              {
                "code": "15777000",
                "system": "http://snomed.info/sct",
                "display": "Prediabetes"
              }
            ]
          },
          {
            "coding": [
              {
                "code": "59621000",
                "system": "http://snomed.info/sct",
                "display": "Essential hypertension"
              }
            ]
          }
        ],
        "status": "active",
        "intent": "order",
        "code": {
          "coding": [
            {
              "code": "108252007",
              "system": "http://snomed.info/sct",
              "display": "Laboratory procedure"
            }
          ]
        },
        "subject": {
          "reference": "urn:uuid:ba9ff3ec-d3cd-45d9-8bb6-1422ce98a6cf",
          "display": "Meaghan Neary"
        },
        "requester": {
          "reference": "urn:uuid:6fe5c8e8-7983-48f3-8eae-2ab210c72542"
        }
      }
    },
    {
      "fullUrl": "urn:uuid:6fe5c8e8-7983-48f3-8eae-2ab210c72542",
      "resource": {
        "resourceType": "PractitionerRole",
        "id": "6fe5c8e8-7983-48f3-8eae-2ab210c72542",
        "meta": {
          "profile": [
            "http://hl7.eu/fhir/base/StructureDefinition/practitionerRole-eu"
          ]
        },
        "text": {
          "status": "generated",
          "div": "<div xmlns=\"http://www.w3.org/1999/xhtml\">Provider Role Id: 6fe5c8e8-7983-48f3-8eae-2ab210c72542</div>"
        },
        "organization": {
          "reference": "urn:uuid:d94f2702-cd0d-47da-83d3-372a3418fcdb"
        }
      }
    },
    {
      "fullUrl": "urn:uuid:d94f2702-cd0d-47da-83d3-372a3418fcdb",
      "resource": {
        "resourceType": "Organization",
        "id": "d94f2702-cd0d-47da-83d3-372a3418fcdb",
        "meta": {
          "profile": [
            "http://hl7.eu/fhir/base/StructureDefinition/organization-eu"
          ]
        },
        "identifier": [
          {
            "assigner": {
              "display": "HL7 Europe"
            },
            "system": "urn:oid:2.16.840.1.113883.2.51.999",
            "value": "08d20f3b-d7ad-4662-89bb-cd4dc56eb101"
          }
        ],
        "address": [
          {
            "line": [
              "Parnell Square West nan"
            ],
            "city": "Dublin",
            "postalCode": "D01",
            "country": "Ireland"
          }
        ],
        "text": {
          "status": "generated",
          "div": "<div xmlns=\"http://www.w3.org/1999/xhtml\">Provider Organization: Rotunda Hospital</div>"
        },
        "name": "Rotunda Hospital"
      }
    },
    {
      "fullUrl": "urn:uuid:e73269cd-9afb-47ff-9431-78988517806c",
      "resource": {
        "resourceType": "Specimen",
        "id": "e73269cd-9afb-47ff-9431-78988517806c",
        "meta": {
          "profile": [
            "http://hl7.eu/fhir/laboratory/StructureDefinition/Specimen-eu-lab"
          ]
        },
        "collection": {
          "collectedDateTime": "2023-12-25"
        },
        "text": {
          "status": "generated",
          "div": "<div xmlns=\"http://www.w3.org/1999/xhtml\"><table class=\"hl7__eu__lab__report\"><tr><th>Specimen</th><th>Collection Date</th></tr><tr><td>Acellular blood (serum or plasma) specimen</td><td><span class=\"nb\">25-Dec-2023</span></td></tr></table></div>"
        },
        "type": {
          "coding": [
            {
              "code": "122592007",
              "system": "http://snomed.info/sct",
              "display": "Acellular blood (serum or plasma) specimen"
            }
          ]
        }
      }
    },
    {
      "fullUrl": "urn:uuid:eab556de-1766-4491-a4ca-75441c9edac5",
      "resource": {
        "resourceType": "Specimen",
        "id": "eab556de-1766-4491-a4ca-75441c9edac5",
        "meta": {
          "profile": [
            "http://hl7.eu/fhir/laboratory/StructureDefinition/Specimen-eu-lab"
          ]
        },
        "collection": {
          "collectedDateTime": "2023-12-25"
        },
        "text": {
          "status": "generated",
          "div": "<div xmlns=\"http://www.w3.org/1999/xhtml\"><table class=\"hl7__eu__lab__report\"><tr><th>Specimen</th><th>Collection Date</th></tr><tr><td>Urine specimen</td><td><span class=\"nb\">25-Dec-2023</span></td></tr></table></div>"
        },
        "type": {
          "coding": [
            {
              "code": "122575003",
              "system": "http://snomed.info/sct",
              "display": "Urine specimen"
            }
          ]
        }
      }
    },
    {
      "fullUrl": "urn:uuid:cf969c6f-28b7-4876-96e0-2869b78fc583",
      "resource": {
        "resourceType": "Specimen",
        "id": "cf969c6f-28b7-4876-96e0-2869b78fc583",
        "meta": {
          "profile": [
            "http://hl7.eu/fhir/laboratory/StructureDefinition/Specimen-eu-lab"
          ]
        },
        "collection": {
          "collectedDateTime": "2023-12-25"
        },
        "text": {
          "status": "generated",
          "div": "<div xmlns=\"http://www.w3.org/1999/xhtml\"><table class=\"hl7__eu__lab__report\"><tr><th>Specimen</th><th>Collection Date</th></tr><tr><td>Whole blood specimen (specimen)</td><td><span class=\"nb\">25-Dec-2023</span></td></tr></table></div>"
        },
        "type": {
          "coding": [
            {
              "code": "258580003",
              "system": "http://snomed.info/sct",
              "display": "Whole blood specimen (specimen)"
            }
          ]
        }
      }
    },
    {
      "fullUrl": "urn:uuid:208272d9-1210-481b-961a-8545ec853d74",
      "resource": {
        "resourceType": "Observation",
        "id": "208272d9-1210-481b-961a-8545ec853d74",
        "meta": {
          "profile": [
            "http://hl7.eu/fhir/laboratory/StructureDefinition/Observation-resultslab-eu-lab"
          ]
        },
        "performer": [
          {
            "display": "The Central European Lab"
          }
        ],
        "category": [
          {
            "coding": [
              {
                "system": "http://terminology.hl7.org/CodeSystem/observation-category",
                "code": "laboratory"
              }
            ]
          }
        ],
        "code": {
          "coding": [
            {
              "code": "2345-7",
              "system": "http://loinc.org",
              "display": "Glucose [Mass/volume] in Serum or Plasma"
            }
          ],
          "text": "Glucose [Mass/volume] in Serum or Plasma"
        },
        "valueQuantity": {
          "system": "http://unitsofmeasure.org",
          "value": 74.2,
          "unit": "mg/dL",
          "code": "mg/dL"
        },
        "referenceRange": [
          {
            "low": {
              "value": 70,
              "code": "mg/dL",
              "system": "http://unitsofmeasure.org"
            }
          },
          {
            "high": {
              "value": 99,
              "code": "mg/dL",
              "system": "http://unitsofmeasure.org"
            }
          }
        ],
        "text": {
          "status": "generated",
          "div": "<div xmlns=\"http://www.w3.org/1999/xhtml\"><table class=\"hl7__eu__lab__report\"><tr><th>Test</th><th>25-Dec-2023</th><th>Reference&#xA0;Range</th><th>Unit</th></tr><tr><td>Glucose [Mass/volume] in Serum or Plasma</td><td>74.2</td><td>70 - 99</td><td></td><td>mg/dL</td></tr></table></div>"
        },
        "status": "final",
        "subject": {
          "reference": "urn:uuid:ba9ff3ec-d3cd-45d9-8bb6-1422ce98a6cf",
          "display": "Meaghan Neary"
        },
        "effectiveDateTime": "2023-12-25T22:11:04Z",
        "specimen": {
          "reference": "urn:uuid:e73269cd-9afb-47ff-9431-78988517806c"
        }
      }
    },
    {
      "fullUrl": "urn:uuid:60a648b3-29dc-4594-a21a-b81a4d49a222",
      "resource": {
        "resourceType": "Observation",
        "id": "60a648b3-29dc-4594-a21a-b81a4d49a222",
        "meta": {
          "profile": [
            "http://hl7.eu/fhir/laboratory/StructureDefinition/Observation-resultslab-eu-lab"
          ]
        },
        "performer": [
          {
            "display": "The Central European Lab"
          }
        ],
        "category": [
          {
            "coding": [
              {
                "system": "http://terminology.hl7.org/CodeSystem/observation-category",
                "code": "laboratory"
              }
            ]
          }
        ],
        "code": {
          "coding": [
            {
              "code": "3094-0",
              "system": "http://loinc.org",
              "display": "Urea nitrogen [Mass/volume] in Serum or Plasma"
            }
          ],
          "text": "Urea nitrogen [Mass/volume] in Serum or Plasma"
        },
        "valueQuantity": {
          "system": "http://unitsofmeasure.org",
          "value": 16.4,
          "unit": "mg/dL",
          "code": "mg/dL"
        },
        "referenceRange": [
          {
            "low": {
              "value": 7,
              "code": "mg/dL",
              "system": "http://unitsofmeasure.org"
            }
          },
          {
            "high": {
              "value": 50,
              "code": "mg/dL",
              "system": "http://unitsofmeasure.org"
            }
          }
        ],
        "text": {
          "status": "generated",
          "div": "<div xmlns=\"http://www.w3.org/1999/xhtml\"><table class=\"hl7__eu__lab__report\"><tr><th>Test</th><th>25-Dec-2023</th><th>Reference&#xA0;Range</th><th>Unit</th></tr><tr><td>Urea nitrogen [Mass/volume] in Serum or Plasma</td><td>16.4</td><td>7 - 50</td><td></td><td>mg/dL</td></tr></table></div>"
        },
        "status": "final",
        "subject": {
          "reference": "urn:uuid:ba9ff3ec-d3cd-45d9-8bb6-1422ce98a6cf",
          "display": "Meaghan Neary"
        },
        "effectiveDateTime": "2023-12-25T22:11:04Z",
        "specimen": {
          "reference": "urn:uuid:e73269cd-9afb-47ff-9431-78988517806c"
        }
      }
    },
    {
      "fullUrl": "urn:uuid:89ab6f3f-ce22-471d-aba2-ef358b36c293",
      "resource": {
        "resourceType": "Observation",
        "id": "89ab6f3f-ce22-471d-aba2-ef358b36c293",
        "meta": {
          "profile": [
            "http://hl7.eu/fhir/laboratory/StructureDefinition/Observation-resultslab-eu-lab"
          ]
        },
        "performer": [
          {
            "display": "The Central European Lab"
          }
        ],
        "category": [
          {
            "coding": [
              {
                "system": "http://terminology.hl7.org/CodeSystem/observation-category",
                "code": "laboratory"
              }
            ]
          }
        ],
        "code": {
          "coding": [
            {
              "code": "2160-0",
              "system": "http://loinc.org",
              "display": "Creatinine [Mass/volume] in Serum or Plasma"
            }
          ],
          "text": "Creatinine [Mass/volume] in Serum or Plasma"
        },
        "valueQuantity": {
          "system": "http://unitsofmeasure.org",
          "value": 2,
          "unit": "mg/dL",
          "code": "mg/dL"
        },
        "referenceRange": [
          {
            "low": {
              "value": 0.6,
              "code": "mg/dL",
              "system": "http://unitsofmeasure.org"
            }
          },
          {
            "high": {
              "value": 1.1,
              "code": "mg/dL",
              "system": "http://unitsofmeasure.org"
            }
          }
        ],
        "interpretation": [
          {
            "coding": [
              {
                "code": "H",
                "system": "http://terminology.hl7.org/CodeSystem/v3-ObservationInterpretation",
                "display": "High"
              }
            ]
          }
        ],
        "text": {
          "status": "generated",
          "div": "<div xmlns=\"http://www.w3.org/1999/xhtml\"><table class=\"hl7__eu__lab__report\"><tr><th>Test</th><th>25-Dec-2023</th><th>Reference&#xA0;Range</th><th>Unit</th></tr><tr><td>Creatinine [Mass/volume] in Serum or Plasma</td><td>2.0</td><td>0.6 - 1.1</td><td>H</td><td>mg/dL</td></tr></table></div>"
        },
        "status": "final",
        "subject": {
          "reference": "urn:uuid:ba9ff3ec-d3cd-45d9-8bb6-1422ce98a6cf",
          "display": "Meaghan Neary"
        },
        "effectiveDateTime": "2023-12-25T22:11:04Z",
        "specimen": {
          "reference": "urn:uuid:e73269cd-9afb-47ff-9431-78988517806c"
        }
      }
    },
    {
      "fullUrl": "urn:uuid:c0dddf4f-626d-4cad-9f56-e6bfbcf07c21",
      "resource": {
        "resourceType": "Observation",
        "id": "c0dddf4f-626d-4cad-9f56-e6bfbcf07c21",
        "meta": {
          "profile": [
            "http://hl7.eu/fhir/laboratory/StructureDefinition/Observation-resultslab-eu-lab"
          ]
        },
        "performer": [
          {
            "display": "The Central European Lab"
          }
        ],
        "category": [
          {
            "coding": [
              {
                "system": "http://terminology.hl7.org/CodeSystem/observation-category",
                "code": "laboratory"
              }
            ]
          }
        ],
        "code": {
          "coding": [
            {
              "code": "17861-6",
              "system": "http://loinc.org",
              "display": "Calcium [Mass/volume] in Serum or Plasma"
            }
          ],
          "text": "Calcium [Mass/volume] in Serum or Plasma"
        },
        "valueQuantity": {
          "system": "http://unitsofmeasure.org",
          "value": 9.7,
          "unit": "mg/dL",
          "code": "mg/dL"
        },
        "referenceRange": [
          {
            "low": {
              "value": 8.6,
              "code": "mg/dL",
              "system": "http://unitsofmeasure.org"
            }
          },
          {
            "high": {
              "value": 10.4,
              "code": "mg/dL",
              "system": "http://unitsofmeasure.org"
            }
          }
        ],
        "text": {
          "status": "generated",
          "div": "<div xmlns=\"http://www.w3.org/1999/xhtml\"><table class=\"hl7__eu__lab__report\"><tr><th>Test</th><th>25-Dec-2023</th><th>Reference&#xA0;Range</th><th>Unit</th></tr><tr><td>Calcium [Mass/volume] in Serum or Plasma</td><td>9.7</td><td>8.6 - 10.4</td><td></td><td>mg/dL</td></tr></table></div>"
        },
        "status": "final",
        "subject": {
          "reference": "urn:uuid:ba9ff3ec-d3cd-45d9-8bb6-1422ce98a6cf",
          "display": "Meaghan Neary"
        },
        "effectiveDateTime": "2023-12-25T22:11:04Z",
        "specimen": {
          "reference": "urn:uuid:e73269cd-9afb-47ff-9431-78988517806c"
        }
      }
    },
    {
      "fullUrl": "urn:uuid:8d6fe129-d064-4225-9a0a-f56959da8b2c",
      "resource": {
        "resourceType": "Observation",
        "id": "8d6fe129-d064-4225-9a0a-f56959da8b2c",
        "meta": {
          "profile": [
            "http://hl7.eu/fhir/laboratory/StructureDefinition/Observation-resultslab-eu-lab"
          ]
        },
        "performer": [
          {
            "display": "The Central European Lab"
          }
        ],
        "category": [
          {
            "coding": [
              {
                "system": "http://terminology.hl7.org/CodeSystem/observation-category",
                "code": "laboratory"
              }
            ]
          }
        ],
        "code": {
          "coding": [
            {
              "code": "2951-2",
              "system": "http://loinc.org",
              "display": "Sodium [Moles/volume] in Serum or Plasma"
            }
          ],
          "text": "Sodium [Moles/volume] in Serum or Plasma"
        },
        "valueQuantity": {
          "system": "http://unitsofmeasure.org",
          "value": 137.7,
          "unit": "mmol/L",
          "code": "mmol/L"
        },
        "referenceRange": [
          {
            "low": {
              "value": 135,
              "code": "mmol/L",
              "system": "http://unitsofmeasure.org"
            }
          },
          {
            "high": {
              "value": 145,
              "code": "mmol/L",
              "system": "http://unitsofmeasure.org"
            }
          }
        ],
        "text": {
          "status": "generated",
          "div": "<div xmlns=\"http://www.w3.org/1999/xhtml\"><table class=\"hl7__eu__lab__report\"><tr><th>Test</th><th>25-Dec-2023</th><th>Reference&#xA0;Range</th><th>Unit</th></tr><tr><td>Sodium [Moles/volume] in Serum or Plasma</td><td>137.7</td><td>135 - 145</td><td></td><td>mmol/L</td></tr></table></div>"
        },
        "status": "final",
        "subject": {
          "reference": "urn:uuid:ba9ff3ec-d3cd-45d9-8bb6-1422ce98a6cf",
          "display": "Meaghan Neary"
        },
        "effectiveDateTime": "2023-12-25T22:11:04Z",
        "specimen": {
          "reference": "urn:uuid:e73269cd-9afb-47ff-9431-78988517806c"
        }
      }
    },
    {
      "fullUrl": "urn:uuid:0ed94168-f8aa-40ef-a34f-cc8ef95e27a9",
      "resource": {
        "resourceType": "Observation",
        "id": "0ed94168-f8aa-40ef-a34f-cc8ef95e27a9",
        "meta": {
          "profile": [
            "http://hl7.eu/fhir/laboratory/StructureDefinition/Observation-resultslab-eu-lab"
          ]
        },
        "performer": [
          {
            "display": "The Central European Lab"
          }
        ],
        "category": [
          {
            "coding": [
              {
                "system": "http://terminology.hl7.org/CodeSystem/observation-category",
                "code": "laboratory"
              }
            ]
          }
        ],
        "code": {
          "coding": [
            {
              "code": "2823-3",
              "system": "http://loinc.org",
              "display": "Potassium [Moles/volume] in Serum or Plasma"
            }
          ],
          "text": "Potassium [Moles/volume] in Serum or Plasma"
        },
        "valueQuantity": {
          "system": "http://unitsofmeasure.org",
          "value": 4.5,
          "unit": "mmol/L",
          "code": "mmol/L"
        },
        "referenceRange": [
          {
            "low": {
              "value": 3.5,
              "code": "mmol/L",
              "system": "http://unitsofmeasure.org"
            }
          },
          {
            "high": {
              "value": 5.1,
              "code": "mmol/L",
              "system": "http://unitsofmeasure.org"
            }
          }
        ],
        "text": {
          "status": "generated",
          "div": "<div xmlns=\"http://www.w3.org/1999/xhtml\"><table class=\"hl7__eu__lab__report\"><tr><th>Test</th><th>25-Dec-2023</th><th>Reference&#xA0;Range</th><th>Unit</th></tr><tr><td>Potassium [Moles/volume] in Serum or Plasma</td><td>4.5</td><td>3.5 - 5.1</td><td></td><td>mmol/L</td></tr></table></div>"
        },
        "status": "final",
        "subject": {
          "reference": "urn:uuid:ba9ff3ec-d3cd-45d9-8bb6-1422ce98a6cf",
          "display": "Meaghan Neary"
        },
        "effectiveDateTime": "2023-12-25T22:11:04Z",
        "specimen": {
          "reference": "urn:uuid:e73269cd-9afb-47ff-9431-78988517806c"
        }
      }
    },
    {
      "fullUrl": "urn:uuid:e9ae3973-bc79-4cac-931f-32fbef263805",
      "resource": {
        "resourceType": "Observation",
        "id": "e9ae3973-bc79-4cac-931f-32fbef263805",
        "meta": {
          "profile": [
            "http://hl7.eu/fhir/laboratory/StructureDefinition/Observation-resultslab-eu-lab"
          ]
        },
        "performer": [
          {
            "display": "The Central European Lab"
          }
        ],
        "category": [
          {
            "coding": [
              {
                "system": "http://terminology.hl7.org/CodeSystem/observation-category",
                "code": "laboratory"
              }
            ]
          }
        ],
        "code": {
          "coding": [
            {
              "code": "2075-0",
              "system": "http://loinc.org",
              "display": "Chloride [Moles/volume] in Serum or Plasma"
            }
          ],
          "text": "Chloride [Moles/volume] in Serum or Plasma"
        },
        "valueQuantity": {
          "system": "http://unitsofmeasure.org",
          "value": 103.5,
          "unit": "mmol/L",
          "code": "mmol/L"
        },
        "referenceRange": [
          {
            "low": {
              "value": 98,
              "code": "mmol/L",
              "system": "http://unitsofmeasure.org"
            }
          },
          {
            "high": {
              "value": 108,
              "code": "mmol/L",
              "system": "http://unitsofmeasure.org"
            }
          }
        ],
        "text": {
          "status": "generated",
          "div": "<div xmlns=\"http://www.w3.org/1999/xhtml\"><table class=\"hl7__eu__lab__report\"><tr><th>Test</th><th>25-Dec-2023</th><th>Reference&#xA0;Range</th><th>Unit</th></tr><tr><td>Chloride [Moles/volume] in Serum or Plasma</td><td>103.5</td><td>98 - 108</td><td></td><td>mmol/L</td></tr></table></div>"
        },
        "status": "final",
        "subject": {
          "reference": "urn:uuid:ba9ff3ec-d3cd-45d9-8bb6-1422ce98a6cf",
          "display": "Meaghan Neary"
        },
        "effectiveDateTime": "2023-12-25T22:11:04Z",
        "specimen": {
          "reference": "urn:uuid:e73269cd-9afb-47ff-9431-78988517806c"
        }
      }
    },
    {
      "fullUrl": "urn:uuid:29b5979a-2742-4c10-b0c2-0146ac9df169",
      "resource": {
        "resourceType": "Observation",
        "id": "29b5979a-2742-4c10-b0c2-0146ac9df169",
        "meta": {
          "profile": [
            "http://hl7.eu/fhir/laboratory/StructureDefinition/Observation-resultslab-eu-lab"
          ]
        },
        "performer": [
          {
            "display": "The Central European Lab"
          }
        ],
        "category": [
          {
            "coding": [
              {
                "system": "http://terminology.hl7.org/CodeSystem/observation-category",
                "code": "laboratory"
              }
            ]
          }
        ],
        "code": {
          "coding": [
            {
              "code": "2028-9",
              "system": "http://loinc.org",
              "display": "Carbon dioxide, total [Moles/volume] in Serum or Plasma"
            }
          ],
          "text": "Carbon dioxide, total [Moles/volume] in Serum or Plasma"
        },
        "valueQuantity": {
          "system": "http://unitsofmeasure.org",
          "value": 21.1,
          "unit": "mmol/L",
          "code": "mmol/L"
        },
        "referenceRange": [
          {
            "low": {
              "value": 22,
              "code": "mmol/L",
              "system": "http://unitsofmeasure.org"
            }
          },
          {
            "high": {
              "value": 32,
              "code": "mmol/L",
              "system": "http://unitsofmeasure.org"
            }
          }
        ],
        "interpretation": [
          {
            "coding": [
              {
                "code": "L",
                "system": "http://terminology.hl7.org/CodeSystem/v3-ObservationInterpretation",
                "display": "Low"
              }
            ]
          }
        ],
        "text": {
          "status": "generated",
          "div": "<div xmlns=\"http://www.w3.org/1999/xhtml\"><table class=\"hl7__eu__lab__report\"><tr><th>Test</th><th>25-Dec-2023</th><th>Reference&#xA0;Range</th><th>Unit</th></tr><tr><td>Carbon dioxide, total [Moles/volume] in Serum or Plasma</td><td>21.1</td><td>22 - 32</td><td>L</td><td>mmol/L</td></tr></table></div>"
        },
        "status": "final",
        "subject": {
          "reference": "urn:uuid:ba9ff3ec-d3cd-45d9-8bb6-1422ce98a6cf",
          "display": "Meaghan Neary"
        },
        "effectiveDateTime": "2023-12-25T22:11:04Z",
        "specimen": {
          "reference": "urn:uuid:e73269cd-9afb-47ff-9431-78988517806c"
        }
      }
    },
    {
      "fullUrl": "urn:uuid:80388aea-c390-4059-94b9-e45c380f6796",
      "resource": {
        "resourceType": "Observation",
        "id": "80388aea-c390-4059-94b9-e45c380f6796",
        "meta": {
          "profile": [
            "http://hl7.eu/fhir/laboratory/StructureDefinition/Observation-resultslab-eu-lab"
          ]
        },
        "performer": [
          {
            "display": "The Central European Lab"
          }
        ],
        "category": [
          {
            "coding": [
              {
                "system": "http://terminology.hl7.org/CodeSystem/observation-category",
                "code": "laboratory"
              }
            ]
          }
        ],
        "code": {
          "coding": [
            {
              "code": "5767-9",
              "system": "http://loinc.org",
              "display": "Appearance of Urine"
            }
          ],
          "text": "Appearance of Urine"
        },
        "text": {
          "status": "generated",
          "div": "<div xmlns=\"http://www.w3.org/1999/xhtml\"><table class=\"hl7__eu__lab__report\"><tr><th>Test</th><th>25-Dec-2023</th><th>Reference&#xA0;Range</th><th>Unit</th></tr><tr><td>Appearance of Urine</td></tr></table></div>"
        },
        "status": "final",
        "subject": {
          "reference": "urn:uuid:ba9ff3ec-d3cd-45d9-8bb6-1422ce98a6cf",
          "display": "Meaghan Neary"
        },
        "effectiveDateTime": "2023-12-25T22:11:04Z",
        "specimen": {
          "reference": "urn:uuid:eab556de-1766-4491-a4ca-75441c9edac5"
        }
      }
    },
    {
      "fullUrl": "urn:uuid:26b70982-fe79-4402-b6ea-258297f4625d",
      "resource": {
        "resourceType": "Observation",
        "id": "26b70982-fe79-4402-b6ea-258297f4625d",
        "meta": {
          "profile": [
            "http://hl7.eu/fhir/laboratory/StructureDefinition/Observation-resultslab-eu-lab"
          ]
        },
        "performer": [
          {
            "display": "The Central European Lab"
          }
        ],
        "category": [
          {
            "coding": [
              {
                "system": "http://terminology.hl7.org/CodeSystem/observation-category",
                "code": "laboratory"
              }
            ]
          }
        ],
        "code": {
          "coding": [
            {
              "code": "34533-0",
              "system": "http://loinc.org",
              "display": "Odor of Urine"
            }
          ],
          "text": "Odor of Urine"
        },
        "text": {
          "status": "generated",
          "div": "<div xmlns=\"http://www.w3.org/1999/xhtml\"><table class=\"hl7__eu__lab__report\"><tr><th>Test</th><th>25-Dec-2023</th><th>Reference&#xA0;Range</th><th>Unit</th></tr><tr><td>Odor of Urine</td></tr></table></div>"
        },
        "status": "final",
        "subject": {
          "reference": "urn:uuid:ba9ff3ec-d3cd-45d9-8bb6-1422ce98a6cf",
          "display": "Meaghan Neary"
        },
        "effectiveDateTime": "2023-12-25T22:11:04Z",
        "specimen": {
          "reference": "urn:uuid:eab556de-1766-4491-a4ca-75441c9edac5"
        }
      }
    },
    {
      "fullUrl": "urn:uuid:740a372d-3da9-42a1-852e-2c5dcc890997",
      "resource": {
        "resourceType": "Observation",
        "id": "740a372d-3da9-42a1-852e-2c5dcc890997",
        "meta": {
          "profile": [
            "http://hl7.eu/fhir/laboratory/StructureDefinition/Observation-resultslab-eu-lab"
          ]
        },
        "performer": [
          {
            "display": "The Central European Lab"
          }
        ],
        "category": [
          {
            "coding": [
              {
                "system": "http://terminology.hl7.org/CodeSystem/observation-category",
                "code": "laboratory"
              }
            ]
          }
        ],
        "code": {
          "coding": [
            {
              "code": "32167-9",
              "system": "http://loinc.org",
              "display": "Clarity of Urine"
            }
          ],
          "text": "Clarity of Urine"
        },
        "text": {
          "status": "generated",
          "div": "<div xmlns=\"http://www.w3.org/1999/xhtml\"><table class=\"hl7__eu__lab__report\"><tr><th>Test</th><th>25-Dec-2023</th><th>Reference&#xA0;Range</th><th>Unit</th></tr><tr><td>Clarity of Urine</td></tr></table></div>"
        },
        "status": "final",
        "subject": {
          "reference": "urn:uuid:ba9ff3ec-d3cd-45d9-8bb6-1422ce98a6cf",
          "display": "Meaghan Neary"
        },
        "effectiveDateTime": "2023-12-25T22:11:04Z",
        "specimen": {
          "reference": "urn:uuid:eab556de-1766-4491-a4ca-75441c9edac5"
        }
      }
    },
    {
      "fullUrl": "urn:uuid:482a761a-a846-4b2a-8723-6da962899144",
      "resource": {
        "resourceType": "Observation",
        "id": "482a761a-a846-4b2a-8723-6da962899144",
        "meta": {
          "profile": [
            "http://hl7.eu/fhir/laboratory/StructureDefinition/Observation-resultslab-eu-lab"
          ]
        },
        "performer": [
          {
            "display": "The Central European Lab"
          }
        ],
        "category": [
          {
            "coding": [
              {
                "system": "http://terminology.hl7.org/CodeSystem/observation-category",
                "code": "laboratory"
              }
            ]
          }
        ],
        "code": {
          "coding": [
            {
              "code": "5778-6",
              "system": "http://loinc.org",
              "display": "Color of Urine"
            }
          ],
          "text": "Color of Urine"
        },
        "text": {
          "status": "generated",
          "div": "<div xmlns=\"http://www.w3.org/1999/xhtml\"><table class=\"hl7__eu__lab__report\"><tr><th>Test</th><th>25-Dec-2023</th><th>Reference&#xA0;Range</th><th>Unit</th></tr><tr><td>Color of Urine</td></tr></table></div>"
        },
        "status": "final",
        "subject": {
          "reference": "urn:uuid:ba9ff3ec-d3cd-45d9-8bb6-1422ce98a6cf",
          "display": "Meaghan Neary"
        },
        "effectiveDateTime": "2023-12-25T22:11:04Z",
        "specimen": {
          "reference": "urn:uuid:eab556de-1766-4491-a4ca-75441c9edac5"
        }
      }
    },
    {
      "fullUrl": "urn:uuid:ab9580da-079a-4f9c-8cc0-325ef650bf7e",
      "resource": {
        "resourceType": "Observation",
        "id": "ab9580da-079a-4f9c-8cc0-325ef650bf7e",
        "meta": {
          "profile": [
            "http://hl7.eu/fhir/laboratory/StructureDefinition/Observation-resultslab-eu-lab"
          ]
        },
        "performer": [
          {
            "display": "The Central European Lab"
          }
        ],
        "category": [
          {
            "coding": [
              {
                "system": "http://terminology.hl7.org/CodeSystem/observation-category",
                "code": "laboratory"
              }
            ]
          }
        ],
        "code": {
          "coding": [
            {
              "code": "5792-7",
              "system": "http://loinc.org",
              "display": "Glucose [Mass/volume] in Urine by Test strip"
            }
          ],
          "text": "Glucose [Mass/volume] in Urine by Test strip"
        },
        "valueQuantity": {
          "system": "http://unitsofmeasure.org",
          "value": 1.8,
          "unit": "mg/dL",
          "code": "mg/dL"
        },
        "referenceRange": [
          {
            "low": {
              "value": 0.8,
              "code": "mg/dL",
              "system": "http://unitsofmeasure.org"
            }
          },
          {
            "high": {
              "value": 0,
              "code": "mg/dL",
              "system": "http://unitsofmeasure.org"
            }
          }
        ],
        "interpretation": [
          {
            "coding": [
              {
                "code": "H",
                "system": "http://terminology.hl7.org/CodeSystem/v3-ObservationInterpretation",
                "display": "High"
              }
            ]
          }
        ],
        "text": {
          "status": "generated",
          "div": "<div xmlns=\"http://www.w3.org/1999/xhtml\"><table class=\"hl7__eu__lab__report\"><tr><th>Test</th><th>25-Dec-2023</th><th>Reference&#xA0;Range</th><th>Unit</th></tr><tr><td>Glucose [Mass/volume] in Urine by Test strip</td><td>1.8</td><td>0.8 - 0</td><td>H</td><td>mg/dL</td></tr></table></div>"
        },
        "status": "final",
        "subject": {
          "reference": "urn:uuid:ba9ff3ec-d3cd-45d9-8bb6-1422ce98a6cf",
          "display": "Meaghan Neary"
        },
        "effectiveDateTime": "2023-12-25T22:11:04Z",
        "specimen": {
          "reference": "urn:uuid:eab556de-1766-4491-a4ca-75441c9edac5"
        }
      }
    },
    {
      "fullUrl": "urn:uuid:b477e2eb-e174-484f-bb8d-17171846b585",
      "resource": {
        "resourceType": "Observation",
        "id": "b477e2eb-e174-484f-bb8d-17171846b585",
        "meta": {
          "profile": [
            "http://hl7.eu/fhir/laboratory/StructureDefinition/Observation-resultslab-eu-lab"
          ]
        },
        "performer": [
          {
            "display": "The Central European Lab"
          }
        ],
        "category": [
          {
            "coding": [
              {
                "system": "http://terminology.hl7.org/CodeSystem/observation-category",
                "code": "laboratory"
              }
            ]
          }
        ],
        "code": {
          "coding": [
            {
              "code": "25428-4",
              "system": "http://loinc.org",
              "display": "Glucose [Presence] in Urine by Test strip"
            }
          ],
          "text": "Glucose [Presence] in Urine by Test strip"
        },
        "text": {
          "status": "generated",
          "div": "<div xmlns=\"http://www.w3.org/1999/xhtml\"><table class=\"hl7__eu__lab__report\"><tr><th>Test</th><th>25-Dec-2023</th><th>Reference&#xA0;Range</th><th>Unit</th></tr><tr><td>Glucose [Presence] in Urine by Test strip</td></tr></table></div>"
        },
        "status": "final",
        "subject": {
          "reference": "urn:uuid:ba9ff3ec-d3cd-45d9-8bb6-1422ce98a6cf",
          "display": "Meaghan Neary"
        },
        "effectiveDateTime": "2023-12-25T22:11:04Z",
        "specimen": {
          "reference": "urn:uuid:eab556de-1766-4491-a4ca-75441c9edac5"
        }
      }
    },
    {
      "fullUrl": "urn:uuid:7f2d7069-3e91-4115-921b-06ce2c879604",
      "resource": {
        "resourceType": "Observation",
        "id": "7f2d7069-3e91-4115-921b-06ce2c879604",
        "meta": {
          "profile": [
            "http://hl7.eu/fhir/laboratory/StructureDefinition/Observation-resultslab-eu-lab"
          ]
        },
        "performer": [
          {
            "display": "The Central European Lab"
          }
        ],
        "category": [
          {
            "coding": [
              {
                "system": "http://terminology.hl7.org/CodeSystem/observation-category",
                "code": "laboratory"
              }
            ]
          }
        ],
        "code": {
          "coding": [
            {
              "code": "20505-4",
              "system": "http://loinc.org",
              "display": "Bilirubin.total [Mass/volume] in Urine by Test strip"
            }
          ],
          "text": "Bilirubin.total [Mass/volume] in Urine by Test strip"
        },
        "valueQuantity": {
          "system": "http://unitsofmeasure.org",
          "value": 1.5,
          "unit": "mg/dL",
          "code": "mg/dL"
        },
        "referenceRange": [
          {
            "low": {
              "value": 0,
              "code": "mg/dL",
              "system": "http://unitsofmeasure.org"
            }
          },
          {
            "high": {
              "value": 1,
              "code": "mg/dL",
              "system": "http://unitsofmeasure.org"
            }
          }
        ],
        "interpretation": [
          {
            "coding": [
              {
                "code": "H",
                "system": "http://terminology.hl7.org/CodeSystem/v3-ObservationInterpretation",
                "display": "High"
              }
            ]
          }
        ],
        "text": {
          "status": "generated",
          "div": "<div xmlns=\"http://www.w3.org/1999/xhtml\"><table class=\"hl7__eu__lab__report\"><tr><th>Test</th><th>25-Dec-2023</th><th>Reference&#xA0;Range</th><th>Unit</th></tr><tr><td>Bilirubin.total [Mass/volume] in Urine by Test strip</td><td>1.5</td><td>0 - 1</td><td>H</td><td>mg/dL</td></tr></table></div>"
        },
        "status": "final",
        "subject": {
          "reference": "urn:uuid:ba9ff3ec-d3cd-45d9-8bb6-1422ce98a6cf",
          "display": "Meaghan Neary"
        },
        "effectiveDateTime": "2023-12-25T22:11:04Z",
        "specimen": {
          "reference": "urn:uuid:eab556de-1766-4491-a4ca-75441c9edac5"
        }
      }
    },
    {
      "fullUrl": "urn:uuid:19727cc5-20da-46f2-833c-19409b2ebf0a",
      "resource": {
        "resourceType": "Observation",
        "id": "19727cc5-20da-46f2-833c-19409b2ebf0a",
        "meta": {
          "profile": [
            "http://hl7.eu/fhir/laboratory/StructureDefinition/Observation-resultslab-eu-lab"
          ]
        },
        "performer": [
          {
            "display": "The Central European Lab"
          }
        ],
        "category": [
          {
            "coding": [
              {
                "system": "http://terminology.hl7.org/CodeSystem/observation-category",
                "code": "laboratory"
              }
            ]
          }
        ],
        "code": {
          "coding": [
            {
              "code": "5770-3",
              "system": "http://loinc.org",
              "display": "Bilirubin.total [Presence] in Urine by Test strip"
            }
          ],
          "text": "Bilirubin.total [Presence] in Urine by Test strip"
        },
        "text": {
          "status": "generated",
          "div": "<div xmlns=\"http://www.w3.org/1999/xhtml\"><table class=\"hl7__eu__lab__report\"><tr><th>Test</th><th>25-Dec-2023</th><th>Reference&#xA0;Range</th><th>Unit</th></tr><tr><td>Bilirubin.total [Presence] in Urine by Test strip</td></tr></table></div>"
        },
        "status": "final",
        "subject": {
          "reference": "urn:uuid:ba9ff3ec-d3cd-45d9-8bb6-1422ce98a6cf",
          "display": "Meaghan Neary"
        },
        "effectiveDateTime": "2023-12-25T22:11:04Z",
        "specimen": {
          "reference": "urn:uuid:eab556de-1766-4491-a4ca-75441c9edac5"
        }
      }
    },
    {
      "fullUrl": "urn:uuid:9d3f2506-78b8-42cf-874f-130986de597f",
      "resource": {
        "resourceType": "Observation",
        "id": "9d3f2506-78b8-42cf-874f-130986de597f",
        "meta": {
          "profile": [
            "http://hl7.eu/fhir/laboratory/StructureDefinition/Observation-resultslab-eu-lab"
          ]
        },
        "performer": [
          {
            "display": "The Central European Lab"
          }
        ],
        "category": [
          {
            "coding": [
              {
                "system": "http://terminology.hl7.org/CodeSystem/observation-category",
                "code": "laboratory"
              }
            ]
          }
        ],
        "code": {
          "coding": [
            {
              "code": "5797-6",
              "system": "http://loinc.org",
              "display": "Ketones [Mass/volume] in Urine by Test strip"
            }
          ],
          "text": "Ketones [Mass/volume] in Urine by Test strip"
        },
        "valueQuantity": {
          "system": "http://unitsofmeasure.org",
          "value": 17.7,
          "unit": "mg/dL",
          "code": "mg/dL"
        },
        "referenceRange": [
          {
            "low": {
              "value": 0,
              "code": "mg/dL",
              "system": "http://unitsofmeasure.org"
            }
          },
          {
            "high": {
              "value": 4,
              "code": "mg/dL",
              "system": "http://unitsofmeasure.org"
            }
          }
        ],
        "interpretation": [
          {
            "coding": [
              {
                "code": "H",
                "system": "http://terminology.hl7.org/CodeSystem/v3-ObservationInterpretation",
                "display": "High"
              }
            ]
          }
        ],
        "text": {
          "status": "generated",
          "div": "<div xmlns=\"http://www.w3.org/1999/xhtml\"><table class=\"hl7__eu__lab__report\"><tr><th>Test</th><th>25-Dec-2023</th><th>Reference&#xA0;Range</th><th>Unit</th></tr><tr><td>Ketones [Mass/volume] in Urine by Test strip</td><td>17.7</td><td>0 - 4</td><td>H</td><td>mg/dL</td></tr></table></div>"
        },
        "status": "final",
        "subject": {
          "reference": "urn:uuid:ba9ff3ec-d3cd-45d9-8bb6-1422ce98a6cf",
          "display": "Meaghan Neary"
        },
        "effectiveDateTime": "2023-12-25T22:11:04Z",
        "specimen": {
          "reference": "urn:uuid:eab556de-1766-4491-a4ca-75441c9edac5"
        }
      }
    },
    {
      "fullUrl": "urn:uuid:1178337c-bb6c-4bf8-8979-0791c19f7335",
      "resource": {
        "resourceType": "Observation",
        "id": "1178337c-bb6c-4bf8-8979-0791c19f7335",
        "meta": {
          "profile": [
            "http://hl7.eu/fhir/laboratory/StructureDefinition/Observation-resultslab-eu-lab"
          ]
        },
        "performer": [
          {
            "display": "The Central European Lab"
          }
        ],
        "category": [
          {
            "coding": [
              {
                "system": "http://terminology.hl7.org/CodeSystem/observation-category",
                "code": "laboratory"
              }
            ]
          }
        ],
        "code": {
          "coding": [
            {
              "code": "2514-8",
              "system": "http://loinc.org",
              "display": "Ketones [Presence] in Urine by Test strip"
            }
          ],
          "text": "Ketones [Presence] in Urine by Test strip"
        },
        "text": {
          "status": "generated",
          "div": "<div xmlns=\"http://www.w3.org/1999/xhtml\"><table class=\"hl7__eu__lab__report\"><tr><th>Test</th><th>25-Dec-2023</th><th>Reference&#xA0;Range</th><th>Unit</th></tr><tr><td>Ketones [Presence] in Urine by Test strip</td></tr></table></div>"
        },
        "status": "final",
        "subject": {
          "reference": "urn:uuid:ba9ff3ec-d3cd-45d9-8bb6-1422ce98a6cf",
          "display": "Meaghan Neary"
        },
        "effectiveDateTime": "2023-12-25T22:11:04Z",
        "specimen": {
          "reference": "urn:uuid:eab556de-1766-4491-a4ca-75441c9edac5"
        }
      }
    },
    {
      "fullUrl": "urn:uuid:f43b2904-9c91-4da7-9d49-740ec4e89fb2",
      "resource": {
        "resourceType": "Observation",
        "id": "f43b2904-9c91-4da7-9d49-740ec4e89fb2",
        "meta": {
          "profile": [
            "http://hl7.eu/fhir/laboratory/StructureDefinition/Observation-resultslab-eu-lab"
          ]
        },
        "performer": [
          {
            "display": "The Central European Lab"
          }
        ],
        "category": [
          {
            "coding": [
              {
                "system": "http://terminology.hl7.org/CodeSystem/observation-category",
                "code": "laboratory"
              }
            ]
          }
        ],
        "code": {
          "coding": [
            {
              "code": "5811-5",
              "system": "http://loinc.org",
              "display": "Specific gravity of Urine by Test strip"
            }
          ],
          "text": "Specific gravity of Urine by Test strip"
        },
        "valueQuantity": {
          "system": "http://unitsofmeasure.org",
          "value": 1,
          "unit": "{nominal}",
          "code": "{nominal}"
        },
        "referenceRange": [
          {
            "low": {
              "value": 1.005,
              "code": "g/mL",
              "system": "http://unitsofmeasure.org"
            }
          },
          {
            "high": {
              "value": 1.03,
              "code": "g/mL",
              "system": "http://unitsofmeasure.org"
            }
          }
        ],
        "interpretation": [
          {
            "coding": [
              {
                "code": "L",
                "system": "http://terminology.hl7.org/CodeSystem/v3-ObservationInterpretation",
                "display": "Low"
              }
            ]
          }
        ],
        "text": {
          "status": "generated",
          "div": "<div xmlns=\"http://www.w3.org/1999/xhtml\"><table class=\"hl7__eu__lab__report\"><tr><th>Test</th><th>25-Dec-2023</th><th>Reference&#xA0;Range</th><th>Unit</th></tr><tr><td>Specific gravity of Urine by Test strip</td><td>1.0</td><td>1.005 - 1.03</td><td>L</td><td>{nominal}</td></tr></table></div>"
        },
        "status": "final",
        "subject": {
          "reference": "urn:uuid:ba9ff3ec-d3cd-45d9-8bb6-1422ce98a6cf",
          "display": "Meaghan Neary"
        },
        "effectiveDateTime": "2023-12-25T22:11:04Z",
        "specimen": {
          "reference": "urn:uuid:eab556de-1766-4491-a4ca-75441c9edac5"
        }
      }
    },
    {
      "fullUrl": "urn:uuid:5e3efa52-635e-470f-9679-cd4d780065fb",
      "resource": {
        "resourceType": "Observation",
        "id": "5e3efa52-635e-470f-9679-cd4d780065fb",
        "meta": {
          "profile": [
            "http://hl7.eu/fhir/laboratory/StructureDefinition/Observation-resultslab-eu-lab"
          ]
        },
        "performer": [
          {
            "display": "The Central European Lab"
          }
        ],
        "category": [
          {
            "coding": [
              {
                "system": "http://terminology.hl7.org/CodeSystem/observation-category",
                "code": "laboratory"
              }
            ]
          }
        ],
        "code": {
          "coding": [
            {
              "code": "5803-2",
              "system": "http://loinc.org",
              "display": "pH of Urine by Test strip"
            }
          ],
          "text": "pH of Urine by Test strip"
        },
        "valueQuantity": {
          "system": "http://unitsofmeasure.org",
          "value": 6,
          "unit": "pH",
          "code": "pH"
        },
        "referenceRange": [
          {
            "low": {
              "value": 4.6,
              "code": "pH",
              "system": "http://unitsofmeasure.org"
            }
          },
          {
            "high": {
              "value": 7,
              "code": "pH",
              "system": "http://unitsofmeasure.org"
            }
          }
        ],
        "text": {
          "status": "generated",
          "div": "<div xmlns=\"http://www.w3.org/1999/xhtml\"><table class=\"hl7__eu__lab__report\"><tr><th>Test</th><th>25-Dec-2023</th><th>Reference&#xA0;Range</th><th>Unit</th></tr><tr><td>pH of Urine by Test strip</td><td>6.0</td><td>4.6 - 7</td><td></td><td>pH</td></tr></table></div>"
        },
        "status": "final",
        "subject": {
          "reference": "urn:uuid:ba9ff3ec-d3cd-45d9-8bb6-1422ce98a6cf",
          "display": "Meaghan Neary"
        },
        "effectiveDateTime": "2023-12-25T22:11:04Z",
        "specimen": {
          "reference": "urn:uuid:eab556de-1766-4491-a4ca-75441c9edac5"
        }
      }
    },
    {
      "fullUrl": "urn:uuid:2cb5162d-1bf5-43ab-bc49-ff5baf3f5404",
      "resource": {
        "resourceType": "Observation",
        "id": "2cb5162d-1bf5-43ab-bc49-ff5baf3f5404",
        "meta": {
          "profile": [
            "http://hl7.eu/fhir/laboratory/StructureDefinition/Observation-resultslab-eu-lab"
          ]
        },
        "performer": [
          {
            "display": "The Central European Lab"
          }
        ],
        "category": [
          {
            "coding": [
              {
                "system": "http://terminology.hl7.org/CodeSystem/observation-category",
                "code": "laboratory"
              }
            ]
          }
        ],
        "code": {
          "coding": [
            {
              "code": "5804-0",
              "system": "http://loinc.org",
              "display": "Protein [Mass/volume] in Urine by Test strip"
            }
          ],
          "text": "Protein [Mass/volume] in Urine by Test strip"
        },
        "valueQuantity": {
          "system": "http://unitsofmeasure.org",
          "value": 285.7,
          "unit": "mg/dL",
          "code": "mg/dL"
        },
        "referenceRange": [
          {
            "low": {
              "value": 0,
              "code": "mg/dL",
              "system": "http://unitsofmeasure.org"
            }
          },
          {
            "high": {
              "value": 14,
              "code": "mg/dL",
              "system": "http://unitsofmeasure.org"
            }
          }
        ],
        "interpretation": [
          {
            "coding": [
              {
                "code": "H",
                "system": "http://terminology.hl7.org/CodeSystem/v3-ObservationInterpretation",
                "display": "High"
              }
            ]
          }
        ],
        "text": {
          "status": "generated",
          "div": "<div xmlns=\"http://www.w3.org/1999/xhtml\"><table class=\"hl7__eu__lab__report\"><tr><th>Test</th><th>25-Dec-2023</th><th>Reference&#xA0;Range</th><th>Unit</th></tr><tr><td>Protein [Mass/volume] in Urine by Test strip</td><td>285.7</td><td>0 - 14</td><td>H</td><td>mg/dL</td></tr></table></div>"
        },
        "status": "final",
        "subject": {
          "reference": "urn:uuid:ba9ff3ec-d3cd-45d9-8bb6-1422ce98a6cf",
          "display": "Meaghan Neary"
        },
        "effectiveDateTime": "2023-12-25T22:11:04Z",
        "specimen": {
          "reference": "urn:uuid:eab556de-1766-4491-a4ca-75441c9edac5"
        }
      }
    },
    {
      "fullUrl": "urn:uuid:0169fcbf-cbe6-4211-bd58-ce5a0d5940fe",
      "resource": {
        "resourceType": "Observation",
        "id": "0169fcbf-cbe6-4211-bd58-ce5a0d5940fe",
        "meta": {
          "profile": [
            "http://hl7.eu/fhir/laboratory/StructureDefinition/Observation-resultslab-eu-lab"
          ]
        },
        "performer": [
          {
            "display": "The Central European Lab"
          }
        ],
        "category": [
          {
            "coding": [
              {
                "system": "http://terminology.hl7.org/CodeSystem/observation-category",
                "code": "laboratory"
              }
            ]
          }
        ],
        "code": {
          "coding": [
            {
              "code": "20454-5",
              "system": "http://loinc.org",
              "display": "Protein [Presence] in Urine by Test strip"
            }
          ],
          "text": "Protein [Presence] in Urine by Test strip"
        },
        "text": {
          "status": "generated",
          "div": "<div xmlns=\"http://www.w3.org/1999/xhtml\"><table class=\"hl7__eu__lab__report\"><tr><th>Test</th><th>25-Dec-2023</th><th>Reference&#xA0;Range</th><th>Unit</th></tr><tr><td>Protein [Presence] in Urine by Test strip</td></tr></table></div>"
        },
        "status": "final",
        "subject": {
          "reference": "urn:uuid:ba9ff3ec-d3cd-45d9-8bb6-1422ce98a6cf",
          "display": "Meaghan Neary"
        },
        "effectiveDateTime": "2023-12-25T22:11:04Z",
        "specimen": {
          "reference": "urn:uuid:eab556de-1766-4491-a4ca-75441c9edac5"
        }
      }
    },
    {
      "fullUrl": "urn:uuid:6024040f-4b08-440e-9c19-96372cd37c08",
      "resource": {
        "resourceType": "Observation",
        "id": "6024040f-4b08-440e-9c19-96372cd37c08",
        "meta": {
          "profile": [
            "http://hl7.eu/fhir/laboratory/StructureDefinition/Observation-resultslab-eu-lab"
          ]
        },
        "performer": [
          {
            "display": "The Central European Lab"
          }
        ],
        "category": [
          {
            "coding": [
              {
                "system": "http://terminology.hl7.org/CodeSystem/observation-category",
                "code": "laboratory"
              }
            ]
          }
        ],
        "code": {
          "coding": [
            {
              "code": "5802-4",
              "system": "http://loinc.org",
              "display": "Nitrite [Presence] in Urine by Test strip"
            }
          ],
          "text": "Nitrite [Presence] in Urine by Test strip"
        },
        "text": {
          "status": "generated",
          "div": "<div xmlns=\"http://www.w3.org/1999/xhtml\"><table class=\"hl7__eu__lab__report\"><tr><th>Test</th><th>25-Dec-2023</th><th>Reference&#xA0;Range</th><th>Unit</th></tr><tr><td>Nitrite [Presence] in Urine by Test strip</td></tr></table></div>"
        },
        "status": "final",
        "subject": {
          "reference": "urn:uuid:ba9ff3ec-d3cd-45d9-8bb6-1422ce98a6cf",
          "display": "Meaghan Neary"
        },
        "effectiveDateTime": "2023-12-25T22:11:04Z",
        "specimen": {
          "reference": "urn:uuid:eab556de-1766-4491-a4ca-75441c9edac5"
        }
      }
    },
    {
      "fullUrl": "urn:uuid:fc8dd1a4-5d40-4b46-b6ea-cb2c12d65c42",
      "resource": {
        "resourceType": "Observation",
        "id": "fc8dd1a4-5d40-4b46-b6ea-cb2c12d65c42",
        "meta": {
          "profile": [
            "http://hl7.eu/fhir/laboratory/StructureDefinition/Observation-resultslab-eu-lab"
          ]
        },
        "performer": [
          {
            "display": "The Central European Lab"
          }
        ],
        "category": [
          {
            "coding": [
              {
                "system": "http://terminology.hl7.org/CodeSystem/observation-category",
                "code": "laboratory"
              }
            ]
          }
        ],
        "code": {
          "coding": [
            {
              "code": "5794-3",
              "system": "http://loinc.org",
              "display": "Hemoglobin [Presence] in Urine by Test strip"
            }
          ],
          "text": "Hemoglobin [Presence] in Urine by Test strip"
        },
        "text": {
          "status": "generated",
          "div": "<div xmlns=\"http://www.w3.org/1999/xhtml\"><table class=\"hl7__eu__lab__report\"><tr><th>Test</th><th>25-Dec-2023</th><th>Reference&#xA0;Range</th><th>Unit</th></tr><tr><td>Hemoglobin [Presence] in Urine by Test strip</td></tr></table></div>"
        },
        "status": "final",
        "subject": {
          "reference": "urn:uuid:ba9ff3ec-d3cd-45d9-8bb6-1422ce98a6cf",
          "display": "Meaghan Neary"
        },
        "effectiveDateTime": "2023-12-25T22:11:04Z",
        "specimen": {
          "reference": "urn:uuid:eab556de-1766-4491-a4ca-75441c9edac5"
        }
      }
    },
    {
      "fullUrl": "urn:uuid:d310f3b9-0ef9-4442-aa9e-57681fa98fdd",
      "resource": {
        "resourceType": "Observation",
        "id": "d310f3b9-0ef9-4442-aa9e-57681fa98fdd",
        "meta": {
          "profile": [
            "http://hl7.eu/fhir/laboratory/StructureDefinition/Observation-resultslab-eu-lab"
          ]
        },
        "performer": [
          {
            "display": "The Central European Lab"
          }
        ],
        "category": [
          {
            "coding": [
              {
                "system": "http://terminology.hl7.org/CodeSystem/observation-category",
                "code": "laboratory"
              }
            ]
          }
        ],
        "code": {
          "coding": [
            {
              "code": "5799-2",
              "system": "http://loinc.org",
              "display": "Leukocyte esterase [Presence] in Urine by Test strip"
            }
          ],
          "text": "Leukocyte esterase [Presence] in Urine by Test strip"
        },
        "text": {
          "status": "generated",
          "div": "<div xmlns=\"http://www.w3.org/1999/xhtml\"><table class=\"hl7__eu__lab__report\"><tr><th>Test</th><th>25-Dec-2023</th><th>Reference&#xA0;Range</th><th>Unit</th></tr><tr><td>Leukocyte esterase [Presence] in Urine by Test strip</td></tr></table></div>"
        },
        "status": "final",
        "subject": {
          "reference": "urn:uuid:ba9ff3ec-d3cd-45d9-8bb6-1422ce98a6cf",
          "display": "Meaghan Neary"
        },
        "effectiveDateTime": "2023-12-25T22:11:04Z",
        "specimen": {
          "reference": "urn:uuid:eab556de-1766-4491-a4ca-75441c9edac5"
        }
      }
    },
    {
      "fullUrl": "urn:uuid:d1a2b8fc-4741-4df8-9f8f-7f51696f104a",
      "resource": {
        "resourceType": "Observation",
        "id": "d1a2b8fc-4741-4df8-9f8f-7f51696f104a",
        "meta": {
          "profile": [
            "http://hl7.eu/fhir/laboratory/StructureDefinition/Observation-resultslab-eu-lab"
          ]
        },
        "performer": [
          {
            "display": "The Central European Lab"
          }
        ],
        "category": [
          {
            "coding": [
              {
                "system": "http://terminology.hl7.org/CodeSystem/observation-category",
                "code": "laboratory"
              }
            ]
          }
        ],
        "code": {
          "coding": [
            {
              "code": "4548-4",
              "system": "http://loinc.org",
              "display": "Hemoglobin A1c/Hemoglobin.total in Blood"
            }
          ],
          "text": "Hemoglobin A1c/Hemoglobin.total in Blood"
        },
        "valueQuantity": {
          "system": "http://unitsofmeasure.org",
          "value": 4,
          "unit": "%",
          "code": "%"
        },
        "referenceRange": [
          {
            "low": {
              "value": 4,
              "code": "%",
              "system": "http://unitsofmeasure.org"
            }
          },
          {
            "high": {
              "value": 6.4,
              "code": "%",
              "system": "http://unitsofmeasure.org"
            }
          }
        ],
        "text": {
          "status": "generated",
          "div": "<div xmlns=\"http://www.w3.org/1999/xhtml\"><table class=\"hl7__eu__lab__report\"><tr><th>Test</th><th>25-Dec-2023</th><th>Reference&#xA0;Range</th><th>Unit</th></tr><tr><td>Hemoglobin A1c/Hemoglobin.total in Blood</td><td>4.0</td><td>4 - 6.4</td><td></td><td>%</td></tr></table></div>"
        },
        "status": "final",
        "subject": {
          "reference": "urn:uuid:ba9ff3ec-d3cd-45d9-8bb6-1422ce98a6cf",
          "display": "Meaghan Neary"
        },
        "effectiveDateTime": "2023-12-25T22:11:04Z",
        "specimen": {
          "reference": "urn:uuid:cf969c6f-28b7-4876-96e0-2869b78fc583"
        }
      }
    },
    {
      "fullUrl": "urn:uuid:a78fd84e-935d-4559-853e-82af79ac3ab8",
      "resource": {
        "resourceType": "Observation",
        "id": "a78fd84e-935d-4559-853e-82af79ac3ab8",
        "meta": {
          "profile": [
            "http://hl7.eu/fhir/laboratory/StructureDefinition/Observation-resultslab-eu-lab"
          ]
        },
        "performer": [
          {
            "display": "The Central European Lab"
          }
        ],
        "category": [
          {
            "coding": [
              {
                "system": "http://terminology.hl7.org/CodeSystem/observation-category",
                "code": "laboratory"
              }
            ]
          }
        ],
        "code": {
          "coding": [
            {
              "code": "2339-0",
              "system": "http://loinc.org",
              "display": "Glucose [Mass/volume] in Blood"
            }
          ],
          "text": "Glucose [Mass/volume] in Blood"
        },
        "valueQuantity": {
          "system": "http://unitsofmeasure.org",
          "value": 74.2,
          "unit": "mg/dL",
          "code": "mg/dL"
        },
        "referenceRange": [
          {
            "low": {
              "value": 70,
              "code": "mg/dL",
              "system": "http://unitsofmeasure.org"
            }
          },
          {
            "high": {
              "value": 100,
              "code": "mg/dL",
              "system": "http://unitsofmeasure.org"
            }
          }
        ],
        "text": {
          "status": "generated",
          "div": "<div xmlns=\"http://www.w3.org/1999/xhtml\"><table class=\"hl7__eu__lab__report\"><tr><th>Test</th><th>25-Dec-2023</th><th>Reference&#xA0;Range</th><th>Unit</th></tr><tr><td>Glucose [Mass/volume] in Blood</td><td>74.2</td><td>70 - 100</td><td></td><td>mg/dL</td></tr></table></div>"
        },
        "status": "final",
        "subject": {
          "reference": "urn:uuid:ba9ff3ec-d3cd-45d9-8bb6-1422ce98a6cf",
          "display": "Meaghan Neary"
        },
        "effectiveDateTime": "2023-12-25T22:11:04Z",
        "specimen": {
          "reference": "urn:uuid:cf969c6f-28b7-4876-96e0-2869b78fc583"
        }
      }
    },
    {
      "fullUrl": "urn:uuid:f8cd2d47-3f7c-4e4f-9199-11b557ac18e8",
      "resource": {
        "resourceType": "Observation",
        "id": "f8cd2d47-3f7c-4e4f-9199-11b557ac18e8",
        "meta": {
          "profile": [
            "http://hl7.eu/fhir/laboratory/StructureDefinition/Observation-resultslab-eu-lab"
          ]
        },
        "performer": [
          {
            "display": "The Central European Lab"
          }
        ],
        "category": [
          {
            "coding": [
              {
                "system": "http://terminology.hl7.org/CodeSystem/observation-category",
                "code": "laboratory"
              }
            ]
          }
        ],
        "code": {
          "coding": [
            {
              "code": "6299-2",
              "system": "http://loinc.org",
              "display": "Urea nitrogen [Mass/volume] in Blood"
            }
          ],
          "text": "Urea nitrogen [Mass/volume] in Blood"
        },
        "valueQuantity": {
          "system": "http://unitsofmeasure.org",
          "value": 16.4,
          "unit": "mg/dL",
          "code": "mg/dL"
        },
        "referenceRange": [
          {
            "low": {
              "value": 7,
              "code": "mg/dL",
              "system": "http://unitsofmeasure.org"
            }
          },
          {
            "high": {
              "value": 43,
              "code": "mg/dL",
              "system": "http://unitsofmeasure.org"
            }
          }
        ],
        "text": {
          "status": "generated",
          "div": "<div xmlns=\"http://www.w3.org/1999/xhtml\"><table class=\"hl7__eu__lab__report\"><tr><th>Test</th><th>25-Dec-2023</th><th>Reference&#xA0;Range</th><th>Unit</th></tr><tr><td>Urea nitrogen [Mass/volume] in Blood</td><td>16.4</td><td>7 - 43</td><td></td><td>mg/dL</td></tr></table></div>"
        },
        "status": "final",
        "subject": {
          "reference": "urn:uuid:ba9ff3ec-d3cd-45d9-8bb6-1422ce98a6cf",
          "display": "Meaghan Neary"
        },
        "effectiveDateTime": "2023-12-25T22:11:04Z",
        "specimen": {
          "reference": "urn:uuid:cf969c6f-28b7-4876-96e0-2869b78fc583"
        }
      }
    },
    {
      "fullUrl": "urn:uuid:ee553fd7-6cf6-4552-9b53-9e8e2b85fdab",
      "resource": {
        "resourceType": "Observation",
        "id": "ee553fd7-6cf6-4552-9b53-9e8e2b85fdab",
        "meta": {
          "profile": [
            "http://hl7.eu/fhir/laboratory/StructureDefinition/Observation-resultslab-eu-lab"
          ]
        },
        "performer": [
          {
            "display": "The Central European Lab"
          }
        ],
        "category": [
          {
            "coding": [
              {
                "system": "http://terminology.hl7.org/CodeSystem/observation-category",
                "code": "laboratory"
              }
            ]
          }
        ],
        "code": {
          "coding": [
            {
              "code": "38483-4",
              "system": "http://loinc.org",
              "display": "Creatinine [Mass/volume] in Blood"
            }
          ],
          "text": "Creatinine [Mass/volume] in Blood"
        },
        "valueQuantity": {
          "system": "http://unitsofmeasure.org",
          "value": 4,
          "unit": "mg/dL",
          "code": "mg/dL"
        },
        "referenceRange": [
          {
            "low": {
              "value": 0.6,
              "code": "mg/dL",
              "system": "http://unitsofmeasure.org"
            }
          },
          {
            "high": {
              "value": 1.1,
              "code": "mg/dL",
              "system": "http://unitsofmeasure.org"
            }
          }
        ],
        "interpretation": [
          {
            "coding": [
              {
                "code": "H",
                "system": "http://terminology.hl7.org/CodeSystem/v3-ObservationInterpretation",
                "display": "High"
              }
            ]
          }
        ],
        "text": {
          "status": "generated",
          "div": "<div xmlns=\"http://www.w3.org/1999/xhtml\"><table class=\"hl7__eu__lab__report\"><tr><th>Test</th><th>25-Dec-2023</th><th>Reference&#xA0;Range</th><th>Unit</th></tr><tr><td>Creatinine [Mass/volume] in Blood</td><td>4.0</td><td>0.6 - 1.1</td><td>H</td><td>mg/dL</td></tr></table></div>"
        },
        "status": "final",
        "subject": {
          "reference": "urn:uuid:ba9ff3ec-d3cd-45d9-8bb6-1422ce98a6cf",
          "display": "Meaghan Neary"
        },
        "effectiveDateTime": "2023-12-25T22:11:04Z",
        "specimen": {
          "reference": "urn:uuid:cf969c6f-28b7-4876-96e0-2869b78fc583"
        }
      }
    },
    {
      "fullUrl": "urn:uuid:3f997714-95aa-4f89-8e39-fb6310f5ee6f",
      "resource": {
        "resourceType": "Observation",
        "id": "3f997714-95aa-4f89-8e39-fb6310f5ee6f",
        "meta": {
          "profile": [
            "http://hl7.eu/fhir/laboratory/StructureDefinition/Observation-resultslab-eu-lab"
          ]
        },
        "performer": [
          {
            "display": "The Central European Lab"
          }
        ],
        "category": [
          {
            "coding": [
              {
                "system": "http://terminology.hl7.org/CodeSystem/observation-category",
                "code": "laboratory"
              }
            ]
          }
        ],
        "code": {
          "coding": [
            {
              "code": "49765-1",
              "system": "http://loinc.org",
              "display": "Calcium [Mass/volume] in Blood"
            }
          ],
          "text": "Calcium [Mass/volume] in Blood"
        },
        "valueQuantity": {
          "system": "http://unitsofmeasure.org",
          "value": 9.7,
          "unit": "mg/dL",
          "code": "mg/dL"
        },
        "referenceRange": [
          {
            "low": {
              "value": 8.5,
              "code": "mg/dL",
              "system": "http://unitsofmeasure.org"
            }
          },
          {
            "high": {
              "value": 10.5,
              "code": "mg/dL",
              "system": "http://unitsofmeasure.org"
            }
          }
        ],
        "text": {
          "status": "generated",
          "div": "<div xmlns=\"http://www.w3.org/1999/xhtml\"><table class=\"hl7__eu__lab__report\"><tr><th>Test</th><th>25-Dec-2023</th><th>Reference&#xA0;Range</th><th>Unit</th></tr><tr><td>Calcium [Mass/volume] in Blood</td><td>9.7</td><td>8.5 - 10.5</td><td></td><td>mg/dL</td></tr></table></div>"
        },
        "status": "final",
        "subject": {
          "reference": "urn:uuid:ba9ff3ec-d3cd-45d9-8bb6-1422ce98a6cf",
          "display": "Meaghan Neary"
        },
        "effectiveDateTime": "2023-12-25T22:11:04Z",
        "specimen": {
          "reference": "urn:uuid:cf969c6f-28b7-4876-96e0-2869b78fc583"
        }
      }
    },
    {
      "fullUrl": "urn:uuid:21cf9da6-ead1-4456-99db-47d81be3738c",
      "resource": {
        "resourceType": "Observation",
        "id": "21cf9da6-ead1-4456-99db-47d81be3738c",
        "meta": {
          "profile": [
            "http://hl7.eu/fhir/laboratory/StructureDefinition/Observation-resultslab-eu-lab"
          ]
        },
        "performer": [
          {
            "display": "The Central European Lab"
          }
        ],
        "category": [
          {
            "coding": [
              {
                "system": "http://terminology.hl7.org/CodeSystem/observation-category",
                "code": "laboratory"
              }
            ]
          }
        ],
        "code": {
          "coding": [
            {
              "code": "2947-0",
              "system": "http://loinc.org",
              "display": "Sodium [Moles/volume] in Blood"
            }
          ],
          "text": "Sodium [Moles/volume] in Blood"
        },
        "valueQuantity": {
          "system": "http://unitsofmeasure.org",
          "value": 137.7,
          "unit": "mmol/L",
          "code": "mmol/L"
        },
        "referenceRange": [
          {
            "low": {
              "value": 135,
              "code": "mmol/L",
              "system": "http://unitsofmeasure.org"
            }
          },
          {
            "high": {
              "value": 145,
              "code": "mmol/L",
              "system": "http://unitsofmeasure.org"
            }
          }
        ],
        "text": {
          "status": "generated",
          "div": "<div xmlns=\"http://www.w3.org/1999/xhtml\"><table class=\"hl7__eu__lab__report\"><tr><th>Test</th><th>25-Dec-2023</th><th>Reference&#xA0;Range</th><th>Unit</th></tr><tr><td>Sodium [Moles/volume] in Blood</td><td>137.7</td><td>135 - 145</td><td></td><td>mmol/L</td></tr></table></div>"
        },
        "status": "final",
        "subject": {
          "reference": "urn:uuid:ba9ff3ec-d3cd-45d9-8bb6-1422ce98a6cf",
          "display": "Meaghan Neary"
        },
        "effectiveDateTime": "2023-12-25T22:11:04Z",
        "specimen": {
          "reference": "urn:uuid:cf969c6f-28b7-4876-96e0-2869b78fc583"
        }
      }
    },
    {
      "fullUrl": "urn:uuid:5358d03f-e860-4279-bc41-66672f0cbf6d",
      "resource": {
        "resourceType": "Observation",
        "id": "5358d03f-e860-4279-bc41-66672f0cbf6d",
        "meta": {
          "profile": [
            "http://hl7.eu/fhir/laboratory/StructureDefinition/Observation-resultslab-eu-lab"
          ]
        },
        "performer": [
          {
            "display": "The Central European Lab"
          }
        ],
        "category": [
          {
            "coding": [
              {
                "system": "http://terminology.hl7.org/CodeSystem/observation-category",
                "code": "laboratory"
              }
            ]
          }
        ],
        "code": {
          "coding": [
            {
              "code": "6298-4",
              "system": "http://loinc.org",
              "display": "Potassium [Moles/volume] in Blood"
            }
          ],
          "text": "Potassium [Moles/volume] in Blood"
        },
        "valueQuantity": {
          "system": "http://unitsofmeasure.org",
          "value": 4.5,
          "unit": "mmol/L",
          "code": "mmol/L"
        },
        "referenceRange": [
          {
            "low": {
              "value": 3.5,
              "code": "mmol/L",
              "system": "http://unitsofmeasure.org"
            }
          },
          {
            "high": {
              "value": 5.1,
              "code": "mmol/L",
              "system": "http://unitsofmeasure.org"
            }
          }
        ],
        "text": {
          "status": "generated",
          "div": "<div xmlns=\"http://www.w3.org/1999/xhtml\"><table class=\"hl7__eu__lab__report\"><tr><th>Test</th><th>25-Dec-2023</th><th>Reference&#xA0;Range</th><th>Unit</th></tr><tr><td>Potassium [Moles/volume] in Blood</td><td>4.5</td><td>3.5 - 5.1</td><td></td><td>mmol/L</td></tr></table></div>"
        },
        "status": "final",
        "subject": {
          "reference": "urn:uuid:ba9ff3ec-d3cd-45d9-8bb6-1422ce98a6cf",
          "display": "Meaghan Neary"
        },
        "effectiveDateTime": "2023-12-25T22:11:04Z",
        "specimen": {
          "reference": "urn:uuid:cf969c6f-28b7-4876-96e0-2869b78fc583"
        }
      }
    },
    {
      "fullUrl": "urn:uuid:91d23e8a-ae68-436f-b95b-032910deb662",
      "resource": {
        "resourceType": "Observation",
        "id": "91d23e8a-ae68-436f-b95b-032910deb662",
        "meta": {
          "profile": [
            "http://hl7.eu/fhir/laboratory/StructureDefinition/Observation-resultslab-eu-lab"
          ]
        },
        "performer": [
          {
            "display": "The Central European Lab"
          }
        ],
        "category": [
          {
            "coding": [
              {
                "system": "http://terminology.hl7.org/CodeSystem/observation-category",
                "code": "laboratory"
              }
            ]
          }
        ],
        "code": {
          "coding": [
            {
              "code": "2069-3",
              "system": "http://loinc.org",
              "display": "Chloride [Moles/volume] in Blood"
            }
          ],
          "text": "Chloride [Moles/volume] in Blood"
        },
        "valueQuantity": {
          "system": "http://unitsofmeasure.org",
          "value": 103.5,
          "unit": "mmol/L",
          "code": "mmol/L"
        },
        "referenceRange": [
          {
            "low": {
              "value": 98,
              "code": "mmol/L",
              "system": "http://unitsofmeasure.org"
            }
          },
          {
            "high": {
              "value": 108,
              "code": "mmol/L",
              "system": "http://unitsofmeasure.org"
            }
          }
        ],
        "text": {
          "status": "generated",
          "div": "<div xmlns=\"http://www.w3.org/1999/xhtml\"><table class=\"hl7__eu__lab__report\"><tr><th>Test</th><th>25-Dec-2023</th><th>Reference&#xA0;Range</th><th>Unit</th></tr><tr><td>Chloride [Moles/volume] in Blood</td><td>103.5</td><td>98 - 108</td><td></td><td>mmol/L</td></tr></table></div>"
        },
        "status": "final",
        "subject": {
          "reference": "urn:uuid:ba9ff3ec-d3cd-45d9-8bb6-1422ce98a6cf",
          "display": "Meaghan Neary"
        },
        "effectiveDateTime": "2023-12-25T22:11:04Z",
        "specimen": {
          "reference": "urn:uuid:cf969c6f-28b7-4876-96e0-2869b78fc583"
        }
      }
    },
    {
      "fullUrl": "urn:uuid:b7d0378c-a03d-4dd4-bbc7-776d3d3fe37a",
      "resource": {
        "resourceType": "Observation",
        "id": "b7d0378c-a03d-4dd4-bbc7-776d3d3fe37a",
        "meta": {
          "profile": [
            "http://hl7.eu/fhir/laboratory/StructureDefinition/Observation-resultslab-eu-lab"
          ]
        },
        "performer": [
          {
            "display": "The Central European Lab"
          }
        ],
        "category": [
          {
            "coding": [
              {
                "system": "http://terminology.hl7.org/CodeSystem/observation-category",
                "code": "laboratory"
              }
            ]
          }
        ],
        "code": {
          "coding": [
            {
              "code": "20565-8",
              "system": "http://loinc.org",
              "display": "Carbon dioxide, total [Moles/volume] in Blood"
            }
          ],
          "text": "Carbon dioxide, total [Moles/volume] in Blood"
        },
        "valueQuantity": {
          "system": "http://unitsofmeasure.org",
          "value": 21.1,
          "unit": "mmol/L",
          "code": "mmol/L"
        },
        "referenceRange": [
          {
            "low": {
              "value": 22,
              "code": "mmol/L",
              "system": "http://unitsofmeasure.org"
            }
          },
          {
            "high": {
              "value": 29,
              "code": "mmol/L",
              "system": "http://unitsofmeasure.org"
            }
          }
        ],
        "interpretation": [
          {
            "coding": [
              {
                "code": "L",
                "system": "http://terminology.hl7.org/CodeSystem/v3-ObservationInterpretation",
                "display": "Low"
              }
            ]
          }
        ],
        "text": {
          "status": "generated",
          "div": "<div xmlns=\"http://www.w3.org/1999/xhtml\"><table class=\"hl7__eu__lab__report\"><tr><th>Test</th><th>25-Dec-2023</th><th>Reference&#xA0;Range</th><th>Unit</th></tr><tr><td>Carbon dioxide, total [Moles/volume] in Blood</td><td>21.1</td><td>22 - 29</td><td>L</td><td>mmol/L</td></tr></table></div>"
        },
        "status": "final",
        "subject": {
          "reference": "urn:uuid:ba9ff3ec-d3cd-45d9-8bb6-1422ce98a6cf",
          "display": "Meaghan Neary"
        },
        "effectiveDateTime": "2023-12-25T22:11:04Z",
        "specimen": {
          "reference": "urn:uuid:cf969c6f-28b7-4876-96e0-2869b78fc583"
        }
      }
    },
    {
      "fullUrl": "urn:uuid:dc562278-1c70-4cf1-9b31-7875f0d3d464",
      "resource": {
        "resourceType": "Device",
        "id": "dc562278-1c70-4cf1-9b31-7875f0d3d464",
        "deviceName": [
          {
            "name": "SYNDERAI Synthetic Generator",
            "type": "manufacturer-name"
          }
        ],
        "version": [
          {
            "value": "5.0"
          }
        ],
        "text": {
          "status": "generated",
          "div": "<div xmlns=\"http://www.w3.org/1999/xhtml\">SYNDERAI Synthetic Generator v5.0</div>"
        },
        "status": "active\"",
        "distinctIdentifier": "synderai-generator-50",
        "manufacturer": "SYNDERAI Project"
      }
    },
    {
      "fullUrl": "urn:uuid:76762ca9-5f86-47c4-aabe-122ab5d2e46b",
      "resource": {
        "resourceType": "Provenance",
        "id": "76762ca9-5f86-47c4-aabe-122ab5d2e46b",
        "target": [
          {
            "reference": "Patient/ba9ff3ec-d3cd-45d9-8bb6-1422ce98a6cf"
          },
          {
            "reference": "Bundle/d379e34f-a8a8-4e49-8290-f8357431175d"
          },
          {
            "reference": "Composition/cf07b99a-517f-4d54-864a-1f703e0aa159"
          },
          {
            "reference": "PractitionerRole/0b77a616-b16e-45da-b35f-987cca554732"
          },
          {
            "reference": "Practitioner/e331fb2c-8598-4ad3-98da-a15615e5fdca"
          },
          {
            "reference": "PractitionerRole/6fe5c8e8-7983-48f3-8eae-2ab210c72542"
          },
          {
            "reference": "Organization/d94f2702-cd0d-47da-83d3-372a3418fcdb"
          }
        ],
        "activity": {
          "text": "Synthetic Example Data Generation"
        },
        "policy": [
          "https://synderai.net/synderai-synthetic-data-policy"
        ],
        "agent": [
          {
            "type": {
              "text": "author"
            },
            "who": {
              "reference": "Device/dc562278-1c70-4cf1-9b31-7875f0d3d464"
            }
          }
        ],
        "reason": [
          {
            "text": "Interoperability Testing and Training (non-clinical use)"
          }
        ],
        "text": {
          "status": "generated",
          "div": "<div xmlns=\"http://www.w3.org/1999/xhtml\">Provenance for SYNDERAI Synthetic Example Data Resource</div>"
        },
        "recorded": "2023-12-25T23:11:04Z"
      }
    },
    {
      "fullUrl": "urn:uuid:0b77a616-b16e-45da-b35f-987cca554732",
      "resource": {
        "resourceType": "PractitionerRole",
        "id": "0b77a616-b16e-45da-b35f-987cca554732",
        "meta": {
          "profile": [
            "http://hl7.eu/fhir/base/StructureDefinition/practitionerRole-eu"
          ]
        },
        "text": {
          "status": "generated",
          "div": "<div xmlns=\"http://www.w3.org/1999/xhtml\">Laboratory Role Id: 0b77a616-b16e-45da-b35f-987cca554732</div>"
        },
        "practitioner": {
          "reference": "urn:uuid:e331fb2c-8598-4ad3-98da-a15615e5fdca"
        }
      }
    },
    {
      "fullUrl": "urn:uuid:e331fb2c-8598-4ad3-98da-a15615e5fdca",
      "resource": {
        "resourceType": "Practitioner",
        "id": "e331fb2c-8598-4ad3-98da-a15615e5fdca",
        "meta": {
          "profile": [
            "http://hl7.eu/fhir/base/StructureDefinition/practitioner-eu"
          ]
        },
        "identifier": [
          {
            "assigner": {
              "display": "HL7 Europe"
            },
            "system": "urn:oid:2.16.840.1.113883.2.51.999",
            "value": "9c6ec707-2d95-4106-ad13-aa542d4e45ef"
          }
        ],
        "name": [
          {
            "prefix": [
              "dr"
            ],
            "given": [
              "Ex"
            ],
            "family": "Ample"
          }
        ],
        "address": [
          {
            "line": [
              "Laboratoire Central Européenne",
              "Boulevard du Jardin Botanique 32"
            ],
            "postalCode": "1000",
            "city": "Brussels",
            "country": "Belgium"
          }
        ],
        "text": {
          "status": "generated",
          "div": "<div xmlns=\"http://www.w3.org/1999/xhtml\">Laboratory: Laboratoire Central Européenne, 1000 Brussels, Belgium</div>"
        }
      }
    }
  ],
  "type": "document",
  "timestamp": "2023-12-25T23:11:04Z"
}
