{
  "resourceType": "Bundle",
  "id": "9a89d1c8-08ca-4eeb-ba6b-0d20d4fa8059",
  "meta": {
    "profile": [
      "http://hl7.eu/fhir/laboratory/StructureDefinition/Bundle-eu-lab"
    ]
  },
  "identifier": {
    "assigner": {
      "display": "HL7 Europe"
    },
    "system": "urn:oid:2.16.840.1.113883.2.51.999",
    "value": "a047baec-0fcc-48a5-bbeb-30e2103ce699"
  },
  "entry": [
    {
      "fullUrl": "urn:uuid:ba66d633-6ed6-4cf7-9888-87849243b7ee",
      "resource": {
        "resourceType": "Composition",
        "id": "ba66d633-6ed6-4cf7-9888-87849243b7ee",
        "meta": {
          "profile": [
            "http://hl7.eu/fhir/laboratory/StructureDefinition/Composition-eu-lab"
          ]
        },
        "identifier": {
          "assigner": {
            "display": "HL7 Europe"
          },
          "system": "urn:oid:2.16.840.1.113883.2.51.999",
          "value": "201a2c24-2645-4330-a90f-0804b5434507"
        },
        "author": [
          {
            "reference": "urn:uuid:6dd46dfb-28dd-4192-8e07-9258a5492203"
          }
        ],
        "category": [
          {
            "coding": [
              {
                "code": "26436-6",
                "system": "http://loinc.org",
                "display": "Laboratory studies (set)"
              }
            ]
          }
        ],
        "type": {
          "coding": [
            {
              "code": "11502-2",
              "system": "http://loinc.org",
              "display": "Laboratory report"
            }
          ],
          "text": "Laboratory Report"
        },
        "section": [
          {
            "code": {
              "coding": [
                {
                  "code": "26436-6",
                  "system": "http://loinc.org",
                  "display": "Laboratory studies (set)"
                }
              ],
              "text": "Laboratory studies"
            },
            "section": [
              {
                "code": {
                  "coding": [
                    {
                      "code": "$18719-5",
                      "system": "http://loinc.org",
                      "display": "Chemistry studies (set)"
                    }
                  ],
                  "text": "Chemistry"
                },
                "entry": [
                  {
                    "reference": "urn:uuid:f6daf8f4-da19-408f-bb3e-11157a11bb9d"
                  },
                  {
                    "reference": "urn:uuid:cf0634d6-141a-4302-b19c-1ae7334b1350"
                  },
                  {
                    "reference": "urn:uuid:1c9ee6a0-803e-4e8b-ba86-090f9a69d2f1"
                  },
                  {
                    "reference": "urn:uuid:0c27631b-19b2-49e8-b57c-adc486473633"
                  },
                  {
                    "reference": "urn:uuid:fe12a11e-457a-463f-b22a-b89126b2bd72"
                  },
                  {
                    "reference": "urn:uuid:da62be30-529a-4b4f-b4c2-a8ad2e74248e"
                  },
                  {
                    "reference": "urn:uuid:f90306a4-1b94-409f-8345-3a97be9ad0aa"
                  },
                  {
                    "reference": "urn:uuid:163e4c5b-1186-4b9e-9bba-369c1f6c444f"
                  },
                  {
                    "reference": "urn:uuid:8c25c3ab-044f-4f4c-93bd-350722610aeb"
                  },
                  {
                    "reference": "urn:uuid:cf9149b4-1354-4b75-a2de-456e7e7533d0"
                  },
                  {
                    "reference": "urn:uuid:b113ef66-0ecc-4ff9-bdfc-63891b1c8244"
                  },
                  {
                    "reference": "urn:uuid:c8d130d8-4fd7-4189-b41a-415f49ef70d7"
                  },
                  {
                    "reference": "urn:uuid:7ef3f261-eec0-48fb-b2c4-b63fda55d96c"
                  },
                  {
                    "reference": "urn:uuid:d95196b2-8209-447c-9db3-992b27c70fea"
                  },
                  {
                    "reference": "urn:uuid:6dcd72a2-e621-4123-bf87-80bf348a4ea0"
                  },
                  {
                    "reference": "urn:uuid:4275cc87-cdbd-4185-b577-7932a64fb4a5"
                  },
                  {
                    "reference": "urn:uuid:342ce47c-82d8-4ced-9d96-0acba5a09b94"
                  },
                  {
                    "reference": "urn:uuid:f615a6d2-2a38-4726-a002-d212076d9de3"
                  },
                  {
                    "reference": "urn:uuid:40eb2f9c-a7ba-4d25-9092-3bd19b71db90"
                  }
                ],
                "text": {
                  "status": "generated",
                  "div": "<div xmlns=\"http://www.w3.org/1999/xhtml\"><h3>Chemistry</h3><table class=\"hl7__eu__lab__report\"><thead><tr><th>Test</th><th>01-MAR-2019</th><th>Reference&#xA0;Range</th><th>Unit</th></tr></thead><tbody><tr><td>Glucose [Mass/volume] in Blood</td><td>84.2</td><td>70 - 99</td><td>mg/dL</td></tr><tr><td>Urea nitrogen [Mass/volume] in Blood</td><td>14.8</td><td>7 - 45</td><td>mg/dL</td></tr><tr><td>Creatinine [Mass/volume] in Blood</td><td><strong>2.9 H</strong></td><td>0.6 - 1.1</td><td>mg/dL</td></tr><tr><td>Calcium [Mass/volume] in Blood</td><td>8.7</td><td>8.5 - 10.4</td><td>mg/dL</td></tr><tr><td>Sodium [Moles/volume] in Blood</td><td>138.2</td><td>135 - 145</td><td>mmol/L</td></tr><tr><td>Potassium [Moles/volume] in Blood</td><td>4.1</td><td>3.5 - 5.1</td><td>mmol/L</td></tr><tr><td>Chloride [Moles/volume] in Blood</td><td>103.5</td><td>98 - 110</td><td>mmol/L</td></tr><tr><td>Carbon dioxide, total [Moles/volume] in Blood</td><td>23.2</td><td>22 - 29</td><td>mmol/L</td></tr><tr><td>Protein [Mass/volume] in Serum or Plasma</td><td>6.8</td><td>6 - 8.3</td><td>g/dL</td></tr><tr><td>Albumin [Mass/volume] in Serum or Plasma</td><td>5.4</td><td>3.5 - 5.5</td><td>g/dL</td></tr><tr><td>Globulin [Mass/volume] in Serum by calculation</td><td>2.4</td><td>2 - 3.5</td><td>g/L</td></tr><tr><td>Bilirubin.total [Mass/volume] in Serum or Plasma</td><td>1.1</td><td>0.3 - 1.2</td><td>mg/dL</td></tr><tr><td>Alkaline phosphatase [Enzymatic activity/volume] in Serum or Plasma</td><td>84.6</td><td>44 - 130</td><td>U/L</td></tr><tr><td>Alanine aminotransferase [Enzymatic activity/volume] in Serum or Plasma</td><td><strong>57.3 H</strong></td><td>7 - 33</td><td>U/L</td></tr><tr><td>Aspartate aminotransferase [Enzymatic activity/volume] in Serum or Plasma</td><td>37.1</td><td>10 - 40</td><td>U/L</td></tr><tr><td>Cholesterol [Mass/volume] in Serum or Plasma</td><td>193.2</td><td>125 - 200</td><td>mg/dL</td></tr><tr><td>Triglyceride [Mass/volume] in Serum or Plasma</td><td>128.6</td><td>10 - 175</td><td>mg/dL</td></tr><tr><td>Cholesterol in LDL [Mass/volume] in Serum or Plasma by Direct assay</td><td>101.5</td><td>0 - 130</td><td>mg/dL</td></tr><tr><td>Cholesterol in HDL [Mass/volume] in Serum or Plasma</td><td><strong>37.6 L</strong></td><td>40 - 100</td><td>mg/dL</td></tr></tbody></table></div>"
                },
                "title": "Chemistry"
              }
            ],
            "title": "Laboratory Report"
          },
          {
            "text": {
              "status": "generated",
              "div": "<div xmlns=\"http://www.w3.org/1999/xhtml\"><h3>Annotation</h3><table class=\"hl7__eu__lab__report\"><tr><th>Conclusion and Recommendations based on this report and previous findings known to us</th></tr><tr><td>The patient shows elevated creatinine, suggesting impaired renal function, and increased ALT, indicating possible liver cell injury. HDL cholesterol is below normal, which is a cardiovascular risk factor. Other parameters, including glucose, electrolytes, and liver enzymes, are within normal limits. Recommend further evaluation of renal and liver function and cardiovascular risk assessment.</td></tr></table></div>"
            },
            "code": {
              "coding": [
                {
                  "system": "http://loinc.org",
                  "code": "48767-8",
                  "display": "Annotation comment"
                }
              ]
            },
            "title": "Annotation comment"
          }
        ],
        "status": "final",
        "subject": {
          "reference": "urn:uuid:1c5948d7-48cf-47d4-b10a-fa21d4b8aef9",
          "display": "Marthe Gallet"
        },
        "date": "2019-03-01T20:05:43Z",
        "title": "Laboratory Report",
        "confidentiality": "N"
      }
    },
    {
      "fullUrl": "urn:uuid:fe5626fc-a841-4bc6-a715-3ad10c204880",
      "resource": {
        "resourceType": "DiagnosticReport",
        "id": "fe5626fc-a841-4bc6-a715-3ad10c204880",
        "meta": {
          "profile": [
            "http://hl7.eu/fhir/laboratory/StructureDefinition/DiagnosticReport-eu-lab"
          ]
        },
        "identifier": [
          {
            "assigner": {
              "display": "HL7 Europe"
            },
            "system": "urn:oid:2.16.840.1.113883.2.51.999",
            "value": "be62f63e-310d-4523-892f-2e1a8a7ac06e"
          }
        ],
        "extension": [
          {
            "url": "http://hl7.org/fhir/5.0/StructureDefinition/extension-DiagnosticReport.composition",
            "valueReference": {
              "reference": "urn:uuid:201a2c24-2645-4330-a90f-0804b5434507"
            }
          }
        ],
        "category": [
          {
            "coding": [
              {
                "code": "26436-6",
                "system": "http://loinc.org",
                "display": "Laboratory studies (set)"
              }
            ]
          }
        ],
        "specimen": [
          {
            "reference": "urn:uuid:671331a2-39eb-4b92-9d4f-a7f96731ed8a"
          },
          {
            "reference": "urn:uuid:348a3bb1-c0ef-422c-a692-c166600bee80"
          },
          {
            "reference": "urn:uuid:96b4db09-f89a-4ebc-b416-61edaea37ea0"
          }
        ],
        "result": [
          {
            "reference": "urn:uuid:f6daf8f4-da19-408f-bb3e-11157a11bb9d"
          },
          {
            "reference": "urn:uuid:cf0634d6-141a-4302-b19c-1ae7334b1350"
          },
          {
            "reference": "urn:uuid:1c9ee6a0-803e-4e8b-ba86-090f9a69d2f1"
          },
          {
            "reference": "urn:uuid:0c27631b-19b2-49e8-b57c-adc486473633"
          },
          {
            "reference": "urn:uuid:fe12a11e-457a-463f-b22a-b89126b2bd72"
          },
          {
            "reference": "urn:uuid:da62be30-529a-4b4f-b4c2-a8ad2e74248e"
          },
          {
            "reference": "urn:uuid:f90306a4-1b94-409f-8345-3a97be9ad0aa"
          },
          {
            "reference": "urn:uuid:163e4c5b-1186-4b9e-9bba-369c1f6c444f"
          },
          {
            "reference": "urn:uuid:8c25c3ab-044f-4f4c-93bd-350722610aeb"
          },
          {
            "reference": "urn:uuid:cf9149b4-1354-4b75-a2de-456e7e7533d0"
          },
          {
            "reference": "urn:uuid:b113ef66-0ecc-4ff9-bdfc-63891b1c8244"
          },
          {
            "reference": "urn:uuid:c8d130d8-4fd7-4189-b41a-415f49ef70d7"
          },
          {
            "reference": "urn:uuid:7ef3f261-eec0-48fb-b2c4-b63fda55d96c"
          },
          {
            "reference": "urn:uuid:d95196b2-8209-447c-9db3-992b27c70fea"
          },
          {
            "reference": "urn:uuid:6dcd72a2-e621-4123-bf87-80bf348a4ea0"
          },
          {
            "reference": "urn:uuid:4275cc87-cdbd-4185-b577-7932a64fb4a5"
          },
          {
            "reference": "urn:uuid:342ce47c-82d8-4ced-9d96-0acba5a09b94"
          },
          {
            "reference": "urn:uuid:f615a6d2-2a38-4726-a002-d212076d9de3"
          },
          {
            "reference": "urn:uuid:40eb2f9c-a7ba-4d25-9092-3bd19b71db90"
          }
        ],
        "status": "registered",
        "code": {
          "coding": [
            {
              "code": "11502-2",
              "system": "http://loinc.org",
              "display": "Laboratory report"
            }
          ]
        },
        "subject": {
          "reference": "urn:uuid:1c5948d7-48cf-47d4-b10a-fa21d4b8aef9",
          "display": "Marthe Gallet"
        }
      }
    },
    {
      "fullUrl": "urn:uuid:1c5948d7-48cf-47d4-b10a-fa21d4b8aef9",
      "resource": {
        "resourceType": "Patient",
        "id": "1c5948d7-48cf-47d4-b10a-fa21d4b8aef9",
        "meta": {
          "security": [
            {
              "system": "http://terminology.hl7.org/CodeSystem/v3-ActReason",
              "code": "HTEST"
            },
            {
              "system": "http://terminology.hl7.org/CodeSystem/v3-ActReason",
              "code": "TRAIN"
            }
          ],
          "tag": [
            {
              "system": "https://synderai.net/fhir/CodeSystem/tags",
              "code": "synthetic",
              "display": "SYNDERAI Synthetic data"
            }
          ],
          "profile": [
            "http://hl7.eu/fhir/base/StructureDefinition/patient-eu-core"
          ]
        },
        "identifier": [
          {
            "type": {
              "coding": [
                {
                  "code": "PT",
                  "system": "http://terminology.hl7.org/CodeSystem/v2-0203"
                }
              ]
            },
            "system": "http://ec.europa.eu/identifier/eci",
            "value": "9444-947487-6"
          },
          {
            "type": {
              "coding": [
                {
                  "code": "MR",
                  "system": "http://terminology.hl7.org/CodeSystem/v2-0203"
                }
              ]
            },
            "system": "http://local.setting.eu/identifier",
            "value": "854228d5-a476-2d9c-a1d7-c3202375a617"
          }
        ],
        "name": [
          {
            "family": "Gallet"
          },
          {
            "given": [
              "Marthe"
            ]
          },
          {
            "text": "Marthe Gallet"
          }
        ],
        "address": [
          {
            "line": [
              "3, rue Emmanuel Goncalves"
            ],
            "use": "home",
            "type": "physical",
            "postalCode": "49490",
            "city": "Briand",
            "country": "France"
          }
        ],
        "telecom": [
          {
            "system": "phone",
            "value": "+33 1 70 99 82 74"
          }
        ],
        "extension": [
          {
            "url": "http://hl7.org/fhir/StructureDefinition/patient-nationality",
            "valueCodeableConcept": {
              "coding": [
                {
                  "code": "FR",
                  "system": "http://hl7.org/fhir/ValueSet/country"
                }
              ]
            }
          }
        ],
        "text": {
          "status": "generated",
          "div": "<div xmlns=\"http://www.w3.org/1999/xhtml\"><table class=\"hl7__ips\"><tr><td>Marthe Gallet</td><td>female</td><td>29-Oct-1950</td></tr></table></div>"
        },
        "gender": "female",
        "birthDate": "1950-10-29"
      }
    },
    {
      "fullUrl": "urn:uuid:4caddffe-0124-4d86-9756-da6d972ec6aa",
      "resource": {
        "resourceType": "ServiceRequest",
        "id": "4caddffe-0124-4d86-9756-da6d972ec6aa",
        "meta": {
          "profile": [
            "http://hl7.eu/fhir/laboratory/StructureDefinition/ServiceRequest-eu-lab"
          ]
        },
        "identifier": [
          {
            "system": "http://example.org",
            "value": "3e379def-ba71-4efc-a0fd-7e34bb404776"
          }
        ],
        "specimen": [
          {
            "reference": "urn:uuid:671331a2-39eb-4b92-9d4f-a7f96731ed8a"
          },
          {
            "reference": "urn:uuid:348a3bb1-c0ef-422c-a692-c166600bee80"
          },
          {
            "reference": "urn:uuid:96b4db09-f89a-4ebc-b416-61edaea37ea0"
          }
        ],
        "reasonCode": [
          {
            "coding": [
              {
                "code": "431856006",
                "system": "http://snomed.info/sct",
                "display": "Chronic kidney disease stage 2"
              }
            ]
          },
          {
            "coding": [
              {
                "code": "90781000119102",
                "system": "http://snomed.info/sct",
                "display": "Microalbuminuria due to type 2 diabetes mellitus"
              }
            ]
          },
          {
            "coding": [
              {
                "code": "127013003",
                "system": "http://snomed.info/sct",
                "display": "Disorder of kidney due to diabetes mellitus"
              }
            ]
          },
          {
            "coding": [
              {
                "code": "431855005",
                "system": "http://snomed.info/sct",
                "display": "Chronic kidney disease stage 1"
              }
            ]
          },
          {
            "coding": [
              {
                "code": "55822004",
                "system": "http://snomed.info/sct",
                "display": "Hyperlipidemia"
              }
            ]
          },
          {
            "coding": [
              {
                "code": "59621000",
                "system": "http://snomed.info/sct",
                "display": "Essential hypertension"
              }
            ]
          }
        ],
        "status": "active",
        "intent": "order",
        "code": {
          "coding": [
            {
              "code": "108252007",
              "system": "http://snomed.info/sct",
              "display": "Laboratory procedure"
            }
          ]
        },
        "subject": {
          "reference": "urn:uuid:1c5948d7-48cf-47d4-b10a-fa21d4b8aef9",
          "display": "Marthe Gallet"
        },
        "requester": {
          "reference": "urn:uuid:af5a2b15-141d-45b8-acb0-30e88f393947"
        }
      }
    },
    {
      "fullUrl": "urn:uuid:af5a2b15-141d-45b8-acb0-30e88f393947",
      "resource": {
        "resourceType": "PractitionerRole",
        "id": "af5a2b15-141d-45b8-acb0-30e88f393947",
        "meta": {
          "profile": [
            "http://hl7.eu/fhir/base/StructureDefinition/practitionerRole-eu"
          ]
        },
        "text": {
          "status": "generated",
          "div": "<div xmlns=\"http://www.w3.org/1999/xhtml\">Provider Role Id: af5a2b15-141d-45b8-acb0-30e88f393947</div>"
        },
        "organization": {
          "reference": "urn:uuid:d4653219-7c89-4529-adce-e8bb6a335118"
        }
      }
    },
    {
      "fullUrl": "urn:uuid:d4653219-7c89-4529-adce-e8bb6a335118",
      "resource": {
        "resourceType": "Organization",
        "id": "d4653219-7c89-4529-adce-e8bb6a335118",
        "meta": {
          "profile": [
            "http://hl7.eu/fhir/base/StructureDefinition/organization-eu"
          ]
        },
        "identifier": [
          {
            "assigner": {
              "display": "HL7 Europe"
            },
            "system": "urn:oid:2.16.840.1.113883.2.51.999",
            "value": "8333b1a6-da9f-4785-8917-635b8a097a81"
          }
        ],
        "address": [
          {
            "line": [
              "Rue Larrey nan"
            ],
            "city": "Angers",
            "postalCode": "49100",
            "country": "France"
          }
        ],
        "text": {
          "status": "generated",
          "div": "<div xmlns=\"http://www.w3.org/1999/xhtml\">Provider Organization: CHU d&#039;Angers</div>"
        },
        "name": "CHU d&#039;Angers"
      }
    },
    {
      "fullUrl": "urn:uuid:671331a2-39eb-4b92-9d4f-a7f96731ed8a",
      "resource": {
        "resourceType": "Specimen",
        "id": "671331a2-39eb-4b92-9d4f-a7f96731ed8a",
        "meta": {
          "profile": [
            "http://hl7.eu/fhir/laboratory/StructureDefinition/Specimen-eu-lab"
          ]
        },
        "collection": {
          "collectedDateTime": "2019-03-01"
        },
        "text": {
          "status": "generated",
          "div": "<div xmlns=\"http://www.w3.org/1999/xhtml\"><table class=\"hl7__eu__lab__report\"><tr><th>Specimen</th><th>Collection Date</th></tr><tr><td>Whole blood specimen (specimen)</td><td><span class=\"nb\">01-Mar-2019</span></td></tr></table></div>"
        },
        "type": {
          "coding": [
            {
              "code": "258580003",
              "system": "http://snomed.info/sct",
              "display": "Whole blood specimen (specimen)"
            }
          ]
        }
      }
    },
    {
      "fullUrl": "urn:uuid:348a3bb1-c0ef-422c-a692-c166600bee80",
      "resource": {
        "resourceType": "Specimen",
        "id": "348a3bb1-c0ef-422c-a692-c166600bee80",
        "meta": {
          "profile": [
            "http://hl7.eu/fhir/laboratory/StructureDefinition/Specimen-eu-lab"
          ]
        },
        "collection": {
          "collectedDateTime": "2019-03-01"
        },
        "text": {
          "status": "generated",
          "div": "<div xmlns=\"http://www.w3.org/1999/xhtml\"><table class=\"hl7__eu__lab__report\"><tr><th>Specimen</th><th>Collection Date</th></tr><tr><td>Acellular blood (serum or plasma) specimen</td><td><span class=\"nb\">01-Mar-2019</span></td></tr></table></div>"
        },
        "type": {
          "coding": [
            {
              "code": "122592007",
              "system": "http://snomed.info/sct",
              "display": "Acellular blood (serum or plasma) specimen"
            }
          ]
        }
      }
    },
    {
      "fullUrl": "urn:uuid:96b4db09-f89a-4ebc-b416-61edaea37ea0",
      "resource": {
        "resourceType": "Specimen",
        "id": "96b4db09-f89a-4ebc-b416-61edaea37ea0",
        "meta": {
          "profile": [
            "http://hl7.eu/fhir/laboratory/StructureDefinition/Specimen-eu-lab"
          ]
        },
        "collection": {
          "collectedDateTime": "2019-03-01"
        },
        "text": {
          "status": "generated",
          "div": "<div xmlns=\"http://www.w3.org/1999/xhtml\"><table class=\"hl7__eu__lab__report\"><tr><th>Specimen</th><th>Collection Date</th></tr><tr><td>Serum specimen</td><td><span class=\"nb\">01-Mar-2019</span></td></tr></table></div>"
        },
        "type": {
          "coding": [
            {
              "code": "119364003",
              "system": "http://snomed.info/sct",
              "display": "Serum specimen"
            }
          ]
        }
      }
    },
    {
      "fullUrl": "urn:uuid:f6daf8f4-da19-408f-bb3e-11157a11bb9d",
      "resource": {
        "resourceType": "Observation",
        "id": "f6daf8f4-da19-408f-bb3e-11157a11bb9d",
        "meta": {
          "profile": [
            "http://hl7.eu/fhir/laboratory/StructureDefinition/Observation-resultslab-eu-lab"
          ]
        },
        "performer": [
          {
            "display": "The Central European Lab"
          }
        ],
        "category": [
          {
            "coding": [
              {
                "system": "http://terminology.hl7.org/CodeSystem/observation-category",
                "code": "laboratory"
              }
            ]
          }
        ],
        "code": {
          "coding": [
            {
              "code": "2339-0",
              "system": "http://loinc.org",
              "display": "Glucose [Mass/volume] in Blood"
            }
          ],
          "text": "Glucose [Mass/volume] in Blood"
        },
        "valueQuantity": {
          "system": "http://unitsofmeasure.org",
          "value": 84.2,
          "unit": "mg/dL",
          "code": "mg/dL"
        },
        "referenceRange": [
          {
            "low": {
              "value": 70,
              "code": "mg/dL",
              "system": "http://unitsofmeasure.org"
            }
          },
          {
            "high": {
              "value": 99,
              "code": "mg/dL",
              "system": "http://unitsofmeasure.org"
            }
          }
        ],
        "text": {
          "status": "generated",
          "div": "<div xmlns=\"http://www.w3.org/1999/xhtml\"><table class=\"hl7__eu__lab__report\"><tr><th>Test</th><th>01-Mar-2019</th><th>Reference&#xA0;Range</th><th>Unit</th></tr><tr><td>Glucose [Mass/volume] in Blood</td><td>84.2</td><td>70 - 99</td><td></td><td>mg/dL</td></tr></table></div>"
        },
        "status": "final",
        "subject": {
          "reference": "urn:uuid:1c5948d7-48cf-47d4-b10a-fa21d4b8aef9",
          "display": "Marthe Gallet"
        },
        "effectiveDateTime": "2019-03-01T19:05:43Z",
        "specimen": {
          "reference": "urn:uuid:671331a2-39eb-4b92-9d4f-a7f96731ed8a"
        }
      }
    },
    {
      "fullUrl": "urn:uuid:cf0634d6-141a-4302-b19c-1ae7334b1350",
      "resource": {
        "resourceType": "Observation",
        "id": "cf0634d6-141a-4302-b19c-1ae7334b1350",
        "meta": {
          "profile": [
            "http://hl7.eu/fhir/laboratory/StructureDefinition/Observation-resultslab-eu-lab"
          ]
        },
        "performer": [
          {
            "display": "The Central European Lab"
          }
        ],
        "category": [
          {
            "coding": [
              {
                "system": "http://terminology.hl7.org/CodeSystem/observation-category",
                "code": "laboratory"
              }
            ]
          }
        ],
        "code": {
          "coding": [
            {
              "code": "6299-2",
              "system": "http://loinc.org",
              "display": "Urea nitrogen [Mass/volume] in Blood"
            }
          ],
          "text": "Urea nitrogen [Mass/volume] in Blood"
        },
        "valueQuantity": {
          "system": "http://unitsofmeasure.org",
          "value": 14.8,
          "unit": "mg/dL",
          "code": "mg/dL"
        },
        "referenceRange": [
          {
            "low": {
              "value": 7,
              "code": "mg/dL",
              "system": "http://unitsofmeasure.org"
            }
          },
          {
            "high": {
              "value": 45,
              "code": "mg/dL",
              "system": "http://unitsofmeasure.org"
            }
          }
        ],
        "text": {
          "status": "generated",
          "div": "<div xmlns=\"http://www.w3.org/1999/xhtml\"><table class=\"hl7__eu__lab__report\"><tr><th>Test</th><th>01-Mar-2019</th><th>Reference&#xA0;Range</th><th>Unit</th></tr><tr><td>Urea nitrogen [Mass/volume] in Blood</td><td>14.8</td><td>7 - 45</td><td></td><td>mg/dL</td></tr></table></div>"
        },
        "status": "final",
        "subject": {
          "reference": "urn:uuid:1c5948d7-48cf-47d4-b10a-fa21d4b8aef9",
          "display": "Marthe Gallet"
        },
        "effectiveDateTime": "2019-03-01T19:05:43Z",
        "specimen": {
          "reference": "urn:uuid:671331a2-39eb-4b92-9d4f-a7f96731ed8a"
        }
      }
    },
    {
      "fullUrl": "urn:uuid:1c9ee6a0-803e-4e8b-ba86-090f9a69d2f1",
      "resource": {
        "resourceType": "Observation",
        "id": "1c9ee6a0-803e-4e8b-ba86-090f9a69d2f1",
        "meta": {
          "profile": [
            "http://hl7.eu/fhir/laboratory/StructureDefinition/Observation-resultslab-eu-lab"
          ]
        },
        "performer": [
          {
            "display": "The Central European Lab"
          }
        ],
        "category": [
          {
            "coding": [
              {
                "system": "http://terminology.hl7.org/CodeSystem/observation-category",
                "code": "laboratory"
              }
            ]
          }
        ],
        "code": {
          "coding": [
            {
              "code": "38483-4",
              "system": "http://loinc.org",
              "display": "Creatinine [Mass/volume] in Blood"
            }
          ],
          "text": "Creatinine [Mass/volume] in Blood"
        },
        "valueQuantity": {
          "system": "http://unitsofmeasure.org",
          "value": 2.9,
          "unit": "mg/dL",
          "code": "mg/dL"
        },
        "referenceRange": [
          {
            "low": {
              "value": 0.6,
              "code": "mg/dL",
              "system": "http://unitsofmeasure.org"
            }
          },
          {
            "high": {
              "value": 1.1,
              "code": "mg/dL",
              "system": "http://unitsofmeasure.org"
            }
          }
        ],
        "interpretation": [
          {
            "coding": [
              {
                "code": "H",
                "system": "http://terminology.hl7.org/CodeSystem/v3-ObservationInterpretation",
                "display": "High"
              }
            ]
          }
        ],
        "text": {
          "status": "generated",
          "div": "<div xmlns=\"http://www.w3.org/1999/xhtml\"><table class=\"hl7__eu__lab__report\"><tr><th>Test</th><th>01-Mar-2019</th><th>Reference&#xA0;Range</th><th>Unit</th></tr><tr><td>Creatinine [Mass/volume] in Blood</td><td>2.9</td><td>0.6 - 1.1</td><td>H</td><td>mg/dL</td></tr></table></div>"
        },
        "status": "final",
        "subject": {
          "reference": "urn:uuid:1c5948d7-48cf-47d4-b10a-fa21d4b8aef9",
          "display": "Marthe Gallet"
        },
        "effectiveDateTime": "2019-03-01T19:05:43Z",
        "specimen": {
          "reference": "urn:uuid:671331a2-39eb-4b92-9d4f-a7f96731ed8a"
        }
      }
    },
    {
      "fullUrl": "urn:uuid:0c27631b-19b2-49e8-b57c-adc486473633",
      "resource": {
        "resourceType": "Observation",
        "id": "0c27631b-19b2-49e8-b57c-adc486473633",
        "meta": {
          "profile": [
            "http://hl7.eu/fhir/laboratory/StructureDefinition/Observation-resultslab-eu-lab"
          ]
        },
        "performer": [
          {
            "display": "The Central European Lab"
          }
        ],
        "category": [
          {
            "coding": [
              {
                "system": "http://terminology.hl7.org/CodeSystem/observation-category",
                "code": "laboratory"
              }
            ]
          }
        ],
        "code": {
          "coding": [
            {
              "code": "49765-1",
              "system": "http://loinc.org",
              "display": "Calcium [Mass/volume] in Blood"
            }
          ],
          "text": "Calcium [Mass/volume] in Blood"
        },
        "valueQuantity": {
          "system": "http://unitsofmeasure.org",
          "value": 8.7,
          "unit": "mg/dL",
          "code": "mg/dL"
        },
        "referenceRange": [
          {
            "low": {
              "value": 8.5,
              "code": "mg/dL",
              "system": "http://unitsofmeasure.org"
            }
          },
          {
            "high": {
              "value": 10.4,
              "code": "mg/dL",
              "system": "http://unitsofmeasure.org"
            }
          }
        ],
        "text": {
          "status": "generated",
          "div": "<div xmlns=\"http://www.w3.org/1999/xhtml\"><table class=\"hl7__eu__lab__report\"><tr><th>Test</th><th>01-Mar-2019</th><th>Reference&#xA0;Range</th><th>Unit</th></tr><tr><td>Calcium [Mass/volume] in Blood</td><td>8.7</td><td>8.5 - 10.4</td><td></td><td>mg/dL</td></tr></table></div>"
        },
        "status": "final",
        "subject": {
          "reference": "urn:uuid:1c5948d7-48cf-47d4-b10a-fa21d4b8aef9",
          "display": "Marthe Gallet"
        },
        "effectiveDateTime": "2019-03-01T19:05:43Z",
        "specimen": {
          "reference": "urn:uuid:671331a2-39eb-4b92-9d4f-a7f96731ed8a"
        }
      }
    },
    {
      "fullUrl": "urn:uuid:fe12a11e-457a-463f-b22a-b89126b2bd72",
      "resource": {
        "resourceType": "Observation",
        "id": "fe12a11e-457a-463f-b22a-b89126b2bd72",
        "meta": {
          "profile": [
            "http://hl7.eu/fhir/laboratory/StructureDefinition/Observation-resultslab-eu-lab"
          ]
        },
        "performer": [
          {
            "display": "The Central European Lab"
          }
        ],
        "category": [
          {
            "coding": [
              {
                "system": "http://terminology.hl7.org/CodeSystem/observation-category",
                "code": "laboratory"
              }
            ]
          }
        ],
        "code": {
          "coding": [
            {
              "code": "2947-0",
              "system": "http://loinc.org",
              "display": "Sodium [Moles/volume] in Blood"
            }
          ],
          "text": "Sodium [Moles/volume] in Blood"
        },
        "valueQuantity": {
          "system": "http://unitsofmeasure.org",
          "value": 138.2,
          "unit": "mmol/L",
          "code": "mmol/L"
        },
        "referenceRange": [
          {
            "low": {
              "value": 135,
              "code": "mmol/L",
              "system": "http://unitsofmeasure.org"
            }
          },
          {
            "high": {
              "value": 145,
              "code": "mmol/L",
              "system": "http://unitsofmeasure.org"
            }
          }
        ],
        "text": {
          "status": "generated",
          "div": "<div xmlns=\"http://www.w3.org/1999/xhtml\"><table class=\"hl7__eu__lab__report\"><tr><th>Test</th><th>01-Mar-2019</th><th>Reference&#xA0;Range</th><th>Unit</th></tr><tr><td>Sodium [Moles/volume] in Blood</td><td>138.2</td><td>135 - 145</td><td></td><td>mmol/L</td></tr></table></div>"
        },
        "status": "final",
        "subject": {
          "reference": "urn:uuid:1c5948d7-48cf-47d4-b10a-fa21d4b8aef9",
          "display": "Marthe Gallet"
        },
        "effectiveDateTime": "2019-03-01T19:05:43Z",
        "specimen": {
          "reference": "urn:uuid:671331a2-39eb-4b92-9d4f-a7f96731ed8a"
        }
      }
    },
    {
      "fullUrl": "urn:uuid:da62be30-529a-4b4f-b4c2-a8ad2e74248e",
      "resource": {
        "resourceType": "Observation",
        "id": "da62be30-529a-4b4f-b4c2-a8ad2e74248e",
        "meta": {
          "profile": [
            "http://hl7.eu/fhir/laboratory/StructureDefinition/Observation-resultslab-eu-lab"
          ]
        },
        "performer": [
          {
            "display": "The Central European Lab"
          }
        ],
        "category": [
          {
            "coding": [
              {
                "system": "http://terminology.hl7.org/CodeSystem/observation-category",
                "code": "laboratory"
              }
            ]
          }
        ],
        "code": {
          "coding": [
            {
              "code": "6298-4",
              "system": "http://loinc.org",
              "display": "Potassium [Moles/volume] in Blood"
            }
          ],
          "text": "Potassium [Moles/volume] in Blood"
        },
        "valueQuantity": {
          "system": "http://unitsofmeasure.org",
          "value": 4.1,
          "unit": "mmol/L",
          "code": "mmol/L"
        },
        "referenceRange": [
          {
            "low": {
              "value": 3.5,
              "code": "mmol/L",
              "system": "http://unitsofmeasure.org"
            }
          },
          {
            "high": {
              "value": 5.1,
              "code": "mmol/L",
              "system": "http://unitsofmeasure.org"
            }
          }
        ],
        "text": {
          "status": "generated",
          "div": "<div xmlns=\"http://www.w3.org/1999/xhtml\"><table class=\"hl7__eu__lab__report\"><tr><th>Test</th><th>01-Mar-2019</th><th>Reference&#xA0;Range</th><th>Unit</th></tr><tr><td>Potassium [Moles/volume] in Blood</td><td>4.1</td><td>3.5 - 5.1</td><td></td><td>mmol/L</td></tr></table></div>"
        },
        "status": "final",
        "subject": {
          "reference": "urn:uuid:1c5948d7-48cf-47d4-b10a-fa21d4b8aef9",
          "display": "Marthe Gallet"
        },
        "effectiveDateTime": "2019-03-01T19:05:43Z",
        "specimen": {
          "reference": "urn:uuid:671331a2-39eb-4b92-9d4f-a7f96731ed8a"
        }
      }
    },
    {
      "fullUrl": "urn:uuid:f90306a4-1b94-409f-8345-3a97be9ad0aa",
      "resource": {
        "resourceType": "Observation",
        "id": "f90306a4-1b94-409f-8345-3a97be9ad0aa",
        "meta": {
          "profile": [
            "http://hl7.eu/fhir/laboratory/StructureDefinition/Observation-resultslab-eu-lab"
          ]
        },
        "performer": [
          {
            "display": "The Central European Lab"
          }
        ],
        "category": [
          {
            "coding": [
              {
                "system": "http://terminology.hl7.org/CodeSystem/observation-category",
                "code": "laboratory"
              }
            ]
          }
        ],
        "code": {
          "coding": [
            {
              "code": "2069-3",
              "system": "http://loinc.org",
              "display": "Chloride [Moles/volume] in Blood"
            }
          ],
          "text": "Chloride [Moles/volume] in Blood"
        },
        "valueQuantity": {
          "system": "http://unitsofmeasure.org",
          "value": 103.5,
          "unit": "mmol/L",
          "code": "mmol/L"
        },
        "referenceRange": [
          {
            "low": {
              "value": 98,
              "code": "mmol/L",
              "system": "http://unitsofmeasure.org"
            }
          },
          {
            "high": {
              "value": 110,
              "code": "mmol/L",
              "system": "http://unitsofmeasure.org"
            }
          }
        ],
        "text": {
          "status": "generated",
          "div": "<div xmlns=\"http://www.w3.org/1999/xhtml\"><table class=\"hl7__eu__lab__report\"><tr><th>Test</th><th>01-Mar-2019</th><th>Reference&#xA0;Range</th><th>Unit</th></tr><tr><td>Chloride [Moles/volume] in Blood</td><td>103.5</td><td>98 - 110</td><td></td><td>mmol/L</td></tr></table></div>"
        },
        "status": "final",
        "subject": {
          "reference": "urn:uuid:1c5948d7-48cf-47d4-b10a-fa21d4b8aef9",
          "display": "Marthe Gallet"
        },
        "effectiveDateTime": "2019-03-01T19:05:43Z",
        "specimen": {
          "reference": "urn:uuid:671331a2-39eb-4b92-9d4f-a7f96731ed8a"
        }
      }
    },
    {
      "fullUrl": "urn:uuid:163e4c5b-1186-4b9e-9bba-369c1f6c444f",
      "resource": {
        "resourceType": "Observation",
        "id": "163e4c5b-1186-4b9e-9bba-369c1f6c444f",
        "meta": {
          "profile": [
            "http://hl7.eu/fhir/laboratory/StructureDefinition/Observation-resultslab-eu-lab"
          ]
        },
        "performer": [
          {
            "display": "The Central European Lab"
          }
        ],
        "category": [
          {
            "coding": [
              {
                "system": "http://terminology.hl7.org/CodeSystem/observation-category",
                "code": "laboratory"
              }
            ]
          }
        ],
        "code": {
          "coding": [
            {
              "code": "20565-8",
              "system": "http://loinc.org",
              "display": "Carbon dioxide, total [Moles/volume] in Blood"
            }
          ],
          "text": "Carbon dioxide, total [Moles/volume] in Blood"
        },
        "valueQuantity": {
          "system": "http://unitsofmeasure.org",
          "value": 23.2,
          "unit": "mmol/L",
          "code": "mmol/L"
        },
        "referenceRange": [
          {
            "low": {
              "value": 22,
              "code": "mmol/L",
              "system": "http://unitsofmeasure.org"
            }
          },
          {
            "high": {
              "value": 29,
              "code": "mmol/L",
              "system": "http://unitsofmeasure.org"
            }
          }
        ],
        "text": {
          "status": "generated",
          "div": "<div xmlns=\"http://www.w3.org/1999/xhtml\"><table class=\"hl7__eu__lab__report\"><tr><th>Test</th><th>01-Mar-2019</th><th>Reference&#xA0;Range</th><th>Unit</th></tr><tr><td>Carbon dioxide, total [Moles/volume] in Blood</td><td>23.2</td><td>22 - 29</td><td></td><td>mmol/L</td></tr></table></div>"
        },
        "status": "final",
        "subject": {
          "reference": "urn:uuid:1c5948d7-48cf-47d4-b10a-fa21d4b8aef9",
          "display": "Marthe Gallet"
        },
        "effectiveDateTime": "2019-03-01T19:05:43Z",
        "specimen": {
          "reference": "urn:uuid:671331a2-39eb-4b92-9d4f-a7f96731ed8a"
        }
      }
    },
    {
      "fullUrl": "urn:uuid:8c25c3ab-044f-4f4c-93bd-350722610aeb",
      "resource": {
        "resourceType": "Observation",
        "id": "8c25c3ab-044f-4f4c-93bd-350722610aeb",
        "meta": {
          "profile": [
            "http://hl7.eu/fhir/laboratory/StructureDefinition/Observation-resultslab-eu-lab"
          ]
        },
        "performer": [
          {
            "display": "The Central European Lab"
          }
        ],
        "category": [
          {
            "coding": [
              {
                "system": "http://terminology.hl7.org/CodeSystem/observation-category",
                "code": "laboratory"
              }
            ]
          }
        ],
        "code": {
          "coding": [
            {
              "code": "2885-2",
              "system": "http://loinc.org",
              "display": "Protein [Mass/volume] in Serum or Plasma"
            }
          ],
          "text": "Protein [Mass/volume] in Serum or Plasma"
        },
        "valueQuantity": {
          "system": "http://unitsofmeasure.org",
          "value": 6.8,
          "unit": "g/dL",
          "code": "g/dL"
        },
        "referenceRange": [
          {
            "low": {
              "value": 6,
              "code": "g/dL",
              "system": "http://unitsofmeasure.org"
            }
          },
          {
            "high": {
              "value": 8.3,
              "code": "g/dL",
              "system": "http://unitsofmeasure.org"
            }
          }
        ],
        "text": {
          "status": "generated",
          "div": "<div xmlns=\"http://www.w3.org/1999/xhtml\"><table class=\"hl7__eu__lab__report\"><tr><th>Test</th><th>01-Mar-2019</th><th>Reference&#xA0;Range</th><th>Unit</th></tr><tr><td>Protein [Mass/volume] in Serum or Plasma</td><td>6.8</td><td>6 - 8.3</td><td></td><td>g/dL</td></tr></table></div>"
        },
        "status": "final",
        "subject": {
          "reference": "urn:uuid:1c5948d7-48cf-47d4-b10a-fa21d4b8aef9",
          "display": "Marthe Gallet"
        },
        "effectiveDateTime": "2019-03-01T19:05:43Z",
        "specimen": {
          "reference": "urn:uuid:348a3bb1-c0ef-422c-a692-c166600bee80"
        }
      }
    },
    {
      "fullUrl": "urn:uuid:cf9149b4-1354-4b75-a2de-456e7e7533d0",
      "resource": {
        "resourceType": "Observation",
        "id": "cf9149b4-1354-4b75-a2de-456e7e7533d0",
        "meta": {
          "profile": [
            "http://hl7.eu/fhir/laboratory/StructureDefinition/Observation-resultslab-eu-lab"
          ]
        },
        "performer": [
          {
            "display": "The Central European Lab"
          }
        ],
        "category": [
          {
            "coding": [
              {
                "system": "http://terminology.hl7.org/CodeSystem/observation-category",
                "code": "laboratory"
              }
            ]
          }
        ],
        "code": {
          "coding": [
            {
              "code": "1751-7",
              "system": "http://loinc.org",
              "display": "Albumin [Mass/volume] in Serum or Plasma"
            }
          ],
          "text": "Albumin [Mass/volume] in Serum or Plasma"
        },
        "valueQuantity": {
          "system": "http://unitsofmeasure.org",
          "value": 5.4,
          "unit": "g/dL",
          "code": "g/dL"
        },
        "referenceRange": [
          {
            "low": {
              "value": 3.5,
              "code": "g/dL",
              "system": "http://unitsofmeasure.org"
            }
          },
          {
            "high": {
              "value": 5.5,
              "code": "g/dL",
              "system": "http://unitsofmeasure.org"
            }
          }
        ],
        "text": {
          "status": "generated",
          "div": "<div xmlns=\"http://www.w3.org/1999/xhtml\"><table class=\"hl7__eu__lab__report\"><tr><th>Test</th><th>01-Mar-2019</th><th>Reference&#xA0;Range</th><th>Unit</th></tr><tr><td>Albumin [Mass/volume] in Serum or Plasma</td><td>5.4</td><td>3.5 - 5.5</td><td></td><td>g/dL</td></tr></table></div>"
        },
        "status": "final",
        "subject": {
          "reference": "urn:uuid:1c5948d7-48cf-47d4-b10a-fa21d4b8aef9",
          "display": "Marthe Gallet"
        },
        "effectiveDateTime": "2019-03-01T19:05:43Z",
        "specimen": {
          "reference": "urn:uuid:348a3bb1-c0ef-422c-a692-c166600bee80"
        }
      }
    },
    {
      "fullUrl": "urn:uuid:b113ef66-0ecc-4ff9-bdfc-63891b1c8244",
      "resource": {
        "resourceType": "Observation",
        "id": "b113ef66-0ecc-4ff9-bdfc-63891b1c8244",
        "meta": {
          "profile": [
            "http://hl7.eu/fhir/laboratory/StructureDefinition/Observation-resultslab-eu-lab"
          ]
        },
        "performer": [
          {
            "display": "The Central European Lab"
          }
        ],
        "category": [
          {
            "coding": [
              {
                "system": "http://terminology.hl7.org/CodeSystem/observation-category",
                "code": "laboratory"
              }
            ]
          }
        ],
        "code": {
          "coding": [
            {
              "code": "10834-0",
              "system": "http://loinc.org",
              "display": "Globulin [Mass/volume] in Serum by calculation"
            }
          ],
          "text": "Globulin [Mass/volume] in Serum by calculation"
        },
        "valueQuantity": {
          "system": "http://unitsofmeasure.org",
          "value": 2.4,
          "unit": "g/L",
          "code": "g/L"
        },
        "referenceRange": [
          {
            "low": {
              "value": 2,
              "code": "g/L",
              "system": "http://unitsofmeasure.org"
            }
          },
          {
            "high": {
              "value": 3.5,
              "code": "g/L",
              "system": "http://unitsofmeasure.org"
            }
          }
        ],
        "text": {
          "status": "generated",
          "div": "<div xmlns=\"http://www.w3.org/1999/xhtml\"><table class=\"hl7__eu__lab__report\"><tr><th>Test</th><th>01-Mar-2019</th><th>Reference&#xA0;Range</th><th>Unit</th></tr><tr><td>Globulin [Mass/volume] in Serum by calculation</td><td>2.4</td><td>2 - 3.5</td><td></td><td>g/L</td></tr></table></div>"
        },
        "status": "final",
        "subject": {
          "reference": "urn:uuid:1c5948d7-48cf-47d4-b10a-fa21d4b8aef9",
          "display": "Marthe Gallet"
        },
        "effectiveDateTime": "2019-03-01T19:05:43Z",
        "specimen": {
          "reference": "urn:uuid:96b4db09-f89a-4ebc-b416-61edaea37ea0"
        }
      }
    },
    {
      "fullUrl": "urn:uuid:c8d130d8-4fd7-4189-b41a-415f49ef70d7",
      "resource": {
        "resourceType": "Observation",
        "id": "c8d130d8-4fd7-4189-b41a-415f49ef70d7",
        "meta": {
          "profile": [
            "http://hl7.eu/fhir/laboratory/StructureDefinition/Observation-resultslab-eu-lab"
          ]
        },
        "performer": [
          {
            "display": "The Central European Lab"
          }
        ],
        "category": [
          {
            "coding": [
              {
                "system": "http://terminology.hl7.org/CodeSystem/observation-category",
                "code": "laboratory"
              }
            ]
          }
        ],
        "code": {
          "coding": [
            {
              "code": "1975-2",
              "system": "http://loinc.org",
              "display": "Bilirubin.total [Mass/volume] in Serum or Plasma"
            }
          ],
          "text": "Bilirubin.total [Mass/volume] in Serum or Plasma"
        },
        "valueQuantity": {
          "system": "http://unitsofmeasure.org",
          "value": 1.1,
          "unit": "mg/dL",
          "code": "mg/dL"
        },
        "referenceRange": [
          {
            "low": {
              "value": 0.3,
              "code": "mg/dL",
              "system": "http://unitsofmeasure.org"
            }
          },
          {
            "high": {
              "value": 1.2,
              "code": "mg/dL",
              "system": "http://unitsofmeasure.org"
            }
          }
        ],
        "text": {
          "status": "generated",
          "div": "<div xmlns=\"http://www.w3.org/1999/xhtml\"><table class=\"hl7__eu__lab__report\"><tr><th>Test</th><th>01-Mar-2019</th><th>Reference&#xA0;Range</th><th>Unit</th></tr><tr><td>Bilirubin.total [Mass/volume] in Serum or Plasma</td><td>1.1</td><td>0.3 - 1.2</td><td></td><td>mg/dL</td></tr></table></div>"
        },
        "status": "final",
        "subject": {
          "reference": "urn:uuid:1c5948d7-48cf-47d4-b10a-fa21d4b8aef9",
          "display": "Marthe Gallet"
        },
        "effectiveDateTime": "2019-03-01T19:05:43Z",
        "specimen": {
          "reference": "urn:uuid:348a3bb1-c0ef-422c-a692-c166600bee80"
        }
      }
    },
    {
      "fullUrl": "urn:uuid:7ef3f261-eec0-48fb-b2c4-b63fda55d96c",
      "resource": {
        "resourceType": "Observation",
        "id": "7ef3f261-eec0-48fb-b2c4-b63fda55d96c",
        "meta": {
          "profile": [
            "http://hl7.eu/fhir/laboratory/StructureDefinition/Observation-resultslab-eu-lab"
          ]
        },
        "performer": [
          {
            "display": "The Central European Lab"
          }
        ],
        "category": [
          {
            "coding": [
              {
                "system": "http://terminology.hl7.org/CodeSystem/observation-category",
                "code": "laboratory"
              }
            ]
          }
        ],
        "code": {
          "coding": [
            {
              "code": "6768-6",
              "system": "http://loinc.org",
              "display": "Alkaline phosphatase [Enzymatic activity/volume] in Serum or Plasma"
            }
          ],
          "text": "Alkaline phosphatase [Enzymatic activity/volume] in Serum or Plasma"
        },
        "valueQuantity": {
          "system": "http://unitsofmeasure.org",
          "value": 84.6,
          "unit": "U/L",
          "code": "U/L"
        },
        "referenceRange": [
          {
            "low": {
              "value": 44,
              "code": "U/L",
              "system": "http://unitsofmeasure.org"
            }
          },
          {
            "high": {
              "value": 130,
              "code": "U/L",
              "system": "http://unitsofmeasure.org"
            }
          }
        ],
        "text": {
          "status": "generated",
          "div": "<div xmlns=\"http://www.w3.org/1999/xhtml\"><table class=\"hl7__eu__lab__report\"><tr><th>Test</th><th>01-Mar-2019</th><th>Reference&#xA0;Range</th><th>Unit</th></tr><tr><td>Alkaline phosphatase [Enzymatic activity/volume] in Serum or Plasma</td><td>84.6</td><td>44 - 130</td><td></td><td>U/L</td></tr></table></div>"
        },
        "status": "final",
        "subject": {
          "reference": "urn:uuid:1c5948d7-48cf-47d4-b10a-fa21d4b8aef9",
          "display": "Marthe Gallet"
        },
        "effectiveDateTime": "2019-03-01T19:05:43Z",
        "specimen": {
          "reference": "urn:uuid:348a3bb1-c0ef-422c-a692-c166600bee80"
        }
      }
    },
    {
      "fullUrl": "urn:uuid:d95196b2-8209-447c-9db3-992b27c70fea",
      "resource": {
        "resourceType": "Observation",
        "id": "d95196b2-8209-447c-9db3-992b27c70fea",
        "meta": {
          "profile": [
            "http://hl7.eu/fhir/laboratory/StructureDefinition/Observation-resultslab-eu-lab"
          ]
        },
        "performer": [
          {
            "display": "The Central European Lab"
          }
        ],
        "category": [
          {
            "coding": [
              {
                "system": "http://terminology.hl7.org/CodeSystem/observation-category",
                "code": "laboratory"
              }
            ]
          }
        ],
        "code": {
          "coding": [
            {
              "code": "1742-6",
              "system": "http://loinc.org",
              "display": "Alanine aminotransferase [Enzymatic activity/volume] in Serum or Plasma"
            }
          ],
          "text": "Alanine aminotransferase [Enzymatic activity/volume] in Serum or Plasma"
        },
        "valueQuantity": {
          "system": "http://unitsofmeasure.org",
          "value": 57.3,
          "unit": "U/L",
          "code": "U/L"
        },
        "referenceRange": [
          {
            "low": {
              "value": 7,
              "code": "U/L",
              "system": "http://unitsofmeasure.org"
            }
          },
          {
            "high": {
              "value": 33,
              "code": "U/L",
              "system": "http://unitsofmeasure.org"
            }
          }
        ],
        "interpretation": [
          {
            "coding": [
              {
                "code": "H",
                "system": "http://terminology.hl7.org/CodeSystem/v3-ObservationInterpretation",
                "display": "High"
              }
            ]
          }
        ],
        "text": {
          "status": "generated",
          "div": "<div xmlns=\"http://www.w3.org/1999/xhtml\"><table class=\"hl7__eu__lab__report\"><tr><th>Test</th><th>01-Mar-2019</th><th>Reference&#xA0;Range</th><th>Unit</th></tr><tr><td>Alanine aminotransferase [Enzymatic activity/volume] in Serum or Plasma</td><td>57.3</td><td>7 - 33</td><td>H</td><td>U/L</td></tr></table></div>"
        },
        "status": "final",
        "subject": {
          "reference": "urn:uuid:1c5948d7-48cf-47d4-b10a-fa21d4b8aef9",
          "display": "Marthe Gallet"
        },
        "effectiveDateTime": "2019-03-01T19:05:43Z",
        "specimen": {
          "reference": "urn:uuid:348a3bb1-c0ef-422c-a692-c166600bee80"
        }
      }
    },
    {
      "fullUrl": "urn:uuid:6dcd72a2-e621-4123-bf87-80bf348a4ea0",
      "resource": {
        "resourceType": "Observation",
        "id": "6dcd72a2-e621-4123-bf87-80bf348a4ea0",
        "meta": {
          "profile": [
            "http://hl7.eu/fhir/laboratory/StructureDefinition/Observation-resultslab-eu-lab"
          ]
        },
        "performer": [
          {
            "display": "The Central European Lab"
          }
        ],
        "category": [
          {
            "coding": [
              {
                "system": "http://terminology.hl7.org/CodeSystem/observation-category",
                "code": "laboratory"
              }
            ]
          }
        ],
        "code": {
          "coding": [
            {
              "code": "1920-8",
              "system": "http://loinc.org",
              "display": "Aspartate aminotransferase [Enzymatic activity/volume] in Serum or Plasma"
            }
          ],
          "text": "Aspartate aminotransferase [Enzymatic activity/volume] in Serum or Plasma"
        },
        "valueQuantity": {
          "system": "http://unitsofmeasure.org",
          "value": 37.1,
          "unit": "U/L",
          "code": "U/L"
        },
        "referenceRange": [
          {
            "low": {
              "value": 10,
              "code": "U/L",
              "system": "http://unitsofmeasure.org"
            }
          },
          {
            "high": {
              "value": 40,
              "code": "U/L",
              "system": "http://unitsofmeasure.org"
            }
          }
        ],
        "text": {
          "status": "generated",
          "div": "<div xmlns=\"http://www.w3.org/1999/xhtml\"><table class=\"hl7__eu__lab__report\"><tr><th>Test</th><th>01-Mar-2019</th><th>Reference&#xA0;Range</th><th>Unit</th></tr><tr><td>Aspartate aminotransferase [Enzymatic activity/volume] in Serum or Plasma</td><td>37.1</td><td>10 - 40</td><td></td><td>U/L</td></tr></table></div>"
        },
        "status": "final",
        "subject": {
          "reference": "urn:uuid:1c5948d7-48cf-47d4-b10a-fa21d4b8aef9",
          "display": "Marthe Gallet"
        },
        "effectiveDateTime": "2019-03-01T19:05:43Z",
        "specimen": {
          "reference": "urn:uuid:348a3bb1-c0ef-422c-a692-c166600bee80"
        }
      }
    },
    {
      "fullUrl": "urn:uuid:4275cc87-cdbd-4185-b577-7932a64fb4a5",
      "resource": {
        "resourceType": "Observation",
        "id": "4275cc87-cdbd-4185-b577-7932a64fb4a5",
        "meta": {
          "profile": [
            "http://hl7.eu/fhir/laboratory/StructureDefinition/Observation-resultslab-eu-lab"
          ]
        },
        "performer": [
          {
            "display": "The Central European Lab"
          }
        ],
        "category": [
          {
            "coding": [
              {
                "system": "http://terminology.hl7.org/CodeSystem/observation-category",
                "code": "laboratory"
              }
            ]
          }
        ],
        "code": {
          "coding": [
            {
              "code": "2093-3",
              "system": "http://loinc.org",
              "display": "Cholesterol [Mass/volume] in Serum or Plasma"
            }
          ],
          "text": "Cholesterol [Mass/volume] in Serum or Plasma"
        },
        "valueQuantity": {
          "system": "http://unitsofmeasure.org",
          "value": 193.2,
          "unit": "mg/dL",
          "code": "mg/dL"
        },
        "referenceRange": [
          {
            "low": {
              "value": 125,
              "code": "mg/dL",
              "system": "http://unitsofmeasure.org"
            }
          },
          {
            "high": {
              "value": 200,
              "code": "mg/dL",
              "system": "http://unitsofmeasure.org"
            }
          }
        ],
        "text": {
          "status": "generated",
          "div": "<div xmlns=\"http://www.w3.org/1999/xhtml\"><table class=\"hl7__eu__lab__report\"><tr><th>Test</th><th>01-Mar-2019</th><th>Reference&#xA0;Range</th><th>Unit</th></tr><tr><td>Cholesterol [Mass/volume] in Serum or Plasma</td><td>193.2</td><td>125 - 200</td><td></td><td>mg/dL</td></tr></table></div>"
        },
        "status": "final",
        "subject": {
          "reference": "urn:uuid:1c5948d7-48cf-47d4-b10a-fa21d4b8aef9",
          "display": "Marthe Gallet"
        },
        "effectiveDateTime": "2019-03-01T19:05:43Z",
        "specimen": {
          "reference": "urn:uuid:348a3bb1-c0ef-422c-a692-c166600bee80"
        }
      }
    },
    {
      "fullUrl": "urn:uuid:342ce47c-82d8-4ced-9d96-0acba5a09b94",
      "resource": {
        "resourceType": "Observation",
        "id": "342ce47c-82d8-4ced-9d96-0acba5a09b94",
        "meta": {
          "profile": [
            "http://hl7.eu/fhir/laboratory/StructureDefinition/Observation-resultslab-eu-lab"
          ]
        },
        "performer": [
          {
            "display": "The Central European Lab"
          }
        ],
        "category": [
          {
            "coding": [
              {
                "system": "http://terminology.hl7.org/CodeSystem/observation-category",
                "code": "laboratory"
              }
            ]
          }
        ],
        "code": {
          "coding": [
            {
              "code": "2571-8",
              "system": "http://loinc.org",
              "display": "Triglyceride [Mass/volume] in Serum or Plasma"
            }
          ],
          "text": "Triglyceride [Mass/volume] in Serum or Plasma"
        },
        "valueQuantity": {
          "system": "http://unitsofmeasure.org",
          "value": 128.6,
          "unit": "mg/dL",
          "code": "mg/dL"
        },
        "referenceRange": [
          {
            "low": {
              "value": 10,
              "code": "mg/dL",
              "system": "http://unitsofmeasure.org"
            }
          },
          {
            "high": {
              "value": 175,
              "code": "mg/dL",
              "system": "http://unitsofmeasure.org"
            }
          }
        ],
        "text": {
          "status": "generated",
          "div": "<div xmlns=\"http://www.w3.org/1999/xhtml\"><table class=\"hl7__eu__lab__report\"><tr><th>Test</th><th>01-Mar-2019</th><th>Reference&#xA0;Range</th><th>Unit</th></tr><tr><td>Triglyceride [Mass/volume] in Serum or Plasma</td><td>128.6</td><td>10 - 175</td><td></td><td>mg/dL</td></tr></table></div>"
        },
        "status": "final",
        "subject": {
          "reference": "urn:uuid:1c5948d7-48cf-47d4-b10a-fa21d4b8aef9",
          "display": "Marthe Gallet"
        },
        "effectiveDateTime": "2019-03-01T19:05:43Z",
        "specimen": {
          "reference": "urn:uuid:348a3bb1-c0ef-422c-a692-c166600bee80"
        }
      }
    },
    {
      "fullUrl": "urn:uuid:f615a6d2-2a38-4726-a002-d212076d9de3",
      "resource": {
        "resourceType": "Observation",
        "id": "f615a6d2-2a38-4726-a002-d212076d9de3",
        "meta": {
          "profile": [
            "http://hl7.eu/fhir/laboratory/StructureDefinition/Observation-resultslab-eu-lab"
          ]
        },
        "performer": [
          {
            "display": "The Central European Lab"
          }
        ],
        "category": [
          {
            "coding": [
              {
                "system": "http://terminology.hl7.org/CodeSystem/observation-category",
                "code": "laboratory"
              }
            ]
          }
        ],
        "code": {
          "coding": [
            {
              "code": "18262-6",
              "system": "http://loinc.org",
              "display": "Cholesterol in LDL [Mass/volume] in Serum or Plasma by Direct assay"
            }
          ],
          "text": "Cholesterol in LDL [Mass/volume] in Serum or Plasma by Direct assay"
        },
        "valueQuantity": {
          "system": "http://unitsofmeasure.org",
          "value": 101.5,
          "unit": "mg/dL",
          "code": "mg/dL"
        },
        "referenceRange": [
          {
            "low": {
              "value": 0,
              "code": "mg/dL",
              "system": "http://unitsofmeasure.org"
            }
          },
          {
            "high": {
              "value": 130,
              "code": "mg/dL",
              "system": "http://unitsofmeasure.org"
            }
          }
        ],
        "text": {
          "status": "generated",
          "div": "<div xmlns=\"http://www.w3.org/1999/xhtml\"><table class=\"hl7__eu__lab__report\"><tr><th>Test</th><th>01-Mar-2019</th><th>Reference&#xA0;Range</th><th>Unit</th></tr><tr><td>Cholesterol in LDL [Mass/volume] in Serum or Plasma by Direct assay</td><td>101.5</td><td>0 - 130</td><td></td><td>mg/dL</td></tr></table></div>"
        },
        "status": "final",
        "subject": {
          "reference": "urn:uuid:1c5948d7-48cf-47d4-b10a-fa21d4b8aef9",
          "display": "Marthe Gallet"
        },
        "effectiveDateTime": "2019-03-01T19:05:43Z",
        "specimen": {
          "reference": "urn:uuid:348a3bb1-c0ef-422c-a692-c166600bee80"
        }
      }
    },
    {
      "fullUrl": "urn:uuid:40eb2f9c-a7ba-4d25-9092-3bd19b71db90",
      "resource": {
        "resourceType": "Observation",
        "id": "40eb2f9c-a7ba-4d25-9092-3bd19b71db90",
        "meta": {
          "profile": [
            "http://hl7.eu/fhir/laboratory/StructureDefinition/Observation-resultslab-eu-lab"
          ]
        },
        "performer": [
          {
            "display": "The Central European Lab"
          }
        ],
        "category": [
          {
            "coding": [
              {
                "system": "http://terminology.hl7.org/CodeSystem/observation-category",
                "code": "laboratory"
              }
            ]
          }
        ],
        "code": {
          "coding": [
            {
              "code": "2085-9",
              "system": "http://loinc.org",
              "display": "Cholesterol in HDL [Mass/volume] in Serum or Plasma"
            }
          ],
          "text": "Cholesterol in HDL [Mass/volume] in Serum or Plasma"
        },
        "valueQuantity": {
          "system": "http://unitsofmeasure.org",
          "value": 37.6,
          "unit": "mg/dL",
          "code": "mg/dL"
        },
        "referenceRange": [
          {
            "low": {
              "value": 40,
              "code": "mg/dL",
              "system": "http://unitsofmeasure.org"
            }
          },
          {
            "high": {
              "value": 100,
              "code": "mg/dL",
              "system": "http://unitsofmeasure.org"
            }
          }
        ],
        "interpretation": [
          {
            "coding": [
              {
                "code": "L",
                "system": "http://terminology.hl7.org/CodeSystem/v3-ObservationInterpretation",
                "display": "Low"
              }
            ]
          }
        ],
        "text": {
          "status": "generated",
          "div": "<div xmlns=\"http://www.w3.org/1999/xhtml\"><table class=\"hl7__eu__lab__report\"><tr><th>Test</th><th>01-Mar-2019</th><th>Reference&#xA0;Range</th><th>Unit</th></tr><tr><td>Cholesterol in HDL [Mass/volume] in Serum or Plasma</td><td>37.6</td><td>40 - 100</td><td>L</td><td>mg/dL</td></tr></table></div>"
        },
        "status": "final",
        "subject": {
          "reference": "urn:uuid:1c5948d7-48cf-47d4-b10a-fa21d4b8aef9",
          "display": "Marthe Gallet"
        },
        "effectiveDateTime": "2019-03-01T19:05:43Z",
        "specimen": {
          "reference": "urn:uuid:348a3bb1-c0ef-422c-a692-c166600bee80"
        }
      }
    },
    {
      "fullUrl": "urn:uuid:d377ebf6-64b6-4a43-8029-c0dfd46a64ee",
      "resource": {
        "resourceType": "Device",
        "id": "d377ebf6-64b6-4a43-8029-c0dfd46a64ee",
        "deviceName": [
          {
            "name": "SYNDERAI Synthetic Generator",
            "type": "manufacturer-name"
          }
        ],
        "version": [
          {
            "value": "5.0"
          }
        ],
        "text": {
          "status": "generated",
          "div": "<div xmlns=\"http://www.w3.org/1999/xhtml\">SYNDERAI Synthetic Generator v5.0</div>"
        },
        "status": "active\"",
        "distinctIdentifier": "synderai-generator-50",
        "manufacturer": "SYNDERAI Project"
      }
    },
    {
      "fullUrl": "urn:uuid:f50aaf67-1bd4-44bd-a7e5-4695a5526eb6",
      "resource": {
        "resourceType": "Provenance",
        "id": "f50aaf67-1bd4-44bd-a7e5-4695a5526eb6",
        "target": [
          {
            "reference": "Patient/1c5948d7-48cf-47d4-b10a-fa21d4b8aef9"
          },
          {
            "reference": "Bundle/9a89d1c8-08ca-4eeb-ba6b-0d20d4fa8059"
          },
          {
            "reference": "Composition/ba66d633-6ed6-4cf7-9888-87849243b7ee"
          },
          {
            "reference": "PractitionerRole/6dd46dfb-28dd-4192-8e07-9258a5492203"
          },
          {
            "reference": "Practitioner/a395928e-dad3-440d-86f9-45344b27a3c5"
          },
          {
            "reference": "PractitionerRole/af5a2b15-141d-45b8-acb0-30e88f393947"
          },
          {
            "reference": "Organization/d4653219-7c89-4529-adce-e8bb6a335118"
          }
        ],
        "activity": {
          "text": "Synthetic Example Data Generation"
        },
        "policy": [
          "https://synderai.net/synderai-synthetic-data-policy"
        ],
        "agent": [
          {
            "type": {
              "text": "author"
            },
            "who": {
              "reference": "Device/d377ebf6-64b6-4a43-8029-c0dfd46a64ee"
            }
          }
        ],
        "reason": [
          {
            "text": "Interoperability Testing and Training (non-clinical use)"
          }
        ],
        "text": {
          "status": "generated",
          "div": "<div xmlns=\"http://www.w3.org/1999/xhtml\">Provenance for SYNDERAI Synthetic Example Data Resource</div>"
        },
        "recorded": "2019-03-01T20:05:43Z"
      }
    },
    {
      "fullUrl": "urn:uuid:6dd46dfb-28dd-4192-8e07-9258a5492203",
      "resource": {
        "resourceType": "PractitionerRole",
        "id": "6dd46dfb-28dd-4192-8e07-9258a5492203",
        "meta": {
          "profile": [
            "http://hl7.eu/fhir/base/StructureDefinition/practitionerRole-eu"
          ]
        },
        "text": {
          "status": "generated",
          "div": "<div xmlns=\"http://www.w3.org/1999/xhtml\">Laboratory Role Id: 6dd46dfb-28dd-4192-8e07-9258a5492203</div>"
        },
        "practitioner": {
          "reference": "urn:uuid:a395928e-dad3-440d-86f9-45344b27a3c5"
        }
      }
    },
    {
      "fullUrl": "urn:uuid:a395928e-dad3-440d-86f9-45344b27a3c5",
      "resource": {
        "resourceType": "Practitioner",
        "id": "a395928e-dad3-440d-86f9-45344b27a3c5",
        "meta": {
          "profile": [
            "http://hl7.eu/fhir/base/StructureDefinition/practitioner-eu"
          ]
        },
        "identifier": [
          {
            "assigner": {
              "display": "HL7 Europe"
            },
            "system": "urn:oid:2.16.840.1.113883.2.51.999",
            "value": "bec03600-5d1b-4e56-8e3b-3fe475be2b82"
          }
        ],
        "name": [
          {
            "prefix": [
              "dr"
            ],
            "given": [
              "Ex"
            ],
            "family": "Ample"
          }
        ],
        "address": [
          {
            "line": [
              "Laboratoire Central Européenne",
              "Boulevard du Jardin Botanique 32"
            ],
            "postalCode": "1000",
            "city": "Brussels",
            "country": "Belgium"
          }
        ],
        "text": {
          "status": "generated",
          "div": "<div xmlns=\"http://www.w3.org/1999/xhtml\">Laboratory: Laboratoire Central Européenne, 1000 Brussels, Belgium</div>"
        }
      }
    }
  ],
  "type": "document",
  "timestamp": "2019-03-01T20:05:43Z"
}
