{
  "resourceType": "Bundle",
  "id": "bd27ae11-dd23-440b-8503-3a6a5a85c118",
  "meta": {
    "profile": [
      "http://hl7.eu/fhir/laboratory/StructureDefinition/Bundle-eu-lab"
    ]
  },
  "identifier": {
    "assigner": {
      "display": "HL7 Europe"
    },
    "system": "urn:oid:2.16.840.1.113883.2.51.999",
    "value": "9d381ddf-aa26-43a0-8487-690832cc17b0"
  },
  "entry": [
    {
      "fullUrl": "urn:uuid:917b57aa-486d-45c6-ab53-9d2ed5fec94d",
      "resource": {
        "resourceType": "Composition",
        "id": "917b57aa-486d-45c6-ab53-9d2ed5fec94d",
        "meta": {
          "profile": [
            "http://hl7.eu/fhir/laboratory/StructureDefinition/Composition-eu-lab"
          ]
        },
        "identifier": {
          "assigner": {
            "display": "HL7 Europe"
          },
          "system": "urn:oid:2.16.840.1.113883.2.51.999",
          "value": "4f1a1fd4-d0fd-4660-911a-231ca546aa2f"
        },
        "author": [
          {
            "reference": "urn:uuid:cc4c516b-c659-43ee-a06f-520523cfb098"
          }
        ],
        "category": [
          {
            "coding": [
              {
                "code": "26436-6",
                "system": "http://loinc.org",
                "display": "Laboratory studies (set)"
              }
            ]
          }
        ],
        "type": {
          "coding": [
            {
              "code": "11502-2",
              "system": "http://loinc.org",
              "display": "Laboratory report"
            }
          ],
          "text": "Laboratory Report"
        },
        "section": [
          {
            "code": {
              "coding": [
                {
                  "code": "26436-6",
                  "system": "http://loinc.org",
                  "display": "Laboratory studies (set)"
                }
              ],
              "text": "Laboratory studies"
            },
            "section": [
              {
                "code": {
                  "coding": [
                    {
                      "code": "$18719-5",
                      "system": "http://loinc.org",
                      "display": "Chemistry studies (set)"
                    }
                  ],
                  "text": "Chemistry"
                },
                "entry": [
                  {
                    "reference": "urn:uuid:2078cc7b-d74c-428a-8443-ab1f9b427d64"
                  },
                  {
                    "reference": "urn:uuid:d6eb9ff9-8a35-4b75-908e-4b89a992bf9c"
                  },
                  {
                    "reference": "urn:uuid:49357743-83a0-42a4-b1fa-1d55d25d7e6c"
                  },
                  {
                    "reference": "urn:uuid:b17ace99-42b1-4dd7-a1ac-a60b583e9ec9"
                  },
                  {
                    "reference": "urn:uuid:8ea79dd4-4987-4e75-80fe-48795ac2fb79"
                  },
                  {
                    "reference": "urn:uuid:152ab5ae-6f75-4e59-9d17-407ec65069c6"
                  },
                  {
                    "reference": "urn:uuid:5339329c-331c-4fe2-b72a-3f4d6ecf6c8a"
                  },
                  {
                    "reference": "urn:uuid:cca901f1-0251-4f12-b5da-5ee102b01a5c"
                  },
                  {
                    "reference": "urn:uuid:ec005b1a-7979-4753-9b32-d326dfdc6ada"
                  },
                  {
                    "reference": "urn:uuid:19e2235e-98dc-480a-b323-907d216c0054"
                  },
                  {
                    "reference": "urn:uuid:9bb2eebf-7d2a-4df1-a896-1177150d8845"
                  },
                  {
                    "reference": "urn:uuid:6d188e6f-ffdd-4ccc-a349-4d3cb4f8b5ce"
                  },
                  {
                    "reference": "urn:uuid:909ca90e-5197-42a5-9301-19cfcca522ad"
                  },
                  {
                    "reference": "urn:uuid:d6b33ca7-ca54-458b-832c-6792456e6f24"
                  },
                  {
                    "reference": "urn:uuid:e6d7ac70-36cf-4c82-8a5b-0f8804a3bcd5"
                  },
                  {
                    "reference": "urn:uuid:fba5a16a-47ca-4a38-9453-e37b5120ea3b"
                  },
                  {
                    "reference": "urn:uuid:1cf62936-26c7-4415-99fd-d5db12deee83"
                  },
                  {
                    "reference": "urn:uuid:013046ce-1ab6-4834-b15c-3024e5605ec0"
                  }
                ],
                "text": {
                  "status": "generated",
                  "div": "<div xmlns=\"http://www.w3.org/1999/xhtml\"><h3>Chemistry</h3><table class=\"hl7__eu__lab__report\"><thead><tr><th>Test</th><th>09-DEC-2021</th><th>Reference&#xA0;Range</th><th>Unit</th></tr></thead><tbody><tr><td>Glucose [Mass/volume] in Serum or Plasma</td><td>95.4</td><td>70 - 140</td><td>mg/dL</td></tr><tr><td>Urea nitrogen [Mass/volume] in Serum or Plasma</td><td>12.8</td><td>7 - 25</td><td>mg/dL</td></tr><tr><td>Creatinine [Mass/volume] in Serum or Plasma</td><td><strong>1.9 H</strong></td><td>0.9 - 1.3</td><td>mg/dL</td></tr><tr><td>Calcium [Mass/volume] in Serum or Plasma</td><td>10.0</td><td>8.5 - 10.5</td><td>mg/dL</td></tr><tr><td>Sodium [Moles/volume] in Serum or Plasma</td><td>140.2</td><td>135 - 145</td><td>mmol/L</td></tr><tr><td>Potassium [Moles/volume] in Serum or Plasma</td><td>4.3</td><td>3.5 - 5.3</td><td>mmol/L</td></tr><tr><td>Chloride [Moles/volume] in Serum or Plasma</td><td>104.5</td><td>98 - 107</td><td>mmol/L</td></tr><tr><td>Carbon dioxide, total [Moles/volume] in Serum or Plasma</td><td>23.6</td><td>22 - 29</td><td>mmol/L</td></tr><tr><td>Ketones [Presence] in Urine by Test strip</td><td>Urine ketone test = +</td><td></td><td></td></tr><tr><td>Hemoglobin A1c/Hemoglobin.total in Blood</td><td><strong>3.2 L</strong></td><td>4.5 - 6.4</td><td>%</td></tr><tr><td>Glucose [Mass/volume] in Blood</td><td>95.4</td><td>70 - 140</td><td>mg/dL</td></tr><tr><td>Urea nitrogen [Mass/volume] in Blood</td><td>12.8</td><td>7 - 25</td><td>mg/dL</td></tr><tr><td>Creatinine [Mass/volume] in Blood</td><td><strong>1.4 H</strong></td><td>0.9 - 1.3</td><td>mg/dL</td></tr><tr><td>Calcium [Mass/volume] in Blood</td><td>10.0</td><td>8.6 - 10.2</td><td>mg/dL</td></tr><tr><td>Sodium [Moles/volume] in Blood</td><td>140.2</td><td>135 - 145</td><td>mmol/L</td></tr><tr><td>Potassium [Moles/volume] in Blood</td><td>4.3</td><td>3.5 - 5.1</td><td>mmol/L</td></tr><tr><td>Chloride [Moles/volume] in Blood</td><td>104.5</td><td>98 - 108</td><td>mmol/L</td></tr><tr><td>Carbon dioxide, total [Moles/volume] in Blood</td><td>23.6</td><td>22 - 32</td><td>mmol/L</td></tr></tbody></table></div>"
                },
                "title": "Chemistry"
              },
              {
                "code": {
                  "coding": [
                    {
                      "code": "$18729-4",
                      "system": "http://loinc.org",
                      "display": "Urinalysis studies (set)"
                    }
                  ],
                  "text": "Urinalysis"
                },
                "entry": [
                  {
                    "reference": "urn:uuid:19b42933-cfe3-496d-8054-8b2d8e9b8057"
                  },
                  {
                    "reference": "urn:uuid:9209df68-1161-4711-a72e-7f593b263076"
                  },
                  {
                    "reference": "urn:uuid:80e4c37f-965f-4049-bc0c-63fa3163ebd2"
                  },
                  {
                    "reference": "urn:uuid:bff7cb1e-4ef0-4d9b-b81c-c885c40e47a8"
                  },
                  {
                    "reference": "urn:uuid:1786e90f-bff0-4a2b-a68b-38a66f5de9aa"
                  },
                  {
                    "reference": "urn:uuid:9a368e32-5842-42b9-8c20-cfb7bef8566b"
                  },
                  {
                    "reference": "urn:uuid:8dcf8dd3-69f5-43d9-a991-91a015739313"
                  },
                  {
                    "reference": "urn:uuid:a388ee75-108d-4579-ac68-edfbf95be1a2"
                  },
                  {
                    "reference": "urn:uuid:330a983b-31b0-4baf-99ac-9073459ad03b"
                  },
                  {
                    "reference": "urn:uuid:2b1c6f9f-6b3d-42b4-b8df-b1507537a978"
                  },
                  {
                    "reference": "urn:uuid:61b7b9c5-5fdf-4482-bebd-ad4ca967ae6f"
                  },
                  {
                    "reference": "urn:uuid:b0ab7299-679b-4de0-bc11-f236be87b8da"
                  }
                ],
                "text": {
                  "status": "generated",
                  "div": "<div xmlns=\"http://www.w3.org/1999/xhtml\"><h3>Urinalysis</h3><table class=\"hl7__eu__lab__report\"><thead><tr><th>Test</th><th>09-DEC-2021</th><th>Reference&#xA0;Range</th><th>Unit</th></tr></thead><tbody><tr><td>Glucose [Mass/volume] in Urine by Test strip</td><td><strong>1.2 H</strong></td><td>0.8 - 0</td><td>mg/dL</td></tr><tr><td>Glucose [Presence] in Urine by Test strip</td><td>++</td><td></td><td></td></tr><tr><td>Bilirubin.total [Mass/volume] in Urine by Test strip</td><td>0.3</td><td>0.2 - 1.5</td><td>mg/dL</td></tr><tr><td>Bilirubin.total [Presence] in Urine by Test strip</td><td>Finding of bilirubin in urine</td><td></td><td></td></tr><tr><td>Ketones [Mass/volume] in Urine by Test strip</td><td>1.7</td><td>0 - 4</td><td>mg/dL</td></tr><tr><td>Specific gravity of Urine by Test strip</td><td><strong>1.0 L</strong></td><td>1.01 - 1.03</td><td>{nominal}</td></tr><tr><td>pH of Urine by Test strip</td><td>6.3</td><td>4.5 - 7.5</td><td>pH</td></tr><tr><td>Protein [Mass/volume] in Urine by Test strip</td><td><strong>266.2 H</strong></td><td>0 - 150</td><td>mg/dL</td></tr><tr><td>Protein [Presence] in Urine by Test strip</td><td>Urine protein test = ++</td><td></td><td></td></tr><tr><td>Nitrite [Presence] in Urine by Test strip</td><td>Urine nitrite negative</td><td></td><td></td></tr><tr><td>Hemoglobin [Presence] in Urine by Test strip</td><td>Urine blood test = negative</td><td></td><td></td></tr><tr><td>Leukocyte esterase [Presence] in Urine by Test strip</td><td>Urine leukocyte test negative</td><td></td><td></td></tr></tbody></table></div>"
                },
                "title": "Urinalysis"
              },
              {
                "code": {
                  "coding": [
                    {
                      "code": "$LP7846-1",
                      "system": "http://loinc.org",
                      "display": "Specimen information"
                    }
                  ],
                  "text": "Specimen information"
                },
                "entry": [
                  {
                    "reference": "urn:uuid:fee575a7-9736-4661-9292-3bd0d23d5a14"
                  },
                  {
                    "reference": "urn:uuid:a65e3c43-307e-4129-b1db-b321d0eaee9c"
                  },
                  {
                    "reference": "urn:uuid:75cbd55f-16ea-43ff-b0f4-8dce9665f203"
                  },
                  {
                    "reference": "urn:uuid:9ae79cc7-7b10-4be1-86f4-781d07050ccf"
                  }
                ],
                "text": {
                  "status": "generated",
                  "div": "<div xmlns=\"http://www.w3.org/1999/xhtml\"><h3>Specimen information</h3><table class=\"hl7__eu__lab__report\"><thead><tr><th>Test</th><th>09-DEC-2021</th><th>Specimen</th><th></th></tr></thead><tbody><tr><td>Appearance of Urine</td><td>Cloudy urine</td><td>Urine</td><td></td></tr><tr><td>Odor of Urine</td><td>Urine smell ammoniacal</td><td>Urine</td><td></td></tr><tr><td>Clarity of Urine</td><td>Translucent</td><td>Urine</td><td></td></tr><tr><td>Color of Urine</td><td>Brown color</td><td>Urine</td><td></td></tr></tbody></table></div>"
                },
                "title": "Specimen information"
              }
            ],
            "title": "Laboratory Report"
          },
          {
            "text": {
              "status": "generated",
              "div": "<div xmlns=\"http://www.w3.org/1999/xhtml\"><h3>Annotation</h3><table class=\"hl7__eu__lab__report\"><tr><th>Conclusion and Recommendations based on this report and previous findings known to us</th></tr><tr><td>The patient shows mildly elevated creatinine, suggesting possible reduced renal function. Urinalysis reveals proteinuria, glucosuria, low specific gravity, and abnormal urine appearance (cloudy, brown, ammoniacal), which may indicate renal impairment or possible urinary tract pathology. HbA1c is low, not consistent with diabetes, despite glucosuria. No evidence of infection (negative nitrite, leukocytes). Recommend further renal evaluation and clinical correlation for possible underlying kidney disease and assessment of urine discoloration.</td></tr></table></div>"
            },
            "code": {
              "coding": [
                {
                  "system": "http://loinc.org",
                  "code": "48767-8",
                  "display": "Annotation comment"
                }
              ]
            },
            "title": "Annotation comment"
          }
        ],
        "status": "final",
        "subject": {
          "reference": "urn:uuid:5677de89-7845-41ac-ad16-21f74ff807dc",
          "display": "Pelayo Casal"
        },
        "date": "2021-12-09T06:38:59Z",
        "title": "Laboratory Report",
        "confidentiality": "N"
      }
    },
    {
      "fullUrl": "urn:uuid:cea81990-f499-411a-8fcf-4e6dad4dbaf6",
      "resource": {
        "resourceType": "DiagnosticReport",
        "id": "cea81990-f499-411a-8fcf-4e6dad4dbaf6",
        "meta": {
          "profile": [
            "http://hl7.eu/fhir/laboratory/StructureDefinition/DiagnosticReport-eu-lab"
          ]
        },
        "identifier": [
          {
            "assigner": {
              "display": "HL7 Europe"
            },
            "system": "urn:oid:2.16.840.1.113883.2.51.999",
            "value": "280ffffe-0332-4f17-abac-cccbccfe3c09"
          }
        ],
        "extension": [
          {
            "url": "http://hl7.org/fhir/5.0/StructureDefinition/extension-DiagnosticReport.composition",
            "valueReference": {
              "reference": "urn:uuid:4f1a1fd4-d0fd-4660-911a-231ca546aa2f"
            }
          }
        ],
        "category": [
          {
            "coding": [
              {
                "code": "26436-6",
                "system": "http://loinc.org",
                "display": "Laboratory studies (set)"
              }
            ]
          }
        ],
        "specimen": [
          {
            "reference": "urn:uuid:fe46ffa6-25f2-4ba5-84fb-c6029d3139de"
          },
          {
            "reference": "urn:uuid:0a50a3df-638f-4708-9b54-9dfeceed41f2"
          },
          {
            "reference": "urn:uuid:1c1d5385-a90e-4d25-8fbe-1275098252aa"
          }
        ],
        "result": [
          {
            "reference": "urn:uuid:2078cc7b-d74c-428a-8443-ab1f9b427d64"
          },
          {
            "reference": "urn:uuid:d6eb9ff9-8a35-4b75-908e-4b89a992bf9c"
          },
          {
            "reference": "urn:uuid:49357743-83a0-42a4-b1fa-1d55d25d7e6c"
          },
          {
            "reference": "urn:uuid:b17ace99-42b1-4dd7-a1ac-a60b583e9ec9"
          },
          {
            "reference": "urn:uuid:8ea79dd4-4987-4e75-80fe-48795ac2fb79"
          },
          {
            "reference": "urn:uuid:152ab5ae-6f75-4e59-9d17-407ec65069c6"
          },
          {
            "reference": "urn:uuid:5339329c-331c-4fe2-b72a-3f4d6ecf6c8a"
          },
          {
            "reference": "urn:uuid:cca901f1-0251-4f12-b5da-5ee102b01a5c"
          },
          {
            "reference": "urn:uuid:fee575a7-9736-4661-9292-3bd0d23d5a14"
          },
          {
            "reference": "urn:uuid:a65e3c43-307e-4129-b1db-b321d0eaee9c"
          },
          {
            "reference": "urn:uuid:75cbd55f-16ea-43ff-b0f4-8dce9665f203"
          },
          {
            "reference": "urn:uuid:9ae79cc7-7b10-4be1-86f4-781d07050ccf"
          },
          {
            "reference": "urn:uuid:19b42933-cfe3-496d-8054-8b2d8e9b8057"
          },
          {
            "reference": "urn:uuid:9209df68-1161-4711-a72e-7f593b263076"
          },
          {
            "reference": "urn:uuid:80e4c37f-965f-4049-bc0c-63fa3163ebd2"
          },
          {
            "reference": "urn:uuid:bff7cb1e-4ef0-4d9b-b81c-c885c40e47a8"
          },
          {
            "reference": "urn:uuid:1786e90f-bff0-4a2b-a68b-38a66f5de9aa"
          },
          {
            "reference": "urn:uuid:ec005b1a-7979-4753-9b32-d326dfdc6ada"
          },
          {
            "reference": "urn:uuid:9a368e32-5842-42b9-8c20-cfb7bef8566b"
          },
          {
            "reference": "urn:uuid:8dcf8dd3-69f5-43d9-a991-91a015739313"
          },
          {
            "reference": "urn:uuid:a388ee75-108d-4579-ac68-edfbf95be1a2"
          },
          {
            "reference": "urn:uuid:330a983b-31b0-4baf-99ac-9073459ad03b"
          },
          {
            "reference": "urn:uuid:2b1c6f9f-6b3d-42b4-b8df-b1507537a978"
          },
          {
            "reference": "urn:uuid:61b7b9c5-5fdf-4482-bebd-ad4ca967ae6f"
          },
          {
            "reference": "urn:uuid:b0ab7299-679b-4de0-bc11-f236be87b8da"
          },
          {
            "reference": "urn:uuid:19e2235e-98dc-480a-b323-907d216c0054"
          },
          {
            "reference": "urn:uuid:9bb2eebf-7d2a-4df1-a896-1177150d8845"
          },
          {
            "reference": "urn:uuid:6d188e6f-ffdd-4ccc-a349-4d3cb4f8b5ce"
          },
          {
            "reference": "urn:uuid:909ca90e-5197-42a5-9301-19cfcca522ad"
          },
          {
            "reference": "urn:uuid:d6b33ca7-ca54-458b-832c-6792456e6f24"
          },
          {
            "reference": "urn:uuid:e6d7ac70-36cf-4c82-8a5b-0f8804a3bcd5"
          },
          {
            "reference": "urn:uuid:fba5a16a-47ca-4a38-9453-e37b5120ea3b"
          },
          {
            "reference": "urn:uuid:1cf62936-26c7-4415-99fd-d5db12deee83"
          },
          {
            "reference": "urn:uuid:013046ce-1ab6-4834-b15c-3024e5605ec0"
          }
        ],
        "status": "registered",
        "code": {
          "coding": [
            {
              "code": "11502-2",
              "system": "http://loinc.org",
              "display": "Laboratory report"
            }
          ]
        },
        "subject": {
          "reference": "urn:uuid:5677de89-7845-41ac-ad16-21f74ff807dc",
          "display": "Pelayo Casal"
        }
      }
    },
    {
      "fullUrl": "urn:uuid:5677de89-7845-41ac-ad16-21f74ff807dc",
      "resource": {
        "resourceType": "Patient",
        "id": "5677de89-7845-41ac-ad16-21f74ff807dc",
        "meta": {
          "security": [
            {
              "system": "http://terminology.hl7.org/CodeSystem/v3-ActReason",
              "code": "HTEST"
            },
            {
              "system": "http://terminology.hl7.org/CodeSystem/v3-ActReason",
              "code": "TRAIN"
            }
          ],
          "tag": [
            {
              "system": "https://synderai.net/fhir/CodeSystem/tags",
              "code": "synthetic",
              "display": "SYNDERAI Synthetic data"
            }
          ],
          "profile": [
            "http://hl7.eu/fhir/base/StructureDefinition/patient-eu-core"
          ]
        },
        "identifier": [
          {
            "type": {
              "coding": [
                {
                  "code": "PT",
                  "system": "http://terminology.hl7.org/CodeSystem/v2-0203"
                }
              ]
            },
            "system": "http://ec.europa.eu/identifier/eci",
            "value": "7707-510028-7"
          },
          {
            "type": {
              "coding": [
                {
                  "code": "MR",
                  "system": "http://terminology.hl7.org/CodeSystem/v2-0203"
                }
              ]
            },
            "system": "http://local.setting.eu/identifier",
            "value": "d88e82c6-df33-82d2-8538-f8b57da06491"
          }
        ],
        "name": [
          {
            "family": "Casal"
          },
          {
            "given": [
              "Pelayo"
            ]
          },
          {
            "text": "Pelayo Casal"
          }
        ],
        "address": [
          {
            "line": [
              "Callejón de Ignacio Pedrosa 67 Apt. 68 "
            ],
            "use": "home",
            "type": "physical",
            "postalCode": "35001",
            "city": "Las Palmas",
            "country": "Spain"
          }
        ],
        "telecom": [
          {
            "system": "phone",
            "value": "+34 875724898"
          }
        ],
        "extension": [
          {
            "url": "http://hl7.org/fhir/StructureDefinition/patient-nationality",
            "valueCodeableConcept": {
              "coding": [
                {
                  "code": "ES",
                  "system": "http://hl7.org/fhir/ValueSet/country"
                }
              ]
            }
          }
        ],
        "text": {
          "status": "generated",
          "div": "<div xmlns=\"http://www.w3.org/1999/xhtml\"><table class=\"hl7__ips\"><tr><td>Pelayo Casal</td><td>male</td><td>19-Apr-1940</td></tr></table></div>"
        },
        "gender": "male",
        "birthDate": "1940-04-19"
      }
    },
    {
      "fullUrl": "urn:uuid:5ae7fec1-0482-4a04-8c68-155e1b75b742",
      "resource": {
        "resourceType": "ServiceRequest",
        "id": "5ae7fec1-0482-4a04-8c68-155e1b75b742",
        "meta": {
          "profile": [
            "http://hl7.eu/fhir/laboratory/StructureDefinition/ServiceRequest-eu-lab"
          ]
        },
        "identifier": [
          {
            "system": "http://example.org",
            "value": "69dde3c0-89de-42d6-82ab-b597646607ce"
          }
        ],
        "specimen": [
          {
            "reference": "urn:uuid:fe46ffa6-25f2-4ba5-84fb-c6029d3139de"
          },
          {
            "reference": "urn:uuid:0a50a3df-638f-4708-9b54-9dfeceed41f2"
          },
          {
            "reference": "urn:uuid:1c1d5385-a90e-4d25-8fbe-1275098252aa"
          }
        ],
        "reasonCode": [
          {
            "coding": [
              {
                "code": "431856006",
                "system": "http://snomed.info/sct",
                "display": "Chronic kidney disease stage 2"
              }
            ]
          },
          {
            "coding": [
              {
                "code": "90781000119102",
                "system": "http://snomed.info/sct",
                "display": "Microalbuminuria due to type 2 diabetes mellitus"
              }
            ]
          },
          {
            "coding": [
              {
                "code": "127013003",
                "system": "http://snomed.info/sct",
                "display": "Disorder of kidney due to diabetes mellitus"
              }
            ]
          },
          {
            "coding": [
              {
                "code": "431855005",
                "system": "http://snomed.info/sct",
                "display": "Chronic kidney disease stage 1"
              }
            ]
          },
          {
            "coding": [
              {
                "code": "64859006",
                "system": "http://snomed.info/sct",
                "display": "Osteoporosis"
              }
            ]
          },
          {
            "coding": [
              {
                "code": "414545008",
                "system": "http://snomed.info/sct",
                "display": "Ischemic heart disease"
              }
            ]
          },
          {
            "coding": [
              {
                "code": "237602007",
                "system": "http://snomed.info/sct",
                "display": "Metabolic syndrome X"
              }
            ]
          },
          {
            "coding": [
              {
                "code": "59621000",
                "system": "http://snomed.info/sct",
                "display": "Essential hypertension"
              }
            ]
          },
          {
            "coding": [
              {
                "code": "271737000",
                "system": "http://snomed.info/sct",
                "display": "Anemia"
              }
            ]
          },
          {
            "coding": [
              {
                "code": "15777000",
                "system": "http://snomed.info/sct",
                "display": "Prediabetes"
              }
            ]
          }
        ],
        "status": "active",
        "intent": "order",
        "code": {
          "coding": [
            {
              "code": "108252007",
              "system": "http://snomed.info/sct",
              "display": "Laboratory procedure"
            }
          ]
        },
        "subject": {
          "reference": "urn:uuid:5677de89-7845-41ac-ad16-21f74ff807dc",
          "display": "Pelayo Casal"
        },
        "requester": {
          "reference": "urn:uuid:6407d8f1-d91c-4f85-82f3-22cdf366e390"
        }
      }
    },
    {
      "fullUrl": "urn:uuid:6407d8f1-d91c-4f85-82f3-22cdf366e390",
      "resource": {
        "resourceType": "PractitionerRole",
        "id": "6407d8f1-d91c-4f85-82f3-22cdf366e390",
        "meta": {
          "profile": [
            "http://hl7.eu/fhir/base/StructureDefinition/practitionerRole-eu"
          ]
        },
        "text": {
          "status": "generated",
          "div": "<div xmlns=\"http://www.w3.org/1999/xhtml\">Provider Role Id: 6407d8f1-d91c-4f85-82f3-22cdf366e390</div>"
        },
        "organization": {
          "reference": "urn:uuid:81601ae2-553a-48eb-922d-9989c4e5f68f"
        }
      }
    },
    {
      "fullUrl": "urn:uuid:81601ae2-553a-48eb-922d-9989c4e5f68f",
      "resource": {
        "resourceType": "Organization",
        "id": "81601ae2-553a-48eb-922d-9989c4e5f68f",
        "meta": {
          "profile": [
            "http://hl7.eu/fhir/base/StructureDefinition/organization-eu"
          ]
        },
        "identifier": [
          {
            "assigner": {
              "display": "HL7 Europe"
            },
            "system": "urn:oid:2.16.840.1.113883.2.51.999",
            "value": "0b00f5e5-fec1-4a3d-866a-806f618e07cd"
          }
        ],
        "address": [
          {
            "country": "Spain"
          }
        ],
        "text": {
          "status": "generated",
          "div": "<div xmlns=\"http://www.w3.org/1999/xhtml\">Provider Organization: Centro de Salud de Guanarteme</div>"
        },
        "name": "Centro de Salud de Guanarteme"
      }
    },
    {
      "fullUrl": "urn:uuid:fe46ffa6-25f2-4ba5-84fb-c6029d3139de",
      "resource": {
        "resourceType": "Specimen",
        "id": "fe46ffa6-25f2-4ba5-84fb-c6029d3139de",
        "meta": {
          "profile": [
            "http://hl7.eu/fhir/laboratory/StructureDefinition/Specimen-eu-lab"
          ]
        },
        "collection": {
          "collectedDateTime": "2021-12-09"
        },
        "text": {
          "status": "generated",
          "div": "<div xmlns=\"http://www.w3.org/1999/xhtml\"><table class=\"hl7__eu__lab__report\"><tr><th>Specimen</th><th>Collection Date</th></tr><tr><td>Acellular blood (serum or plasma) specimen</td><td><span class=\"nb\">09-Dec-2021</span></td></tr></table></div>"
        },
        "type": {
          "coding": [
            {
              "code": "122592007",
              "system": "http://snomed.info/sct",
              "display": "Acellular blood (serum or plasma) specimen"
            }
          ]
        }
      }
    },
    {
      "fullUrl": "urn:uuid:0a50a3df-638f-4708-9b54-9dfeceed41f2",
      "resource": {
        "resourceType": "Specimen",
        "id": "0a50a3df-638f-4708-9b54-9dfeceed41f2",
        "meta": {
          "profile": [
            "http://hl7.eu/fhir/laboratory/StructureDefinition/Specimen-eu-lab"
          ]
        },
        "collection": {
          "collectedDateTime": "2021-12-09"
        },
        "text": {
          "status": "generated",
          "div": "<div xmlns=\"http://www.w3.org/1999/xhtml\"><table class=\"hl7__eu__lab__report\"><tr><th>Specimen</th><th>Collection Date</th></tr><tr><td>Urine specimen</td><td><span class=\"nb\">09-Dec-2021</span></td></tr></table></div>"
        },
        "type": {
          "coding": [
            {
              "code": "122575003",
              "system": "http://snomed.info/sct",
              "display": "Urine specimen"
            }
          ]
        }
      }
    },
    {
      "fullUrl": "urn:uuid:1c1d5385-a90e-4d25-8fbe-1275098252aa",
      "resource": {
        "resourceType": "Specimen",
        "id": "1c1d5385-a90e-4d25-8fbe-1275098252aa",
        "meta": {
          "profile": [
            "http://hl7.eu/fhir/laboratory/StructureDefinition/Specimen-eu-lab"
          ]
        },
        "collection": {
          "collectedDateTime": "2021-12-09"
        },
        "text": {
          "status": "generated",
          "div": "<div xmlns=\"http://www.w3.org/1999/xhtml\"><table class=\"hl7__eu__lab__report\"><tr><th>Specimen</th><th>Collection Date</th></tr><tr><td>Whole blood specimen (specimen)</td><td><span class=\"nb\">09-Dec-2021</span></td></tr></table></div>"
        },
        "type": {
          "coding": [
            {
              "code": "258580003",
              "system": "http://snomed.info/sct",
              "display": "Whole blood specimen (specimen)"
            }
          ]
        }
      }
    },
    {
      "fullUrl": "urn:uuid:2078cc7b-d74c-428a-8443-ab1f9b427d64",
      "resource": {
        "resourceType": "Observation",
        "id": "2078cc7b-d74c-428a-8443-ab1f9b427d64",
        "meta": {
          "profile": [
            "http://hl7.eu/fhir/laboratory/StructureDefinition/Observation-resultslab-eu-lab"
          ]
        },
        "performer": [
          {
            "display": "The Central European Lab"
          }
        ],
        "category": [
          {
            "coding": [
              {
                "system": "http://terminology.hl7.org/CodeSystem/observation-category",
                "code": "laboratory"
              }
            ]
          }
        ],
        "code": {
          "coding": [
            {
              "code": "2345-7",
              "system": "http://loinc.org",
              "display": "Glucose [Mass/volume] in Serum or Plasma"
            }
          ],
          "text": "Glucose [Mass/volume] in Serum or Plasma"
        },
        "valueQuantity": {
          "system": "http://unitsofmeasure.org",
          "value": 95.4,
          "unit": "mg/dL",
          "code": "mg/dL"
        },
        "referenceRange": [
          {
            "low": {
              "value": 70,
              "code": "mg/dL",
              "system": "http://unitsofmeasure.org"
            }
          },
          {
            "high": {
              "value": 140,
              "code": "mg/dL",
              "system": "http://unitsofmeasure.org"
            }
          }
        ],
        "text": {
          "status": "generated",
          "div": "<div xmlns=\"http://www.w3.org/1999/xhtml\"><table class=\"hl7__eu__lab__report\"><tr><th>Test</th><th>09-Dec-2021</th><th>Reference&#xA0;Range</th><th>Unit</th></tr><tr><td>Glucose [Mass/volume] in Serum or Plasma</td><td>95.4</td><td>70 - 140</td><td></td><td>mg/dL</td></tr></table></div>"
        },
        "status": "final",
        "subject": {
          "reference": "urn:uuid:5677de89-7845-41ac-ad16-21f74ff807dc",
          "display": "Pelayo Casal"
        },
        "effectiveDateTime": "2021-12-09T05:38:59Z",
        "specimen": {
          "reference": "urn:uuid:fe46ffa6-25f2-4ba5-84fb-c6029d3139de"
        }
      }
    },
    {
      "fullUrl": "urn:uuid:d6eb9ff9-8a35-4b75-908e-4b89a992bf9c",
      "resource": {
        "resourceType": "Observation",
        "id": "d6eb9ff9-8a35-4b75-908e-4b89a992bf9c",
        "meta": {
          "profile": [
            "http://hl7.eu/fhir/laboratory/StructureDefinition/Observation-resultslab-eu-lab"
          ]
        },
        "performer": [
          {
            "display": "The Central European Lab"
          }
        ],
        "category": [
          {
            "coding": [
              {
                "system": "http://terminology.hl7.org/CodeSystem/observation-category",
                "code": "laboratory"
              }
            ]
          }
        ],
        "code": {
          "coding": [
            {
              "code": "3094-0",
              "system": "http://loinc.org",
              "display": "Urea nitrogen [Mass/volume] in Serum or Plasma"
            }
          ],
          "text": "Urea nitrogen [Mass/volume] in Serum or Plasma"
        },
        "valueQuantity": {
          "system": "http://unitsofmeasure.org",
          "value": 12.8,
          "unit": "mg/dL",
          "code": "mg/dL"
        },
        "referenceRange": [
          {
            "low": {
              "value": 7,
              "code": "mg/dL",
              "system": "http://unitsofmeasure.org"
            }
          },
          {
            "high": {
              "value": 25,
              "code": "mg/dL",
              "system": "http://unitsofmeasure.org"
            }
          }
        ],
        "text": {
          "status": "generated",
          "div": "<div xmlns=\"http://www.w3.org/1999/xhtml\"><table class=\"hl7__eu__lab__report\"><tr><th>Test</th><th>09-Dec-2021</th><th>Reference&#xA0;Range</th><th>Unit</th></tr><tr><td>Urea nitrogen [Mass/volume] in Serum or Plasma</td><td>12.8</td><td>7 - 25</td><td></td><td>mg/dL</td></tr></table></div>"
        },
        "status": "final",
        "subject": {
          "reference": "urn:uuid:5677de89-7845-41ac-ad16-21f74ff807dc",
          "display": "Pelayo Casal"
        },
        "effectiveDateTime": "2021-12-09T05:38:59Z",
        "specimen": {
          "reference": "urn:uuid:fe46ffa6-25f2-4ba5-84fb-c6029d3139de"
        }
      }
    },
    {
      "fullUrl": "urn:uuid:49357743-83a0-42a4-b1fa-1d55d25d7e6c",
      "resource": {
        "resourceType": "Observation",
        "id": "49357743-83a0-42a4-b1fa-1d55d25d7e6c",
        "meta": {
          "profile": [
            "http://hl7.eu/fhir/laboratory/StructureDefinition/Observation-resultslab-eu-lab"
          ]
        },
        "performer": [
          {
            "display": "The Central European Lab"
          }
        ],
        "category": [
          {
            "coding": [
              {
                "system": "http://terminology.hl7.org/CodeSystem/observation-category",
                "code": "laboratory"
              }
            ]
          }
        ],
        "code": {
          "coding": [
            {
              "code": "2160-0",
              "system": "http://loinc.org",
              "display": "Creatinine [Mass/volume] in Serum or Plasma"
            }
          ],
          "text": "Creatinine [Mass/volume] in Serum or Plasma"
        },
        "valueQuantity": {
          "system": "http://unitsofmeasure.org",
          "value": 1.9,
          "unit": "mg/dL",
          "code": "mg/dL"
        },
        "referenceRange": [
          {
            "low": {
              "value": 0.9,
              "code": "mg/dL",
              "system": "http://unitsofmeasure.org"
            }
          },
          {
            "high": {
              "value": 1.3,
              "code": "mg/dL",
              "system": "http://unitsofmeasure.org"
            }
          }
        ],
        "interpretation": [
          {
            "coding": [
              {
                "code": "H",
                "system": "http://terminology.hl7.org/CodeSystem/v3-ObservationInterpretation",
                "display": "High"
              }
            ]
          }
        ],
        "text": {
          "status": "generated",
          "div": "<div xmlns=\"http://www.w3.org/1999/xhtml\"><table class=\"hl7__eu__lab__report\"><tr><th>Test</th><th>09-Dec-2021</th><th>Reference&#xA0;Range</th><th>Unit</th></tr><tr><td>Creatinine [Mass/volume] in Serum or Plasma</td><td>1.9</td><td>0.9 - 1.3</td><td>H</td><td>mg/dL</td></tr></table></div>"
        },
        "status": "final",
        "subject": {
          "reference": "urn:uuid:5677de89-7845-41ac-ad16-21f74ff807dc",
          "display": "Pelayo Casal"
        },
        "effectiveDateTime": "2021-12-09T05:38:59Z",
        "specimen": {
          "reference": "urn:uuid:fe46ffa6-25f2-4ba5-84fb-c6029d3139de"
        }
      }
    },
    {
      "fullUrl": "urn:uuid:b17ace99-42b1-4dd7-a1ac-a60b583e9ec9",
      "resource": {
        "resourceType": "Observation",
        "id": "b17ace99-42b1-4dd7-a1ac-a60b583e9ec9",
        "meta": {
          "profile": [
            "http://hl7.eu/fhir/laboratory/StructureDefinition/Observation-resultslab-eu-lab"
          ]
        },
        "performer": [
          {
            "display": "The Central European Lab"
          }
        ],
        "category": [
          {
            "coding": [
              {
                "system": "http://terminology.hl7.org/CodeSystem/observation-category",
                "code": "laboratory"
              }
            ]
          }
        ],
        "code": {
          "coding": [
            {
              "code": "17861-6",
              "system": "http://loinc.org",
              "display": "Calcium [Mass/volume] in Serum or Plasma"
            }
          ],
          "text": "Calcium [Mass/volume] in Serum or Plasma"
        },
        "valueQuantity": {
          "system": "http://unitsofmeasure.org",
          "value": 10,
          "unit": "mg/dL",
          "code": "mg/dL"
        },
        "referenceRange": [
          {
            "low": {
              "value": 8.5,
              "code": "mg/dL",
              "system": "http://unitsofmeasure.org"
            }
          },
          {
            "high": {
              "value": 10.5,
              "code": "mg/dL",
              "system": "http://unitsofmeasure.org"
            }
          }
        ],
        "text": {
          "status": "generated",
          "div": "<div xmlns=\"http://www.w3.org/1999/xhtml\"><table class=\"hl7__eu__lab__report\"><tr><th>Test</th><th>09-Dec-2021</th><th>Reference&#xA0;Range</th><th>Unit</th></tr><tr><td>Calcium [Mass/volume] in Serum or Plasma</td><td>10.0</td><td>8.5 - 10.5</td><td></td><td>mg/dL</td></tr></table></div>"
        },
        "status": "final",
        "subject": {
          "reference": "urn:uuid:5677de89-7845-41ac-ad16-21f74ff807dc",
          "display": "Pelayo Casal"
        },
        "effectiveDateTime": "2021-12-09T05:38:59Z",
        "specimen": {
          "reference": "urn:uuid:fe46ffa6-25f2-4ba5-84fb-c6029d3139de"
        }
      }
    },
    {
      "fullUrl": "urn:uuid:8ea79dd4-4987-4e75-80fe-48795ac2fb79",
      "resource": {
        "resourceType": "Observation",
        "id": "8ea79dd4-4987-4e75-80fe-48795ac2fb79",
        "meta": {
          "profile": [
            "http://hl7.eu/fhir/laboratory/StructureDefinition/Observation-resultslab-eu-lab"
          ]
        },
        "performer": [
          {
            "display": "The Central European Lab"
          }
        ],
        "category": [
          {
            "coding": [
              {
                "system": "http://terminology.hl7.org/CodeSystem/observation-category",
                "code": "laboratory"
              }
            ]
          }
        ],
        "code": {
          "coding": [
            {
              "code": "2951-2",
              "system": "http://loinc.org",
              "display": "Sodium [Moles/volume] in Serum or Plasma"
            }
          ],
          "text": "Sodium [Moles/volume] in Serum or Plasma"
        },
        "valueQuantity": {
          "system": "http://unitsofmeasure.org",
          "value": 140.2,
          "unit": "mmol/L",
          "code": "mmol/L"
        },
        "referenceRange": [
          {
            "low": {
              "value": 135,
              "code": "mmol/L",
              "system": "http://unitsofmeasure.org"
            }
          },
          {
            "high": {
              "value": 145,
              "code": "mmol/L",
              "system": "http://unitsofmeasure.org"
            }
          }
        ],
        "text": {
          "status": "generated",
          "div": "<div xmlns=\"http://www.w3.org/1999/xhtml\"><table class=\"hl7__eu__lab__report\"><tr><th>Test</th><th>09-Dec-2021</th><th>Reference&#xA0;Range</th><th>Unit</th></tr><tr><td>Sodium [Moles/volume] in Serum or Plasma</td><td>140.2</td><td>135 - 145</td><td></td><td>mmol/L</td></tr></table></div>"
        },
        "status": "final",
        "subject": {
          "reference": "urn:uuid:5677de89-7845-41ac-ad16-21f74ff807dc",
          "display": "Pelayo Casal"
        },
        "effectiveDateTime": "2021-12-09T05:38:59Z",
        "specimen": {
          "reference": "urn:uuid:fe46ffa6-25f2-4ba5-84fb-c6029d3139de"
        }
      }
    },
    {
      "fullUrl": "urn:uuid:152ab5ae-6f75-4e59-9d17-407ec65069c6",
      "resource": {
        "resourceType": "Observation",
        "id": "152ab5ae-6f75-4e59-9d17-407ec65069c6",
        "meta": {
          "profile": [
            "http://hl7.eu/fhir/laboratory/StructureDefinition/Observation-resultslab-eu-lab"
          ]
        },
        "performer": [
          {
            "display": "The Central European Lab"
          }
        ],
        "category": [
          {
            "coding": [
              {
                "system": "http://terminology.hl7.org/CodeSystem/observation-category",
                "code": "laboratory"
              }
            ]
          }
        ],
        "code": {
          "coding": [
            {
              "code": "2823-3",
              "system": "http://loinc.org",
              "display": "Potassium [Moles/volume] in Serum or Plasma"
            }
          ],
          "text": "Potassium [Moles/volume] in Serum or Plasma"
        },
        "valueQuantity": {
          "system": "http://unitsofmeasure.org",
          "value": 4.3,
          "unit": "mmol/L",
          "code": "mmol/L"
        },
        "referenceRange": [
          {
            "low": {
              "value": 3.5,
              "code": "mmol/L",
              "system": "http://unitsofmeasure.org"
            }
          },
          {
            "high": {
              "value": 5.3,
              "code": "mmol/L",
              "system": "http://unitsofmeasure.org"
            }
          }
        ],
        "text": {
          "status": "generated",
          "div": "<div xmlns=\"http://www.w3.org/1999/xhtml\"><table class=\"hl7__eu__lab__report\"><tr><th>Test</th><th>09-Dec-2021</th><th>Reference&#xA0;Range</th><th>Unit</th></tr><tr><td>Potassium [Moles/volume] in Serum or Plasma</td><td>4.3</td><td>3.5 - 5.3</td><td></td><td>mmol/L</td></tr></table></div>"
        },
        "status": "final",
        "subject": {
          "reference": "urn:uuid:5677de89-7845-41ac-ad16-21f74ff807dc",
          "display": "Pelayo Casal"
        },
        "effectiveDateTime": "2021-12-09T05:38:59Z",
        "specimen": {
          "reference": "urn:uuid:fe46ffa6-25f2-4ba5-84fb-c6029d3139de"
        }
      }
    },
    {
      "fullUrl": "urn:uuid:5339329c-331c-4fe2-b72a-3f4d6ecf6c8a",
      "resource": {
        "resourceType": "Observation",
        "id": "5339329c-331c-4fe2-b72a-3f4d6ecf6c8a",
        "meta": {
          "profile": [
            "http://hl7.eu/fhir/laboratory/StructureDefinition/Observation-resultslab-eu-lab"
          ]
        },
        "performer": [
          {
            "display": "The Central European Lab"
          }
        ],
        "category": [
          {
            "coding": [
              {
                "system": "http://terminology.hl7.org/CodeSystem/observation-category",
                "code": "laboratory"
              }
            ]
          }
        ],
        "code": {
          "coding": [
            {
              "code": "2075-0",
              "system": "http://loinc.org",
              "display": "Chloride [Moles/volume] in Serum or Plasma"
            }
          ],
          "text": "Chloride [Moles/volume] in Serum or Plasma"
        },
        "valueQuantity": {
          "system": "http://unitsofmeasure.org",
          "value": 104.5,
          "unit": "mmol/L",
          "code": "mmol/L"
        },
        "referenceRange": [
          {
            "low": {
              "value": 98,
              "code": "mmol/L",
              "system": "http://unitsofmeasure.org"
            }
          },
          {
            "high": {
              "value": 107,
              "code": "mmol/L",
              "system": "http://unitsofmeasure.org"
            }
          }
        ],
        "text": {
          "status": "generated",
          "div": "<div xmlns=\"http://www.w3.org/1999/xhtml\"><table class=\"hl7__eu__lab__report\"><tr><th>Test</th><th>09-Dec-2021</th><th>Reference&#xA0;Range</th><th>Unit</th></tr><tr><td>Chloride [Moles/volume] in Serum or Plasma</td><td>104.5</td><td>98 - 107</td><td></td><td>mmol/L</td></tr></table></div>"
        },
        "status": "final",
        "subject": {
          "reference": "urn:uuid:5677de89-7845-41ac-ad16-21f74ff807dc",
          "display": "Pelayo Casal"
        },
        "effectiveDateTime": "2021-12-09T05:38:59Z",
        "specimen": {
          "reference": "urn:uuid:fe46ffa6-25f2-4ba5-84fb-c6029d3139de"
        }
      }
    },
    {
      "fullUrl": "urn:uuid:cca901f1-0251-4f12-b5da-5ee102b01a5c",
      "resource": {
        "resourceType": "Observation",
        "id": "cca901f1-0251-4f12-b5da-5ee102b01a5c",
        "meta": {
          "profile": [
            "http://hl7.eu/fhir/laboratory/StructureDefinition/Observation-resultslab-eu-lab"
          ]
        },
        "performer": [
          {
            "display": "The Central European Lab"
          }
        ],
        "category": [
          {
            "coding": [
              {
                "system": "http://terminology.hl7.org/CodeSystem/observation-category",
                "code": "laboratory"
              }
            ]
          }
        ],
        "code": {
          "coding": [
            {
              "code": "2028-9",
              "system": "http://loinc.org",
              "display": "Carbon dioxide, total [Moles/volume] in Serum or Plasma"
            }
          ],
          "text": "Carbon dioxide, total [Moles/volume] in Serum or Plasma"
        },
        "valueQuantity": {
          "system": "http://unitsofmeasure.org",
          "value": 23.6,
          "unit": "mmol/L",
          "code": "mmol/L"
        },
        "referenceRange": [
          {
            "low": {
              "value": 22,
              "code": "mmol/L",
              "system": "http://unitsofmeasure.org"
            }
          },
          {
            "high": {
              "value": 29,
              "code": "mmol/L",
              "system": "http://unitsofmeasure.org"
            }
          }
        ],
        "text": {
          "status": "generated",
          "div": "<div xmlns=\"http://www.w3.org/1999/xhtml\"><table class=\"hl7__eu__lab__report\"><tr><th>Test</th><th>09-Dec-2021</th><th>Reference&#xA0;Range</th><th>Unit</th></tr><tr><td>Carbon dioxide, total [Moles/volume] in Serum or Plasma</td><td>23.6</td><td>22 - 29</td><td></td><td>mmol/L</td></tr></table></div>"
        },
        "status": "final",
        "subject": {
          "reference": "urn:uuid:5677de89-7845-41ac-ad16-21f74ff807dc",
          "display": "Pelayo Casal"
        },
        "effectiveDateTime": "2021-12-09T05:38:59Z",
        "specimen": {
          "reference": "urn:uuid:fe46ffa6-25f2-4ba5-84fb-c6029d3139de"
        }
      }
    },
    {
      "fullUrl": "urn:uuid:fee575a7-9736-4661-9292-3bd0d23d5a14",
      "resource": {
        "resourceType": "Observation",
        "id": "fee575a7-9736-4661-9292-3bd0d23d5a14",
        "meta": {
          "profile": [
            "http://hl7.eu/fhir/laboratory/StructureDefinition/Observation-resultslab-eu-lab"
          ]
        },
        "performer": [
          {
            "display": "The Central European Lab"
          }
        ],
        "category": [
          {
            "coding": [
              {
                "system": "http://terminology.hl7.org/CodeSystem/observation-category",
                "code": "laboratory"
              }
            ]
          }
        ],
        "code": {
          "coding": [
            {
              "code": "5767-9",
              "system": "http://loinc.org",
              "display": "Appearance of Urine"
            }
          ],
          "text": "Appearance of Urine"
        },
        "text": {
          "status": "generated",
          "div": "<div xmlns=\"http://www.w3.org/1999/xhtml\"><table class=\"hl7__eu__lab__report\"><tr><th>Test</th><th>09-Dec-2021</th><th>Reference&#xA0;Range</th><th>Unit</th></tr><tr><td>Appearance of Urine</td></tr></table></div>"
        },
        "status": "final",
        "subject": {
          "reference": "urn:uuid:5677de89-7845-41ac-ad16-21f74ff807dc",
          "display": "Pelayo Casal"
        },
        "effectiveDateTime": "2021-12-09T05:38:59Z",
        "specimen": {
          "reference": "urn:uuid:0a50a3df-638f-4708-9b54-9dfeceed41f2"
        }
      }
    },
    {
      "fullUrl": "urn:uuid:a65e3c43-307e-4129-b1db-b321d0eaee9c",
      "resource": {
        "resourceType": "Observation",
        "id": "a65e3c43-307e-4129-b1db-b321d0eaee9c",
        "meta": {
          "profile": [
            "http://hl7.eu/fhir/laboratory/StructureDefinition/Observation-resultslab-eu-lab"
          ]
        },
        "performer": [
          {
            "display": "The Central European Lab"
          }
        ],
        "category": [
          {
            "coding": [
              {
                "system": "http://terminology.hl7.org/CodeSystem/observation-category",
                "code": "laboratory"
              }
            ]
          }
        ],
        "code": {
          "coding": [
            {
              "code": "34533-0",
              "system": "http://loinc.org",
              "display": "Odor of Urine"
            }
          ],
          "text": "Odor of Urine"
        },
        "text": {
          "status": "generated",
          "div": "<div xmlns=\"http://www.w3.org/1999/xhtml\"><table class=\"hl7__eu__lab__report\"><tr><th>Test</th><th>09-Dec-2021</th><th>Reference&#xA0;Range</th><th>Unit</th></tr><tr><td>Odor of Urine</td></tr></table></div>"
        },
        "status": "final",
        "subject": {
          "reference": "urn:uuid:5677de89-7845-41ac-ad16-21f74ff807dc",
          "display": "Pelayo Casal"
        },
        "effectiveDateTime": "2021-12-09T05:38:59Z",
        "specimen": {
          "reference": "urn:uuid:0a50a3df-638f-4708-9b54-9dfeceed41f2"
        }
      }
    },
    {
      "fullUrl": "urn:uuid:75cbd55f-16ea-43ff-b0f4-8dce9665f203",
      "resource": {
        "resourceType": "Observation",
        "id": "75cbd55f-16ea-43ff-b0f4-8dce9665f203",
        "meta": {
          "profile": [
            "http://hl7.eu/fhir/laboratory/StructureDefinition/Observation-resultslab-eu-lab"
          ]
        },
        "performer": [
          {
            "display": "The Central European Lab"
          }
        ],
        "category": [
          {
            "coding": [
              {
                "system": "http://terminology.hl7.org/CodeSystem/observation-category",
                "code": "laboratory"
              }
            ]
          }
        ],
        "code": {
          "coding": [
            {
              "code": "32167-9",
              "system": "http://loinc.org",
              "display": "Clarity of Urine"
            }
          ],
          "text": "Clarity of Urine"
        },
        "text": {
          "status": "generated",
          "div": "<div xmlns=\"http://www.w3.org/1999/xhtml\"><table class=\"hl7__eu__lab__report\"><tr><th>Test</th><th>09-Dec-2021</th><th>Reference&#xA0;Range</th><th>Unit</th></tr><tr><td>Clarity of Urine</td></tr></table></div>"
        },
        "status": "final",
        "subject": {
          "reference": "urn:uuid:5677de89-7845-41ac-ad16-21f74ff807dc",
          "display": "Pelayo Casal"
        },
        "effectiveDateTime": "2021-12-09T05:38:59Z",
        "specimen": {
          "reference": "urn:uuid:0a50a3df-638f-4708-9b54-9dfeceed41f2"
        }
      }
    },
    {
      "fullUrl": "urn:uuid:9ae79cc7-7b10-4be1-86f4-781d07050ccf",
      "resource": {
        "resourceType": "Observation",
        "id": "9ae79cc7-7b10-4be1-86f4-781d07050ccf",
        "meta": {
          "profile": [
            "http://hl7.eu/fhir/laboratory/StructureDefinition/Observation-resultslab-eu-lab"
          ]
        },
        "performer": [
          {
            "display": "The Central European Lab"
          }
        ],
        "category": [
          {
            "coding": [
              {
                "system": "http://terminology.hl7.org/CodeSystem/observation-category",
                "code": "laboratory"
              }
            ]
          }
        ],
        "code": {
          "coding": [
            {
              "code": "5778-6",
              "system": "http://loinc.org",
              "display": "Color of Urine"
            }
          ],
          "text": "Color of Urine"
        },
        "text": {
          "status": "generated",
          "div": "<div xmlns=\"http://www.w3.org/1999/xhtml\"><table class=\"hl7__eu__lab__report\"><tr><th>Test</th><th>09-Dec-2021</th><th>Reference&#xA0;Range</th><th>Unit</th></tr><tr><td>Color of Urine</td></tr></table></div>"
        },
        "status": "final",
        "subject": {
          "reference": "urn:uuid:5677de89-7845-41ac-ad16-21f74ff807dc",
          "display": "Pelayo Casal"
        },
        "effectiveDateTime": "2021-12-09T05:38:59Z",
        "specimen": {
          "reference": "urn:uuid:0a50a3df-638f-4708-9b54-9dfeceed41f2"
        }
      }
    },
    {
      "fullUrl": "urn:uuid:19b42933-cfe3-496d-8054-8b2d8e9b8057",
      "resource": {
        "resourceType": "Observation",
        "id": "19b42933-cfe3-496d-8054-8b2d8e9b8057",
        "meta": {
          "profile": [
            "http://hl7.eu/fhir/laboratory/StructureDefinition/Observation-resultslab-eu-lab"
          ]
        },
        "performer": [
          {
            "display": "The Central European Lab"
          }
        ],
        "category": [
          {
            "coding": [
              {
                "system": "http://terminology.hl7.org/CodeSystem/observation-category",
                "code": "laboratory"
              }
            ]
          }
        ],
        "code": {
          "coding": [
            {
              "code": "5792-7",
              "system": "http://loinc.org",
              "display": "Glucose [Mass/volume] in Urine by Test strip"
            }
          ],
          "text": "Glucose [Mass/volume] in Urine by Test strip"
        },
        "valueQuantity": {
          "system": "http://unitsofmeasure.org",
          "value": 1.2,
          "unit": "mg/dL",
          "code": "mg/dL"
        },
        "referenceRange": [
          {
            "low": {
              "value": 0.8,
              "code": "mg/dL",
              "system": "http://unitsofmeasure.org"
            }
          },
          {
            "high": {
              "value": 0,
              "code": "mg/dL",
              "system": "http://unitsofmeasure.org"
            }
          }
        ],
        "interpretation": [
          {
            "coding": [
              {
                "code": "H",
                "system": "http://terminology.hl7.org/CodeSystem/v3-ObservationInterpretation",
                "display": "High"
              }
            ]
          }
        ],
        "text": {
          "status": "generated",
          "div": "<div xmlns=\"http://www.w3.org/1999/xhtml\"><table class=\"hl7__eu__lab__report\"><tr><th>Test</th><th>09-Dec-2021</th><th>Reference&#xA0;Range</th><th>Unit</th></tr><tr><td>Glucose [Mass/volume] in Urine by Test strip</td><td>1.2</td><td>0.8 - 0</td><td>H</td><td>mg/dL</td></tr></table></div>"
        },
        "status": "final",
        "subject": {
          "reference": "urn:uuid:5677de89-7845-41ac-ad16-21f74ff807dc",
          "display": "Pelayo Casal"
        },
        "effectiveDateTime": "2021-12-09T05:38:59Z",
        "specimen": {
          "reference": "urn:uuid:0a50a3df-638f-4708-9b54-9dfeceed41f2"
        }
      }
    },
    {
      "fullUrl": "urn:uuid:9209df68-1161-4711-a72e-7f593b263076",
      "resource": {
        "resourceType": "Observation",
        "id": "9209df68-1161-4711-a72e-7f593b263076",
        "meta": {
          "profile": [
            "http://hl7.eu/fhir/laboratory/StructureDefinition/Observation-resultslab-eu-lab"
          ]
        },
        "performer": [
          {
            "display": "The Central European Lab"
          }
        ],
        "category": [
          {
            "coding": [
              {
                "system": "http://terminology.hl7.org/CodeSystem/observation-category",
                "code": "laboratory"
              }
            ]
          }
        ],
        "code": {
          "coding": [
            {
              "code": "25428-4",
              "system": "http://loinc.org",
              "display": "Glucose [Presence] in Urine by Test strip"
            }
          ],
          "text": "Glucose [Presence] in Urine by Test strip"
        },
        "text": {
          "status": "generated",
          "div": "<div xmlns=\"http://www.w3.org/1999/xhtml\"><table class=\"hl7__eu__lab__report\"><tr><th>Test</th><th>09-Dec-2021</th><th>Reference&#xA0;Range</th><th>Unit</th></tr><tr><td>Glucose [Presence] in Urine by Test strip</td></tr></table></div>"
        },
        "status": "final",
        "subject": {
          "reference": "urn:uuid:5677de89-7845-41ac-ad16-21f74ff807dc",
          "display": "Pelayo Casal"
        },
        "effectiveDateTime": "2021-12-09T05:38:59Z",
        "specimen": {
          "reference": "urn:uuid:0a50a3df-638f-4708-9b54-9dfeceed41f2"
        }
      }
    },
    {
      "fullUrl": "urn:uuid:80e4c37f-965f-4049-bc0c-63fa3163ebd2",
      "resource": {
        "resourceType": "Observation",
        "id": "80e4c37f-965f-4049-bc0c-63fa3163ebd2",
        "meta": {
          "profile": [
            "http://hl7.eu/fhir/laboratory/StructureDefinition/Observation-resultslab-eu-lab"
          ]
        },
        "performer": [
          {
            "display": "The Central European Lab"
          }
        ],
        "category": [
          {
            "coding": [
              {
                "system": "http://terminology.hl7.org/CodeSystem/observation-category",
                "code": "laboratory"
              }
            ]
          }
        ],
        "code": {
          "coding": [
            {
              "code": "20505-4",
              "system": "http://loinc.org",
              "display": "Bilirubin.total [Mass/volume] in Urine by Test strip"
            }
          ],
          "text": "Bilirubin.total [Mass/volume] in Urine by Test strip"
        },
        "valueQuantity": {
          "system": "http://unitsofmeasure.org",
          "value": 0.3,
          "unit": "mg/dL",
          "code": "mg/dL"
        },
        "referenceRange": [
          {
            "low": {
              "value": 0.2,
              "code": "mg/dL",
              "system": "http://unitsofmeasure.org"
            }
          },
          {
            "high": {
              "value": 1.5,
              "code": "mg/dL",
              "system": "http://unitsofmeasure.org"
            }
          }
        ],
        "text": {
          "status": "generated",
          "div": "<div xmlns=\"http://www.w3.org/1999/xhtml\"><table class=\"hl7__eu__lab__report\"><tr><th>Test</th><th>09-Dec-2021</th><th>Reference&#xA0;Range</th><th>Unit</th></tr><tr><td>Bilirubin.total [Mass/volume] in Urine by Test strip</td><td>0.3</td><td>0.2 - 1.5</td><td></td><td>mg/dL</td></tr></table></div>"
        },
        "status": "final",
        "subject": {
          "reference": "urn:uuid:5677de89-7845-41ac-ad16-21f74ff807dc",
          "display": "Pelayo Casal"
        },
        "effectiveDateTime": "2021-12-09T05:38:59Z",
        "specimen": {
          "reference": "urn:uuid:0a50a3df-638f-4708-9b54-9dfeceed41f2"
        }
      }
    },
    {
      "fullUrl": "urn:uuid:bff7cb1e-4ef0-4d9b-b81c-c885c40e47a8",
      "resource": {
        "resourceType": "Observation",
        "id": "bff7cb1e-4ef0-4d9b-b81c-c885c40e47a8",
        "meta": {
          "profile": [
            "http://hl7.eu/fhir/laboratory/StructureDefinition/Observation-resultslab-eu-lab"
          ]
        },
        "performer": [
          {
            "display": "The Central European Lab"
          }
        ],
        "category": [
          {
            "coding": [
              {
                "system": "http://terminology.hl7.org/CodeSystem/observation-category",
                "code": "laboratory"
              }
            ]
          }
        ],
        "code": {
          "coding": [
            {
              "code": "5770-3",
              "system": "http://loinc.org",
              "display": "Bilirubin.total [Presence] in Urine by Test strip"
            }
          ],
          "text": "Bilirubin.total [Presence] in Urine by Test strip"
        },
        "text": {
          "status": "generated",
          "div": "<div xmlns=\"http://www.w3.org/1999/xhtml\"><table class=\"hl7__eu__lab__report\"><tr><th>Test</th><th>09-Dec-2021</th><th>Reference&#xA0;Range</th><th>Unit</th></tr><tr><td>Bilirubin.total [Presence] in Urine by Test strip</td></tr></table></div>"
        },
        "status": "final",
        "subject": {
          "reference": "urn:uuid:5677de89-7845-41ac-ad16-21f74ff807dc",
          "display": "Pelayo Casal"
        },
        "effectiveDateTime": "2021-12-09T05:38:59Z",
        "specimen": {
          "reference": "urn:uuid:0a50a3df-638f-4708-9b54-9dfeceed41f2"
        }
      }
    },
    {
      "fullUrl": "urn:uuid:1786e90f-bff0-4a2b-a68b-38a66f5de9aa",
      "resource": {
        "resourceType": "Observation",
        "id": "1786e90f-bff0-4a2b-a68b-38a66f5de9aa",
        "meta": {
          "profile": [
            "http://hl7.eu/fhir/laboratory/StructureDefinition/Observation-resultslab-eu-lab"
          ]
        },
        "performer": [
          {
            "display": "The Central European Lab"
          }
        ],
        "category": [
          {
            "coding": [
              {
                "system": "http://terminology.hl7.org/CodeSystem/observation-category",
                "code": "laboratory"
              }
            ]
          }
        ],
        "code": {
          "coding": [
            {
              "code": "5797-6",
              "system": "http://loinc.org",
              "display": "Ketones [Mass/volume] in Urine by Test strip"
            }
          ],
          "text": "Ketones [Mass/volume] in Urine by Test strip"
        },
        "valueQuantity": {
          "system": "http://unitsofmeasure.org",
          "value": 1.7,
          "unit": "mg/dL",
          "code": "mg/dL"
        },
        "referenceRange": [
          {
            "low": {
              "value": 0,
              "code": "mg/dL",
              "system": "http://unitsofmeasure.org"
            }
          },
          {
            "high": {
              "value": 4,
              "code": "mg/dL",
              "system": "http://unitsofmeasure.org"
            }
          }
        ],
        "text": {
          "status": "generated",
          "div": "<div xmlns=\"http://www.w3.org/1999/xhtml\"><table class=\"hl7__eu__lab__report\"><tr><th>Test</th><th>09-Dec-2021</th><th>Reference&#xA0;Range</th><th>Unit</th></tr><tr><td>Ketones [Mass/volume] in Urine by Test strip</td><td>1.7</td><td>0 - 4</td><td></td><td>mg/dL</td></tr></table></div>"
        },
        "status": "final",
        "subject": {
          "reference": "urn:uuid:5677de89-7845-41ac-ad16-21f74ff807dc",
          "display": "Pelayo Casal"
        },
        "effectiveDateTime": "2021-12-09T05:38:59Z",
        "specimen": {
          "reference": "urn:uuid:0a50a3df-638f-4708-9b54-9dfeceed41f2"
        }
      }
    },
    {
      "fullUrl": "urn:uuid:ec005b1a-7979-4753-9b32-d326dfdc6ada",
      "resource": {
        "resourceType": "Observation",
        "id": "ec005b1a-7979-4753-9b32-d326dfdc6ada",
        "meta": {
          "profile": [
            "http://hl7.eu/fhir/laboratory/StructureDefinition/Observation-resultslab-eu-lab"
          ]
        },
        "performer": [
          {
            "display": "The Central European Lab"
          }
        ],
        "category": [
          {
            "coding": [
              {
                "system": "http://terminology.hl7.org/CodeSystem/observation-category",
                "code": "laboratory"
              }
            ]
          }
        ],
        "code": {
          "coding": [
            {
              "code": "2514-8",
              "system": "http://loinc.org",
              "display": "Ketones [Presence] in Urine by Test strip"
            }
          ],
          "text": "Ketones [Presence] in Urine by Test strip"
        },
        "text": {
          "status": "generated",
          "div": "<div xmlns=\"http://www.w3.org/1999/xhtml\"><table class=\"hl7__eu__lab__report\"><tr><th>Test</th><th>09-Dec-2021</th><th>Reference&#xA0;Range</th><th>Unit</th></tr><tr><td>Ketones [Presence] in Urine by Test strip</td></tr></table></div>"
        },
        "status": "final",
        "subject": {
          "reference": "urn:uuid:5677de89-7845-41ac-ad16-21f74ff807dc",
          "display": "Pelayo Casal"
        },
        "effectiveDateTime": "2021-12-09T05:38:59Z",
        "specimen": {
          "reference": "urn:uuid:0a50a3df-638f-4708-9b54-9dfeceed41f2"
        }
      }
    },
    {
      "fullUrl": "urn:uuid:9a368e32-5842-42b9-8c20-cfb7bef8566b",
      "resource": {
        "resourceType": "Observation",
        "id": "9a368e32-5842-42b9-8c20-cfb7bef8566b",
        "meta": {
          "profile": [
            "http://hl7.eu/fhir/laboratory/StructureDefinition/Observation-resultslab-eu-lab"
          ]
        },
        "performer": [
          {
            "display": "The Central European Lab"
          }
        ],
        "category": [
          {
            "coding": [
              {
                "system": "http://terminology.hl7.org/CodeSystem/observation-category",
                "code": "laboratory"
              }
            ]
          }
        ],
        "code": {
          "coding": [
            {
              "code": "5811-5",
              "system": "http://loinc.org",
              "display": "Specific gravity of Urine by Test strip"
            }
          ],
          "text": "Specific gravity of Urine by Test strip"
        },
        "valueQuantity": {
          "system": "http://unitsofmeasure.org",
          "value": 1,
          "unit": "{nominal}",
          "code": "{nominal}"
        },
        "referenceRange": [
          {
            "low": {
              "value": 1.01,
              "code": "g/mL",
              "system": "http://unitsofmeasure.org"
            }
          },
          {
            "high": {
              "value": 1.03,
              "code": "g/mL",
              "system": "http://unitsofmeasure.org"
            }
          }
        ],
        "interpretation": [
          {
            "coding": [
              {
                "code": "L",
                "system": "http://terminology.hl7.org/CodeSystem/v3-ObservationInterpretation",
                "display": "Low"
              }
            ]
          }
        ],
        "text": {
          "status": "generated",
          "div": "<div xmlns=\"http://www.w3.org/1999/xhtml\"><table class=\"hl7__eu__lab__report\"><tr><th>Test</th><th>09-Dec-2021</th><th>Reference&#xA0;Range</th><th>Unit</th></tr><tr><td>Specific gravity of Urine by Test strip</td><td>1.0</td><td>1.01 - 1.03</td><td>L</td><td>{nominal}</td></tr></table></div>"
        },
        "status": "final",
        "subject": {
          "reference": "urn:uuid:5677de89-7845-41ac-ad16-21f74ff807dc",
          "display": "Pelayo Casal"
        },
        "effectiveDateTime": "2021-12-09T05:38:59Z",
        "specimen": {
          "reference": "urn:uuid:0a50a3df-638f-4708-9b54-9dfeceed41f2"
        }
      }
    },
    {
      "fullUrl": "urn:uuid:8dcf8dd3-69f5-43d9-a991-91a015739313",
      "resource": {
        "resourceType": "Observation",
        "id": "8dcf8dd3-69f5-43d9-a991-91a015739313",
        "meta": {
          "profile": [
            "http://hl7.eu/fhir/laboratory/StructureDefinition/Observation-resultslab-eu-lab"
          ]
        },
        "performer": [
          {
            "display": "The Central European Lab"
          }
        ],
        "category": [
          {
            "coding": [
              {
                "system": "http://terminology.hl7.org/CodeSystem/observation-category",
                "code": "laboratory"
              }
            ]
          }
        ],
        "code": {
          "coding": [
            {
              "code": "5803-2",
              "system": "http://loinc.org",
              "display": "pH of Urine by Test strip"
            }
          ],
          "text": "pH of Urine by Test strip"
        },
        "valueQuantity": {
          "system": "http://unitsofmeasure.org",
          "value": 6.3,
          "unit": "pH",
          "code": "pH"
        },
        "referenceRange": [
          {
            "low": {
              "value": 4.5,
              "code": "pH",
              "system": "http://unitsofmeasure.org"
            }
          },
          {
            "high": {
              "value": 7.5,
              "code": "pH",
              "system": "http://unitsofmeasure.org"
            }
          }
        ],
        "text": {
          "status": "generated",
          "div": "<div xmlns=\"http://www.w3.org/1999/xhtml\"><table class=\"hl7__eu__lab__report\"><tr><th>Test</th><th>09-Dec-2021</th><th>Reference&#xA0;Range</th><th>Unit</th></tr><tr><td>pH of Urine by Test strip</td><td>6.3</td><td>4.5 - 7.5</td><td></td><td>pH</td></tr></table></div>"
        },
        "status": "final",
        "subject": {
          "reference": "urn:uuid:5677de89-7845-41ac-ad16-21f74ff807dc",
          "display": "Pelayo Casal"
        },
        "effectiveDateTime": "2021-12-09T05:38:59Z",
        "specimen": {
          "reference": "urn:uuid:0a50a3df-638f-4708-9b54-9dfeceed41f2"
        }
      }
    },
    {
      "fullUrl": "urn:uuid:a388ee75-108d-4579-ac68-edfbf95be1a2",
      "resource": {
        "resourceType": "Observation",
        "id": "a388ee75-108d-4579-ac68-edfbf95be1a2",
        "meta": {
          "profile": [
            "http://hl7.eu/fhir/laboratory/StructureDefinition/Observation-resultslab-eu-lab"
          ]
        },
        "performer": [
          {
            "display": "The Central European Lab"
          }
        ],
        "category": [
          {
            "coding": [
              {
                "system": "http://terminology.hl7.org/CodeSystem/observation-category",
                "code": "laboratory"
              }
            ]
          }
        ],
        "code": {
          "coding": [
            {
              "code": "5804-0",
              "system": "http://loinc.org",
              "display": "Protein [Mass/volume] in Urine by Test strip"
            }
          ],
          "text": "Protein [Mass/volume] in Urine by Test strip"
        },
        "valueQuantity": {
          "system": "http://unitsofmeasure.org",
          "value": 266.2,
          "unit": "mg/dL",
          "code": "mg/dL"
        },
        "referenceRange": [
          {
            "low": {
              "value": 0,
              "code": "mg/dL",
              "system": "http://unitsofmeasure.org"
            }
          },
          {
            "high": {
              "value": 150,
              "code": "mg/dL",
              "system": "http://unitsofmeasure.org"
            }
          }
        ],
        "interpretation": [
          {
            "coding": [
              {
                "code": "H",
                "system": "http://terminology.hl7.org/CodeSystem/v3-ObservationInterpretation",
                "display": "High"
              }
            ]
          }
        ],
        "text": {
          "status": "generated",
          "div": "<div xmlns=\"http://www.w3.org/1999/xhtml\"><table class=\"hl7__eu__lab__report\"><tr><th>Test</th><th>09-Dec-2021</th><th>Reference&#xA0;Range</th><th>Unit</th></tr><tr><td>Protein [Mass/volume] in Urine by Test strip</td><td>266.2</td><td>0 - 150</td><td>H</td><td>mg/dL</td></tr></table></div>"
        },
        "status": "final",
        "subject": {
          "reference": "urn:uuid:5677de89-7845-41ac-ad16-21f74ff807dc",
          "display": "Pelayo Casal"
        },
        "effectiveDateTime": "2021-12-09T05:38:59Z",
        "specimen": {
          "reference": "urn:uuid:0a50a3df-638f-4708-9b54-9dfeceed41f2"
        }
      }
    },
    {
      "fullUrl": "urn:uuid:330a983b-31b0-4baf-99ac-9073459ad03b",
      "resource": {
        "resourceType": "Observation",
        "id": "330a983b-31b0-4baf-99ac-9073459ad03b",
        "meta": {
          "profile": [
            "http://hl7.eu/fhir/laboratory/StructureDefinition/Observation-resultslab-eu-lab"
          ]
        },
        "performer": [
          {
            "display": "The Central European Lab"
          }
        ],
        "category": [
          {
            "coding": [
              {
                "system": "http://terminology.hl7.org/CodeSystem/observation-category",
                "code": "laboratory"
              }
            ]
          }
        ],
        "code": {
          "coding": [
            {
              "code": "20454-5",
              "system": "http://loinc.org",
              "display": "Protein [Presence] in Urine by Test strip"
            }
          ],
          "text": "Protein [Presence] in Urine by Test strip"
        },
        "text": {
          "status": "generated",
          "div": "<div xmlns=\"http://www.w3.org/1999/xhtml\"><table class=\"hl7__eu__lab__report\"><tr><th>Test</th><th>09-Dec-2021</th><th>Reference&#xA0;Range</th><th>Unit</th></tr><tr><td>Protein [Presence] in Urine by Test strip</td></tr></table></div>"
        },
        "status": "final",
        "subject": {
          "reference": "urn:uuid:5677de89-7845-41ac-ad16-21f74ff807dc",
          "display": "Pelayo Casal"
        },
        "effectiveDateTime": "2021-12-09T05:38:59Z",
        "specimen": {
          "reference": "urn:uuid:0a50a3df-638f-4708-9b54-9dfeceed41f2"
        }
      }
    },
    {
      "fullUrl": "urn:uuid:2b1c6f9f-6b3d-42b4-b8df-b1507537a978",
      "resource": {
        "resourceType": "Observation",
        "id": "2b1c6f9f-6b3d-42b4-b8df-b1507537a978",
        "meta": {
          "profile": [
            "http://hl7.eu/fhir/laboratory/StructureDefinition/Observation-resultslab-eu-lab"
          ]
        },
        "performer": [
          {
            "display": "The Central European Lab"
          }
        ],
        "category": [
          {
            "coding": [
              {
                "system": "http://terminology.hl7.org/CodeSystem/observation-category",
                "code": "laboratory"
              }
            ]
          }
        ],
        "code": {
          "coding": [
            {
              "code": "5802-4",
              "system": "http://loinc.org",
              "display": "Nitrite [Presence] in Urine by Test strip"
            }
          ],
          "text": "Nitrite [Presence] in Urine by Test strip"
        },
        "text": {
          "status": "generated",
          "div": "<div xmlns=\"http://www.w3.org/1999/xhtml\"><table class=\"hl7__eu__lab__report\"><tr><th>Test</th><th>09-Dec-2021</th><th>Reference&#xA0;Range</th><th>Unit</th></tr><tr><td>Nitrite [Presence] in Urine by Test strip</td></tr></table></div>"
        },
        "status": "final",
        "subject": {
          "reference": "urn:uuid:5677de89-7845-41ac-ad16-21f74ff807dc",
          "display": "Pelayo Casal"
        },
        "effectiveDateTime": "2021-12-09T05:38:59Z",
        "specimen": {
          "reference": "urn:uuid:0a50a3df-638f-4708-9b54-9dfeceed41f2"
        }
      }
    },
    {
      "fullUrl": "urn:uuid:61b7b9c5-5fdf-4482-bebd-ad4ca967ae6f",
      "resource": {
        "resourceType": "Observation",
        "id": "61b7b9c5-5fdf-4482-bebd-ad4ca967ae6f",
        "meta": {
          "profile": [
            "http://hl7.eu/fhir/laboratory/StructureDefinition/Observation-resultslab-eu-lab"
          ]
        },
        "performer": [
          {
            "display": "The Central European Lab"
          }
        ],
        "category": [
          {
            "coding": [
              {
                "system": "http://terminology.hl7.org/CodeSystem/observation-category",
                "code": "laboratory"
              }
            ]
          }
        ],
        "code": {
          "coding": [
            {
              "code": "5794-3",
              "system": "http://loinc.org",
              "display": "Hemoglobin [Presence] in Urine by Test strip"
            }
          ],
          "text": "Hemoglobin [Presence] in Urine by Test strip"
        },
        "text": {
          "status": "generated",
          "div": "<div xmlns=\"http://www.w3.org/1999/xhtml\"><table class=\"hl7__eu__lab__report\"><tr><th>Test</th><th>09-Dec-2021</th><th>Reference&#xA0;Range</th><th>Unit</th></tr><tr><td>Hemoglobin [Presence] in Urine by Test strip</td></tr></table></div>"
        },
        "status": "final",
        "subject": {
          "reference": "urn:uuid:5677de89-7845-41ac-ad16-21f74ff807dc",
          "display": "Pelayo Casal"
        },
        "effectiveDateTime": "2021-12-09T05:38:59Z",
        "specimen": {
          "reference": "urn:uuid:0a50a3df-638f-4708-9b54-9dfeceed41f2"
        }
      }
    },
    {
      "fullUrl": "urn:uuid:b0ab7299-679b-4de0-bc11-f236be87b8da",
      "resource": {
        "resourceType": "Observation",
        "id": "b0ab7299-679b-4de0-bc11-f236be87b8da",
        "meta": {
          "profile": [
            "http://hl7.eu/fhir/laboratory/StructureDefinition/Observation-resultslab-eu-lab"
          ]
        },
        "performer": [
          {
            "display": "The Central European Lab"
          }
        ],
        "category": [
          {
            "coding": [
              {
                "system": "http://terminology.hl7.org/CodeSystem/observation-category",
                "code": "laboratory"
              }
            ]
          }
        ],
        "code": {
          "coding": [
            {
              "code": "5799-2",
              "system": "http://loinc.org",
              "display": "Leukocyte esterase [Presence] in Urine by Test strip"
            }
          ],
          "text": "Leukocyte esterase [Presence] in Urine by Test strip"
        },
        "text": {
          "status": "generated",
          "div": "<div xmlns=\"http://www.w3.org/1999/xhtml\"><table class=\"hl7__eu__lab__report\"><tr><th>Test</th><th>09-Dec-2021</th><th>Reference&#xA0;Range</th><th>Unit</th></tr><tr><td>Leukocyte esterase [Presence] in Urine by Test strip</td></tr></table></div>"
        },
        "status": "final",
        "subject": {
          "reference": "urn:uuid:5677de89-7845-41ac-ad16-21f74ff807dc",
          "display": "Pelayo Casal"
        },
        "effectiveDateTime": "2021-12-09T05:38:59Z",
        "specimen": {
          "reference": "urn:uuid:0a50a3df-638f-4708-9b54-9dfeceed41f2"
        }
      }
    },
    {
      "fullUrl": "urn:uuid:19e2235e-98dc-480a-b323-907d216c0054",
      "resource": {
        "resourceType": "Observation",
        "id": "19e2235e-98dc-480a-b323-907d216c0054",
        "meta": {
          "profile": [
            "http://hl7.eu/fhir/laboratory/StructureDefinition/Observation-resultslab-eu-lab"
          ]
        },
        "performer": [
          {
            "display": "The Central European Lab"
          }
        ],
        "category": [
          {
            "coding": [
              {
                "system": "http://terminology.hl7.org/CodeSystem/observation-category",
                "code": "laboratory"
              }
            ]
          }
        ],
        "code": {
          "coding": [
            {
              "code": "4548-4",
              "system": "http://loinc.org",
              "display": "Hemoglobin A1c/Hemoglobin.total in Blood"
            }
          ],
          "text": "Hemoglobin A1c/Hemoglobin.total in Blood"
        },
        "valueQuantity": {
          "system": "http://unitsofmeasure.org",
          "value": 3.2,
          "unit": "%",
          "code": "%"
        },
        "referenceRange": [
          {
            "low": {
              "value": 4.5,
              "code": "%",
              "system": "http://unitsofmeasure.org"
            }
          },
          {
            "high": {
              "value": 6.4,
              "code": "%",
              "system": "http://unitsofmeasure.org"
            }
          }
        ],
        "interpretation": [
          {
            "coding": [
              {
                "code": "L",
                "system": "http://terminology.hl7.org/CodeSystem/v3-ObservationInterpretation",
                "display": "Low"
              }
            ]
          }
        ],
        "text": {
          "status": "generated",
          "div": "<div xmlns=\"http://www.w3.org/1999/xhtml\"><table class=\"hl7__eu__lab__report\"><tr><th>Test</th><th>09-Dec-2021</th><th>Reference&#xA0;Range</th><th>Unit</th></tr><tr><td>Hemoglobin A1c/Hemoglobin.total in Blood</td><td>3.2</td><td>4.5 - 6.4</td><td>L</td><td>%</td></tr></table></div>"
        },
        "status": "final",
        "subject": {
          "reference": "urn:uuid:5677de89-7845-41ac-ad16-21f74ff807dc",
          "display": "Pelayo Casal"
        },
        "effectiveDateTime": "2021-12-09T05:38:59Z",
        "specimen": {
          "reference": "urn:uuid:1c1d5385-a90e-4d25-8fbe-1275098252aa"
        }
      }
    },
    {
      "fullUrl": "urn:uuid:9bb2eebf-7d2a-4df1-a896-1177150d8845",
      "resource": {
        "resourceType": "Observation",
        "id": "9bb2eebf-7d2a-4df1-a896-1177150d8845",
        "meta": {
          "profile": [
            "http://hl7.eu/fhir/laboratory/StructureDefinition/Observation-resultslab-eu-lab"
          ]
        },
        "performer": [
          {
            "display": "The Central European Lab"
          }
        ],
        "category": [
          {
            "coding": [
              {
                "system": "http://terminology.hl7.org/CodeSystem/observation-category",
                "code": "laboratory"
              }
            ]
          }
        ],
        "code": {
          "coding": [
            {
              "code": "2339-0",
              "system": "http://loinc.org",
              "display": "Glucose [Mass/volume] in Blood"
            }
          ],
          "text": "Glucose [Mass/volume] in Blood"
        },
        "valueQuantity": {
          "system": "http://unitsofmeasure.org",
          "value": 95.4,
          "unit": "mg/dL",
          "code": "mg/dL"
        },
        "referenceRange": [
          {
            "low": {
              "value": 70,
              "code": "mg/dL",
              "system": "http://unitsofmeasure.org"
            }
          },
          {
            "high": {
              "value": 140,
              "code": "mg/dL",
              "system": "http://unitsofmeasure.org"
            }
          }
        ],
        "text": {
          "status": "generated",
          "div": "<div xmlns=\"http://www.w3.org/1999/xhtml\"><table class=\"hl7__eu__lab__report\"><tr><th>Test</th><th>09-Dec-2021</th><th>Reference&#xA0;Range</th><th>Unit</th></tr><tr><td>Glucose [Mass/volume] in Blood</td><td>95.4</td><td>70 - 140</td><td></td><td>mg/dL</td></tr></table></div>"
        },
        "status": "final",
        "subject": {
          "reference": "urn:uuid:5677de89-7845-41ac-ad16-21f74ff807dc",
          "display": "Pelayo Casal"
        },
        "effectiveDateTime": "2021-12-09T05:38:59Z",
        "specimen": {
          "reference": "urn:uuid:1c1d5385-a90e-4d25-8fbe-1275098252aa"
        }
      }
    },
    {
      "fullUrl": "urn:uuid:6d188e6f-ffdd-4ccc-a349-4d3cb4f8b5ce",
      "resource": {
        "resourceType": "Observation",
        "id": "6d188e6f-ffdd-4ccc-a349-4d3cb4f8b5ce",
        "meta": {
          "profile": [
            "http://hl7.eu/fhir/laboratory/StructureDefinition/Observation-resultslab-eu-lab"
          ]
        },
        "performer": [
          {
            "display": "The Central European Lab"
          }
        ],
        "category": [
          {
            "coding": [
              {
                "system": "http://terminology.hl7.org/CodeSystem/observation-category",
                "code": "laboratory"
              }
            ]
          }
        ],
        "code": {
          "coding": [
            {
              "code": "6299-2",
              "system": "http://loinc.org",
              "display": "Urea nitrogen [Mass/volume] in Blood"
            }
          ],
          "text": "Urea nitrogen [Mass/volume] in Blood"
        },
        "valueQuantity": {
          "system": "http://unitsofmeasure.org",
          "value": 12.8,
          "unit": "mg/dL",
          "code": "mg/dL"
        },
        "referenceRange": [
          {
            "low": {
              "value": 7,
              "code": "mg/dL",
              "system": "http://unitsofmeasure.org"
            }
          },
          {
            "high": {
              "value": 25,
              "code": "mg/dL",
              "system": "http://unitsofmeasure.org"
            }
          }
        ],
        "text": {
          "status": "generated",
          "div": "<div xmlns=\"http://www.w3.org/1999/xhtml\"><table class=\"hl7__eu__lab__report\"><tr><th>Test</th><th>09-Dec-2021</th><th>Reference&#xA0;Range</th><th>Unit</th></tr><tr><td>Urea nitrogen [Mass/volume] in Blood</td><td>12.8</td><td>7 - 25</td><td></td><td>mg/dL</td></tr></table></div>"
        },
        "status": "final",
        "subject": {
          "reference": "urn:uuid:5677de89-7845-41ac-ad16-21f74ff807dc",
          "display": "Pelayo Casal"
        },
        "effectiveDateTime": "2021-12-09T05:38:59Z",
        "specimen": {
          "reference": "urn:uuid:1c1d5385-a90e-4d25-8fbe-1275098252aa"
        }
      }
    },
    {
      "fullUrl": "urn:uuid:909ca90e-5197-42a5-9301-19cfcca522ad",
      "resource": {
        "resourceType": "Observation",
        "id": "909ca90e-5197-42a5-9301-19cfcca522ad",
        "meta": {
          "profile": [
            "http://hl7.eu/fhir/laboratory/StructureDefinition/Observation-resultslab-eu-lab"
          ]
        },
        "performer": [
          {
            "display": "The Central European Lab"
          }
        ],
        "category": [
          {
            "coding": [
              {
                "system": "http://terminology.hl7.org/CodeSystem/observation-category",
                "code": "laboratory"
              }
            ]
          }
        ],
        "code": {
          "coding": [
            {
              "code": "38483-4",
              "system": "http://loinc.org",
              "display": "Creatinine [Mass/volume] in Blood"
            }
          ],
          "text": "Creatinine [Mass/volume] in Blood"
        },
        "valueQuantity": {
          "system": "http://unitsofmeasure.org",
          "value": 1.4,
          "unit": "mg/dL",
          "code": "mg/dL"
        },
        "referenceRange": [
          {
            "low": {
              "value": 0.9,
              "code": "mg/dL",
              "system": "http://unitsofmeasure.org"
            }
          },
          {
            "high": {
              "value": 1.3,
              "code": "mg/dL",
              "system": "http://unitsofmeasure.org"
            }
          }
        ],
        "interpretation": [
          {
            "coding": [
              {
                "code": "H",
                "system": "http://terminology.hl7.org/CodeSystem/v3-ObservationInterpretation",
                "display": "High"
              }
            ]
          }
        ],
        "text": {
          "status": "generated",
          "div": "<div xmlns=\"http://www.w3.org/1999/xhtml\"><table class=\"hl7__eu__lab__report\"><tr><th>Test</th><th>09-Dec-2021</th><th>Reference&#xA0;Range</th><th>Unit</th></tr><tr><td>Creatinine [Mass/volume] in Blood</td><td>1.4</td><td>0.9 - 1.3</td><td>H</td><td>mg/dL</td></tr></table></div>"
        },
        "status": "final",
        "subject": {
          "reference": "urn:uuid:5677de89-7845-41ac-ad16-21f74ff807dc",
          "display": "Pelayo Casal"
        },
        "effectiveDateTime": "2021-12-09T05:38:59Z",
        "specimen": {
          "reference": "urn:uuid:1c1d5385-a90e-4d25-8fbe-1275098252aa"
        }
      }
    },
    {
      "fullUrl": "urn:uuid:d6b33ca7-ca54-458b-832c-6792456e6f24",
      "resource": {
        "resourceType": "Observation",
        "id": "d6b33ca7-ca54-458b-832c-6792456e6f24",
        "meta": {
          "profile": [
            "http://hl7.eu/fhir/laboratory/StructureDefinition/Observation-resultslab-eu-lab"
          ]
        },
        "performer": [
          {
            "display": "The Central European Lab"
          }
        ],
        "category": [
          {
            "coding": [
              {
                "system": "http://terminology.hl7.org/CodeSystem/observation-category",
                "code": "laboratory"
              }
            ]
          }
        ],
        "code": {
          "coding": [
            {
              "code": "49765-1",
              "system": "http://loinc.org",
              "display": "Calcium [Mass/volume] in Blood"
            }
          ],
          "text": "Calcium [Mass/volume] in Blood"
        },
        "valueQuantity": {
          "system": "http://unitsofmeasure.org",
          "value": 10,
          "unit": "mg/dL",
          "code": "mg/dL"
        },
        "referenceRange": [
          {
            "low": {
              "value": 8.6,
              "code": "mg/dL",
              "system": "http://unitsofmeasure.org"
            }
          },
          {
            "high": {
              "value": 10.2,
              "code": "mg/dL",
              "system": "http://unitsofmeasure.org"
            }
          }
        ],
        "text": {
          "status": "generated",
          "div": "<div xmlns=\"http://www.w3.org/1999/xhtml\"><table class=\"hl7__eu__lab__report\"><tr><th>Test</th><th>09-Dec-2021</th><th>Reference&#xA0;Range</th><th>Unit</th></tr><tr><td>Calcium [Mass/volume] in Blood</td><td>10.0</td><td>8.6 - 10.2</td><td></td><td>mg/dL</td></tr></table></div>"
        },
        "status": "final",
        "subject": {
          "reference": "urn:uuid:5677de89-7845-41ac-ad16-21f74ff807dc",
          "display": "Pelayo Casal"
        },
        "effectiveDateTime": "2021-12-09T05:38:59Z",
        "specimen": {
          "reference": "urn:uuid:1c1d5385-a90e-4d25-8fbe-1275098252aa"
        }
      }
    },
    {
      "fullUrl": "urn:uuid:e6d7ac70-36cf-4c82-8a5b-0f8804a3bcd5",
      "resource": {
        "resourceType": "Observation",
        "id": "e6d7ac70-36cf-4c82-8a5b-0f8804a3bcd5",
        "meta": {
          "profile": [
            "http://hl7.eu/fhir/laboratory/StructureDefinition/Observation-resultslab-eu-lab"
          ]
        },
        "performer": [
          {
            "display": "The Central European Lab"
          }
        ],
        "category": [
          {
            "coding": [
              {
                "system": "http://terminology.hl7.org/CodeSystem/observation-category",
                "code": "laboratory"
              }
            ]
          }
        ],
        "code": {
          "coding": [
            {
              "code": "2947-0",
              "system": "http://loinc.org",
              "display": "Sodium [Moles/volume] in Blood"
            }
          ],
          "text": "Sodium [Moles/volume] in Blood"
        },
        "valueQuantity": {
          "system": "http://unitsofmeasure.org",
          "value": 140.2,
          "unit": "mmol/L",
          "code": "mmol/L"
        },
        "referenceRange": [
          {
            "low": {
              "value": 135,
              "code": "mmol/L",
              "system": "http://unitsofmeasure.org"
            }
          },
          {
            "high": {
              "value": 145,
              "code": "mmol/L",
              "system": "http://unitsofmeasure.org"
            }
          }
        ],
        "text": {
          "status": "generated",
          "div": "<div xmlns=\"http://www.w3.org/1999/xhtml\"><table class=\"hl7__eu__lab__report\"><tr><th>Test</th><th>09-Dec-2021</th><th>Reference&#xA0;Range</th><th>Unit</th></tr><tr><td>Sodium [Moles/volume] in Blood</td><td>140.2</td><td>135 - 145</td><td></td><td>mmol/L</td></tr></table></div>"
        },
        "status": "final",
        "subject": {
          "reference": "urn:uuid:5677de89-7845-41ac-ad16-21f74ff807dc",
          "display": "Pelayo Casal"
        },
        "effectiveDateTime": "2021-12-09T05:38:59Z",
        "specimen": {
          "reference": "urn:uuid:1c1d5385-a90e-4d25-8fbe-1275098252aa"
        }
      }
    },
    {
      "fullUrl": "urn:uuid:fba5a16a-47ca-4a38-9453-e37b5120ea3b",
      "resource": {
        "resourceType": "Observation",
        "id": "fba5a16a-47ca-4a38-9453-e37b5120ea3b",
        "meta": {
          "profile": [
            "http://hl7.eu/fhir/laboratory/StructureDefinition/Observation-resultslab-eu-lab"
          ]
        },
        "performer": [
          {
            "display": "The Central European Lab"
          }
        ],
        "category": [
          {
            "coding": [
              {
                "system": "http://terminology.hl7.org/CodeSystem/observation-category",
                "code": "laboratory"
              }
            ]
          }
        ],
        "code": {
          "coding": [
            {
              "code": "6298-4",
              "system": "http://loinc.org",
              "display": "Potassium [Moles/volume] in Blood"
            }
          ],
          "text": "Potassium [Moles/volume] in Blood"
        },
        "valueQuantity": {
          "system": "http://unitsofmeasure.org",
          "value": 4.3,
          "unit": "mmol/L",
          "code": "mmol/L"
        },
        "referenceRange": [
          {
            "low": {
              "value": 3.5,
              "code": "mmol/L",
              "system": "http://unitsofmeasure.org"
            }
          },
          {
            "high": {
              "value": 5.1,
              "code": "mmol/L",
              "system": "http://unitsofmeasure.org"
            }
          }
        ],
        "text": {
          "status": "generated",
          "div": "<div xmlns=\"http://www.w3.org/1999/xhtml\"><table class=\"hl7__eu__lab__report\"><tr><th>Test</th><th>09-Dec-2021</th><th>Reference&#xA0;Range</th><th>Unit</th></tr><tr><td>Potassium [Moles/volume] in Blood</td><td>4.3</td><td>3.5 - 5.1</td><td></td><td>mmol/L</td></tr></table></div>"
        },
        "status": "final",
        "subject": {
          "reference": "urn:uuid:5677de89-7845-41ac-ad16-21f74ff807dc",
          "display": "Pelayo Casal"
        },
        "effectiveDateTime": "2021-12-09T05:38:59Z",
        "specimen": {
          "reference": "urn:uuid:1c1d5385-a90e-4d25-8fbe-1275098252aa"
        }
      }
    },
    {
      "fullUrl": "urn:uuid:1cf62936-26c7-4415-99fd-d5db12deee83",
      "resource": {
        "resourceType": "Observation",
        "id": "1cf62936-26c7-4415-99fd-d5db12deee83",
        "meta": {
          "profile": [
            "http://hl7.eu/fhir/laboratory/StructureDefinition/Observation-resultslab-eu-lab"
          ]
        },
        "performer": [
          {
            "display": "The Central European Lab"
          }
        ],
        "category": [
          {
            "coding": [
              {
                "system": "http://terminology.hl7.org/CodeSystem/observation-category",
                "code": "laboratory"
              }
            ]
          }
        ],
        "code": {
          "coding": [
            {
              "code": "2069-3",
              "system": "http://loinc.org",
              "display": "Chloride [Moles/volume] in Blood"
            }
          ],
          "text": "Chloride [Moles/volume] in Blood"
        },
        "valueQuantity": {
          "system": "http://unitsofmeasure.org",
          "value": 104.5,
          "unit": "mmol/L",
          "code": "mmol/L"
        },
        "referenceRange": [
          {
            "low": {
              "value": 98,
              "code": "mmol/L",
              "system": "http://unitsofmeasure.org"
            }
          },
          {
            "high": {
              "value": 108,
              "code": "mmol/L",
              "system": "http://unitsofmeasure.org"
            }
          }
        ],
        "text": {
          "status": "generated",
          "div": "<div xmlns=\"http://www.w3.org/1999/xhtml\"><table class=\"hl7__eu__lab__report\"><tr><th>Test</th><th>09-Dec-2021</th><th>Reference&#xA0;Range</th><th>Unit</th></tr><tr><td>Chloride [Moles/volume] in Blood</td><td>104.5</td><td>98 - 108</td><td></td><td>mmol/L</td></tr></table></div>"
        },
        "status": "final",
        "subject": {
          "reference": "urn:uuid:5677de89-7845-41ac-ad16-21f74ff807dc",
          "display": "Pelayo Casal"
        },
        "effectiveDateTime": "2021-12-09T05:38:59Z",
        "specimen": {
          "reference": "urn:uuid:1c1d5385-a90e-4d25-8fbe-1275098252aa"
        }
      }
    },
    {
      "fullUrl": "urn:uuid:013046ce-1ab6-4834-b15c-3024e5605ec0",
      "resource": {
        "resourceType": "Observation",
        "id": "013046ce-1ab6-4834-b15c-3024e5605ec0",
        "meta": {
          "profile": [
            "http://hl7.eu/fhir/laboratory/StructureDefinition/Observation-resultslab-eu-lab"
          ]
        },
        "performer": [
          {
            "display": "The Central European Lab"
          }
        ],
        "category": [
          {
            "coding": [
              {
                "system": "http://terminology.hl7.org/CodeSystem/observation-category",
                "code": "laboratory"
              }
            ]
          }
        ],
        "code": {
          "coding": [
            {
              "code": "20565-8",
              "system": "http://loinc.org",
              "display": "Carbon dioxide, total [Moles/volume] in Blood"
            }
          ],
          "text": "Carbon dioxide, total [Moles/volume] in Blood"
        },
        "valueQuantity": {
          "system": "http://unitsofmeasure.org",
          "value": 23.6,
          "unit": "mmol/L",
          "code": "mmol/L"
        },
        "referenceRange": [
          {
            "low": {
              "value": 22,
              "code": "mmol/L",
              "system": "http://unitsofmeasure.org"
            }
          },
          {
            "high": {
              "value": 32,
              "code": "mmol/L",
              "system": "http://unitsofmeasure.org"
            }
          }
        ],
        "text": {
          "status": "generated",
          "div": "<div xmlns=\"http://www.w3.org/1999/xhtml\"><table class=\"hl7__eu__lab__report\"><tr><th>Test</th><th>09-Dec-2021</th><th>Reference&#xA0;Range</th><th>Unit</th></tr><tr><td>Carbon dioxide, total [Moles/volume] in Blood</td><td>23.6</td><td>22 - 32</td><td></td><td>mmol/L</td></tr></table></div>"
        },
        "status": "final",
        "subject": {
          "reference": "urn:uuid:5677de89-7845-41ac-ad16-21f74ff807dc",
          "display": "Pelayo Casal"
        },
        "effectiveDateTime": "2021-12-09T05:38:59Z",
        "specimen": {
          "reference": "urn:uuid:1c1d5385-a90e-4d25-8fbe-1275098252aa"
        }
      }
    },
    {
      "fullUrl": "urn:uuid:15436380-ab27-40b2-a5e7-adb7b4cfd8e9",
      "resource": {
        "resourceType": "Device",
        "id": "15436380-ab27-40b2-a5e7-adb7b4cfd8e9",
        "deviceName": [
          {
            "name": "SYNDERAI Synthetic Generator",
            "type": "manufacturer-name"
          }
        ],
        "version": [
          {
            "value": "5.0"
          }
        ],
        "text": {
          "status": "generated",
          "div": "<div xmlns=\"http://www.w3.org/1999/xhtml\">SYNDERAI Synthetic Generator v5.0</div>"
        },
        "status": "active\"",
        "distinctIdentifier": "synderai-generator-50",
        "manufacturer": "SYNDERAI Project"
      }
    },
    {
      "fullUrl": "urn:uuid:12f775ec-96df-4d4e-8821-87b6986ccaf4",
      "resource": {
        "resourceType": "Provenance",
        "id": "12f775ec-96df-4d4e-8821-87b6986ccaf4",
        "target": [
          {
            "reference": "Patient/5677de89-7845-41ac-ad16-21f74ff807dc"
          },
          {
            "reference": "Bundle/bd27ae11-dd23-440b-8503-3a6a5a85c118"
          },
          {
            "reference": "Composition/917b57aa-486d-45c6-ab53-9d2ed5fec94d"
          },
          {
            "reference": "PractitionerRole/cc4c516b-c659-43ee-a06f-520523cfb098"
          },
          {
            "reference": "Practitioner/719f982c-691e-4737-a8d7-93c69bc4a616"
          },
          {
            "reference": "PractitionerRole/6407d8f1-d91c-4f85-82f3-22cdf366e390"
          },
          {
            "reference": "Organization/81601ae2-553a-48eb-922d-9989c4e5f68f"
          }
        ],
        "activity": {
          "text": "Synthetic Example Data Generation"
        },
        "policy": [
          "https://synderai.net/synderai-synthetic-data-policy"
        ],
        "agent": [
          {
            "type": {
              "text": "author"
            },
            "who": {
              "reference": "Device/15436380-ab27-40b2-a5e7-adb7b4cfd8e9"
            }
          }
        ],
        "reason": [
          {
            "text": "Interoperability Testing and Training (non-clinical use)"
          }
        ],
        "text": {
          "status": "generated",
          "div": "<div xmlns=\"http://www.w3.org/1999/xhtml\">Provenance for SYNDERAI Synthetic Example Data Resource</div>"
        },
        "recorded": "2021-12-09T06:38:59Z"
      }
    },
    {
      "fullUrl": "urn:uuid:cc4c516b-c659-43ee-a06f-520523cfb098",
      "resource": {
        "resourceType": "PractitionerRole",
        "id": "cc4c516b-c659-43ee-a06f-520523cfb098",
        "meta": {
          "profile": [
            "http://hl7.eu/fhir/base/StructureDefinition/practitionerRole-eu"
          ]
        },
        "text": {
          "status": "generated",
          "div": "<div xmlns=\"http://www.w3.org/1999/xhtml\">Laboratory Role Id: cc4c516b-c659-43ee-a06f-520523cfb098</div>"
        },
        "practitioner": {
          "reference": "urn:uuid:719f982c-691e-4737-a8d7-93c69bc4a616"
        }
      }
    },
    {
      "fullUrl": "urn:uuid:719f982c-691e-4737-a8d7-93c69bc4a616",
      "resource": {
        "resourceType": "Practitioner",
        "id": "719f982c-691e-4737-a8d7-93c69bc4a616",
        "meta": {
          "profile": [
            "http://hl7.eu/fhir/base/StructureDefinition/practitioner-eu"
          ]
        },
        "identifier": [
          {
            "assigner": {
              "display": "HL7 Europe"
            },
            "system": "urn:oid:2.16.840.1.113883.2.51.999",
            "value": "19ecc2bf-b673-47a4-9f75-5a073abec51e"
          }
        ],
        "name": [
          {
            "prefix": [
              "dr"
            ],
            "given": [
              "Ex"
            ],
            "family": "Ample"
          }
        ],
        "address": [
          {
            "line": [
              "Laboratoire Central Européenne",
              "Boulevard du Jardin Botanique 32"
            ],
            "postalCode": "1000",
            "city": "Brussels",
            "country": "Belgium"
          }
        ],
        "text": {
          "status": "generated",
          "div": "<div xmlns=\"http://www.w3.org/1999/xhtml\">Laboratory: Laboratoire Central Européenne, 1000 Brussels, Belgium</div>"
        }
      }
    }
  ],
  "type": "document",
  "timestamp": "2021-12-09T06:38:59Z"
}
