{
  "resourceType": "Bundle",
  "id": "4f87017e-e959-43f2-bc36-63a704f97098",
  "meta": {
    "profile": [
      "http://hl7.eu/fhir/laboratory/StructureDefinition/Bundle-eu-lab"
    ]
  },
  "identifier": {
    "assigner": {
      "display": "HL7 Europe"
    },
    "system": "urn:oid:2.16.840.1.113883.2.51.999",
    "value": "43f4f8d0-7cf6-4008-ac02-175df72a69b7"
  },
  "entry": [
    {
      "fullUrl": "urn:uuid:c276ff96-c733-488e-af86-19929130a3cf",
      "resource": {
        "resourceType": "Composition",
        "id": "c276ff96-c733-488e-af86-19929130a3cf",
        "meta": {
          "profile": [
            "http://hl7.eu/fhir/laboratory/StructureDefinition/Composition-eu-lab"
          ]
        },
        "identifier": {
          "assigner": {
            "display": "HL7 Europe"
          },
          "system": "urn:oid:2.16.840.1.113883.2.51.999",
          "value": "2103b24b-cdb5-4175-b232-c34897758037"
        },
        "author": [
          {
            "reference": "urn:uuid:694e4804-cbab-42d2-b344-39980d62a302"
          }
        ],
        "category": [
          {
            "coding": [
              {
                "code": "26436-6",
                "system": "http://loinc.org",
                "display": "Laboratory studies (set)"
              }
            ]
          }
        ],
        "type": {
          "coding": [
            {
              "code": "11502-2",
              "system": "http://loinc.org",
              "display": "Laboratory report"
            }
          ],
          "text": "Laboratory Report"
        },
        "section": [
          {
            "code": {
              "coding": [
                {
                  "code": "26436-6",
                  "system": "http://loinc.org",
                  "display": "Laboratory studies (set)"
                }
              ],
              "text": "Laboratory studies"
            },
            "section": [
              {
                "code": {
                  "coding": [
                    {
                      "code": "$18719-5",
                      "system": "http://loinc.org",
                      "display": "Chemistry studies (set)"
                    }
                  ],
                  "text": "Chemistry"
                },
                "entry": [
                  {
                    "reference": "urn:uuid:e045dd8d-4d80-45b8-b281-0d68f9bfab5c"
                  },
                  {
                    "reference": "urn:uuid:ad5b3813-5a02-470d-9b32-d22f62f30728"
                  },
                  {
                    "reference": "urn:uuid:af5bfed0-59ac-44c2-95c5-a0b0421f69c4"
                  },
                  {
                    "reference": "urn:uuid:39803a17-c042-4bb2-b7fb-989e4f4e8eb6"
                  },
                  {
                    "reference": "urn:uuid:367ff762-0c34-48f1-994a-2aacca80dd52"
                  },
                  {
                    "reference": "urn:uuid:88d464f7-41ae-4c96-8377-d36db7f88fec"
                  },
                  {
                    "reference": "urn:uuid:6fd9b5e9-be7a-4de6-9690-73951119aba7"
                  },
                  {
                    "reference": "urn:uuid:0f199c67-4668-484f-b39b-941d4a76acf2"
                  },
                  {
                    "reference": "urn:uuid:8217900f-65fb-4c70-ae6b-c51fba7e2a92"
                  },
                  {
                    "reference": "urn:uuid:de1df36a-44f8-4b8f-a1d8-6e4b08af8457"
                  }
                ],
                "text": {
                  "status": "generated",
                  "div": "<div xmlns=\"http://www.w3.org/1999/xhtml\"><h3>Chemistry</h3><table class=\"hl7__eu__lab__report\"><thead><tr><th>Test</th><th>06-MAR-2019</th><th>Reference&#xA0;Range</th><th>Unit</th></tr></thead><tbody><tr><td>Glucose [Mass/volume] in Serum or Plasma</td><td><strong>64.7 L</strong></td><td>70 - 140</td><td>mg/dL</td></tr><tr><td>Urea nitrogen [Mass/volume] in Serum or Plasma</td><td>16.7</td><td>7 - 20</td><td>mg/dL</td></tr><tr><td>Creatinine [Mass/volume] in Serum or Plasma</td><td><strong>2.1 H</strong></td><td>0.9 - 1.3</td><td>mg/dL</td></tr><tr><td>Calcium [Mass/volume] in Serum or Plasma</td><td>8.5</td><td>8.5 - 10.5</td><td>mg/dL</td></tr><tr><td>Sodium [Moles/volume] in Serum or Plasma</td><td>143.2</td><td>135 - 145</td><td>mmol/L</td></tr><tr><td>Potassium [Moles/volume] in Serum or Plasma</td><td>4.8</td><td>3.5 - 5</td><td>mmol/L</td></tr><tr><td>Chloride [Moles/volume] in Serum or Plasma</td><td><strong>110.3 H</strong></td><td>98 - 108</td><td>mmol/L</td></tr><tr><td>Carbon dioxide, total [Moles/volume] in Serum or Plasma</td><td>24.1</td><td>22 - 29</td><td>mmol/L</td></tr><tr><td>Ketones [Presence] in Urine by Test strip</td><td>Urine ketone test = ++</td><td></td><td></td></tr><tr><td>Hemoglobin A1c/Hemoglobin.total in Blood</td><td><strong>2.9 L</strong></td><td>4.3 - 6.4</td><td>%</td></tr></tbody></table></div>"
                },
                "title": "Chemistry"
              },
              {
                "code": {
                  "coding": [
                    {
                      "code": "$18729-4",
                      "system": "http://loinc.org",
                      "display": "Urinalysis studies (set)"
                    }
                  ],
                  "text": "Urinalysis"
                },
                "entry": [
                  {
                    "reference": "urn:uuid:343f689d-0fe5-496a-a756-e34e9a41cd27"
                  },
                  {
                    "reference": "urn:uuid:c6e0ff69-e4a2-4283-853e-4dc71bbd2137"
                  },
                  {
                    "reference": "urn:uuid:3baa8387-192f-43d1-a2ce-21025cf0430a"
                  },
                  {
                    "reference": "urn:uuid:c7142de9-820a-477b-a480-006087c3f01c"
                  },
                  {
                    "reference": "urn:uuid:7c1557ea-856b-48df-af18-60bf71eb4c11"
                  },
                  {
                    "reference": "urn:uuid:1047fc5e-5f4e-4266-82e3-fdce9b61b3e1"
                  },
                  {
                    "reference": "urn:uuid:fe5464f9-751d-40d3-a797-5bb8ea628057"
                  },
                  {
                    "reference": "urn:uuid:7648f3b9-e91b-406f-8108-0722457a19fa"
                  },
                  {
                    "reference": "urn:uuid:9d7624b8-2dfe-4897-af86-704dd679ceca"
                  },
                  {
                    "reference": "urn:uuid:f325c9a5-13f5-4606-aa67-54decd9f0e4e"
                  },
                  {
                    "reference": "urn:uuid:4185fdc2-35cb-4ebb-a387-8d2c86914a15"
                  },
                  {
                    "reference": "urn:uuid:d41bd78d-0b8b-4e7c-90ee-91dcbd7e4f34"
                  }
                ],
                "text": {
                  "status": "generated",
                  "div": "<div xmlns=\"http://www.w3.org/1999/xhtml\"><h3>Urinalysis</h3><table class=\"hl7__eu__lab__report\"><thead><tr><th>Test</th><th>06-MAR-2019</th><th>Reference&#xA0;Range</th><th>Unit</th></tr></thead><tbody><tr><td>Glucose [Mass/volume] in Urine by Test strip</td><td>0.6</td><td>0 - 0.8</td><td>mg/dL</td></tr><tr><td>Glucose [Presence] in Urine by Test strip</td><td>++</td><td></td><td></td></tr><tr><td>Bilirubin.total [Mass/volume] in Urine by Test strip</td><td>1.0</td><td>0.2 - 1</td><td>mg/dL</td></tr><tr><td>Bilirubin.total [Presence] in Urine by Test strip</td><td>Finding of bilirubin in urine</td><td></td><td></td></tr><tr><td>Ketones [Mass/volume] in Urine by Test strip</td><td>3.1</td><td>0 - 5</td><td>mg/dL</td></tr><tr><td>Specific gravity of Urine by Test strip</td><td><strong>1.0 L</strong></td><td>1.005 - 1.03</td><td>{nominal}</td></tr><tr><td>pH of Urine by Test strip</td><td>6.3</td><td>4.6 - 7</td><td>pH</td></tr><tr><td>Protein [Mass/volume] in Urine by Test strip</td><td><strong>202.5 H</strong></td><td>0 - 150</td><td>mg/dL</td></tr><tr><td>Protein [Presence] in Urine by Test strip</td><td>Urine protein test = ++</td><td></td><td></td></tr><tr><td>Nitrite [Presence] in Urine by Test strip</td><td>Urine nitrite negative</td><td></td><td></td></tr><tr><td>Hemoglobin [Presence] in Urine by Test strip</td><td>Urine blood test = negative</td><td></td><td></td></tr><tr><td>Leukocyte esterase [Presence] in Urine by Test strip</td><td>Urine leukocyte test negative</td><td></td><td></td></tr></tbody></table></div>"
                },
                "title": "Urinalysis"
              },
              {
                "code": {
                  "coding": [
                    {
                      "code": "$LP7846-1",
                      "system": "http://loinc.org",
                      "display": "Specimen information"
                    }
                  ],
                  "text": "Specimen information"
                },
                "entry": [
                  {
                    "reference": "urn:uuid:e321cd20-3761-4d85-8023-e5c8bd1aeb55"
                  },
                  {
                    "reference": "urn:uuid:fc50eac9-8ffe-4317-b6f4-0399a3e112db"
                  },
                  {
                    "reference": "urn:uuid:684bc3e9-80ed-41cf-8259-cde1cd7444db"
                  },
                  {
                    "reference": "urn:uuid:14c8a6c3-7f53-4719-ad64-ac8495e2b733"
                  }
                ],
                "text": {
                  "status": "generated",
                  "div": "<div xmlns=\"http://www.w3.org/1999/xhtml\"><h3>Specimen information</h3><table class=\"hl7__eu__lab__report\"><thead><tr><th>Test</th><th>06-MAR-2019</th><th>Specimen</th><th></th></tr></thead><tbody><tr><td>Appearance of Urine</td><td>Cloudy urine</td><td>Urine</td><td></td></tr><tr><td>Odor of Urine</td><td>Urine smell ammoniacal</td><td>Urine</td><td></td></tr><tr><td>Clarity of Urine</td><td>Translucent</td><td>Urine</td><td></td></tr><tr><td>Color of Urine</td><td>Brown color</td><td>Urine</td><td></td></tr></tbody></table></div>"
                },
                "title": "Specimen information"
              }
            ],
            "title": "Laboratory Report"
          },
          {
            "text": {
              "status": "generated",
              "div": "<div xmlns=\"http://www.w3.org/1999/xhtml\"><h3>Annotation</h3><table class=\"hl7__eu__lab__report\"><tr><th>Conclusion and Recommendations based on this report and previous findings known to us</th></tr><tr><td>The patient shows mild hypoglycemia and a low HbA1c, suggesting possible chronic low blood glucose. Elevated creatinine indicates impaired renal function. Urinalysis reveals proteinuria, glucosuria, ketonuria, bilirubinuria, low specific gravity, and abnormal urine appearance, suggesting renal dysfunction and possible tubular damage. No evidence of urinary tract infection. Recommend further nephrological evaluation and assessment for underlying metabolic or systemic disease.</td></tr></table></div>"
            },
            "code": {
              "coding": [
                {
                  "system": "http://loinc.org",
                  "code": "48767-8",
                  "display": "Annotation comment"
                }
              ]
            },
            "title": "Annotation comment"
          }
        ],
        "status": "final",
        "subject": {
          "reference": "urn:uuid:f63aaeb7-d5f6-49c4-bbcd-ed37fc55481c",
          "display": "Θεμιστοκλής Λιναρδάκη"
        },
        "date": "2019-03-06T07:16:00Z",
        "title": "Laboratory Report",
        "confidentiality": "N"
      }
    },
    {
      "fullUrl": "urn:uuid:a45755d0-d70d-49b5-ac6d-fd19984d9385",
      "resource": {
        "resourceType": "DiagnosticReport",
        "id": "a45755d0-d70d-49b5-ac6d-fd19984d9385",
        "meta": {
          "profile": [
            "http://hl7.eu/fhir/laboratory/StructureDefinition/DiagnosticReport-eu-lab"
          ]
        },
        "identifier": [
          {
            "assigner": {
              "display": "HL7 Europe"
            },
            "system": "urn:oid:2.16.840.1.113883.2.51.999",
            "value": "6887ac02-24d0-4562-a451-fe29a2a1c4fe"
          }
        ],
        "extension": [
          {
            "url": "http://hl7.org/fhir/5.0/StructureDefinition/extension-DiagnosticReport.composition",
            "valueReference": {
              "reference": "urn:uuid:2103b24b-cdb5-4175-b232-c34897758037"
            }
          }
        ],
        "category": [
          {
            "coding": [
              {
                "code": "26436-6",
                "system": "http://loinc.org",
                "display": "Laboratory studies (set)"
              }
            ]
          }
        ],
        "specimen": [
          {
            "reference": "urn:uuid:5810f767-9453-4f7f-9df1-2a8bccc84cac"
          },
          {
            "reference": "urn:uuid:3901a45d-c190-4fe6-9efa-5f864764b2a9"
          },
          {
            "reference": "urn:uuid:58398fef-d0a9-4f52-9528-009beb3e473b"
          }
        ],
        "result": [
          {
            "reference": "urn:uuid:e045dd8d-4d80-45b8-b281-0d68f9bfab5c"
          },
          {
            "reference": "urn:uuid:ad5b3813-5a02-470d-9b32-d22f62f30728"
          },
          {
            "reference": "urn:uuid:af5bfed0-59ac-44c2-95c5-a0b0421f69c4"
          },
          {
            "reference": "urn:uuid:39803a17-c042-4bb2-b7fb-989e4f4e8eb6"
          },
          {
            "reference": "urn:uuid:367ff762-0c34-48f1-994a-2aacca80dd52"
          },
          {
            "reference": "urn:uuid:88d464f7-41ae-4c96-8377-d36db7f88fec"
          },
          {
            "reference": "urn:uuid:6fd9b5e9-be7a-4de6-9690-73951119aba7"
          },
          {
            "reference": "urn:uuid:0f199c67-4668-484f-b39b-941d4a76acf2"
          },
          {
            "reference": "urn:uuid:e321cd20-3761-4d85-8023-e5c8bd1aeb55"
          },
          {
            "reference": "urn:uuid:fc50eac9-8ffe-4317-b6f4-0399a3e112db"
          },
          {
            "reference": "urn:uuid:684bc3e9-80ed-41cf-8259-cde1cd7444db"
          },
          {
            "reference": "urn:uuid:14c8a6c3-7f53-4719-ad64-ac8495e2b733"
          },
          {
            "reference": "urn:uuid:343f689d-0fe5-496a-a756-e34e9a41cd27"
          },
          {
            "reference": "urn:uuid:c6e0ff69-e4a2-4283-853e-4dc71bbd2137"
          },
          {
            "reference": "urn:uuid:3baa8387-192f-43d1-a2ce-21025cf0430a"
          },
          {
            "reference": "urn:uuid:c7142de9-820a-477b-a480-006087c3f01c"
          },
          {
            "reference": "urn:uuid:7c1557ea-856b-48df-af18-60bf71eb4c11"
          },
          {
            "reference": "urn:uuid:8217900f-65fb-4c70-ae6b-c51fba7e2a92"
          },
          {
            "reference": "urn:uuid:1047fc5e-5f4e-4266-82e3-fdce9b61b3e1"
          },
          {
            "reference": "urn:uuid:fe5464f9-751d-40d3-a797-5bb8ea628057"
          },
          {
            "reference": "urn:uuid:7648f3b9-e91b-406f-8108-0722457a19fa"
          },
          {
            "reference": "urn:uuid:9d7624b8-2dfe-4897-af86-704dd679ceca"
          },
          {
            "reference": "urn:uuid:f325c9a5-13f5-4606-aa67-54decd9f0e4e"
          },
          {
            "reference": "urn:uuid:4185fdc2-35cb-4ebb-a387-8d2c86914a15"
          },
          {
            "reference": "urn:uuid:d41bd78d-0b8b-4e7c-90ee-91dcbd7e4f34"
          },
          {
            "reference": "urn:uuid:de1df36a-44f8-4b8f-a1d8-6e4b08af8457"
          }
        ],
        "status": "registered",
        "code": {
          "coding": [
            {
              "code": "11502-2",
              "system": "http://loinc.org",
              "display": "Laboratory report"
            }
          ]
        },
        "subject": {
          "reference": "urn:uuid:f63aaeb7-d5f6-49c4-bbcd-ed37fc55481c",
          "display": "Θεμιστοκλής Λιναρδάκη"
        }
      }
    },
    {
      "fullUrl": "urn:uuid:f63aaeb7-d5f6-49c4-bbcd-ed37fc55481c",
      "resource": {
        "resourceType": "Patient",
        "id": "f63aaeb7-d5f6-49c4-bbcd-ed37fc55481c",
        "meta": {
          "security": [
            {
              "system": "http://terminology.hl7.org/CodeSystem/v3-ActReason",
              "code": "HTEST"
            },
            {
              "system": "http://terminology.hl7.org/CodeSystem/v3-ActReason",
              "code": "TRAIN"
            }
          ],
          "tag": [
            {
              "system": "https://synderai.net/fhir/CodeSystem/tags",
              "code": "synthetic",
              "display": "SYNDERAI Synthetic data"
            }
          ],
          "profile": [
            "http://hl7.eu/fhir/base/StructureDefinition/patient-eu-core"
          ]
        },
        "identifier": [
          {
            "type": {
              "coding": [
                {
                  "code": "PT",
                  "system": "http://terminology.hl7.org/CodeSystem/v2-0203"
                }
              ]
            },
            "system": "http://ec.europa.eu/identifier/eci",
            "value": "5962-476889-7"
          },
          {
            "type": {
              "coding": [
                {
                  "code": "MR",
                  "system": "http://terminology.hl7.org/CodeSystem/v2-0203"
                }
              ]
            },
            "system": "http://local.setting.eu/identifier",
            "value": "925e2603-2ef9-6bdf-1330-2ebf526636c4"
          }
        ],
        "name": [
          {
            "family": "Λιναρδάκη"
          },
          {
            "given": [
              "Θεμιστοκλής"
            ]
          },
          {
            "text": "Θεμιστοκλής Λιναρδάκη"
          }
        ],
        "address": [
          {
            "line": [
              "Αμαρύνθου 54-58"
            ],
            "use": "home",
            "type": "physical",
            "postalCode": "262 21",
            "city": "Πάτρα",
            "country": "Greece"
          }
        ],
        "telecom": [
          {
            "system": "phone",
            "value": "+302226364480"
          }
        ],
        "extension": [
          {
            "url": "http://hl7.org/fhir/StructureDefinition/patient-nationality",
            "valueCodeableConcept": {
              "coding": [
                {
                  "code": "GR",
                  "system": "http://hl7.org/fhir/ValueSet/country"
                }
              ]
            }
          }
        ],
        "text": {
          "status": "generated",
          "div": "<div xmlns=\"http://www.w3.org/1999/xhtml\"><table class=\"hl7__ips\"><tr><td>Θεμιστοκλής Λιναρδάκη</td><td>male</td><td>21-Jan-1974</td></tr></table></div>"
        },
        "gender": "male",
        "birthDate": "1974-01-21"
      }
    },
    {
      "fullUrl": "urn:uuid:500d8191-495e-4784-8ed2-fffbdc974e97",
      "resource": {
        "resourceType": "ServiceRequest",
        "id": "500d8191-495e-4784-8ed2-fffbdc974e97",
        "meta": {
          "profile": [
            "http://hl7.eu/fhir/laboratory/StructureDefinition/ServiceRequest-eu-lab"
          ]
        },
        "identifier": [
          {
            "system": "http://example.org",
            "value": "b5f2db7e-9ec0-4f40-85f8-9fa82e8532a5"
          }
        ],
        "specimen": [
          {
            "reference": "urn:uuid:5810f767-9453-4f7f-9df1-2a8bccc84cac"
          },
          {
            "reference": "urn:uuid:3901a45d-c190-4fe6-9efa-5f864764b2a9"
          },
          {
            "reference": "urn:uuid:58398fef-d0a9-4f52-9528-009beb3e473b"
          }
        ],
        "reasonCode": [
          {
            "coding": [
              {
                "code": "237602007",
                "system": "http://snomed.info/sct",
                "display": "Metabolic syndrome X"
              }
            ]
          },
          {
            "coding": [
              {
                "code": "433144002",
                "system": "http://snomed.info/sct",
                "display": "Chronic kidney disease stage 3"
              }
            ]
          },
          {
            "coding": [
              {
                "code": "157141000119108",
                "system": "http://snomed.info/sct",
                "display": "Proteinuria due to type 2 diabetes mellitus"
              }
            ]
          },
          {
            "coding": [
              {
                "code": "431856006",
                "system": "http://snomed.info/sct",
                "display": "Chronic kidney disease stage 2"
              }
            ]
          },
          {
            "coding": [
              {
                "code": "90781000119102",
                "system": "http://snomed.info/sct",
                "display": "Microalbuminuria due to type 2 diabetes mellitus"
              }
            ]
          },
          {
            "coding": [
              {
                "code": "127013003",
                "system": "http://snomed.info/sct",
                "display": "Disorder of kidney due to diabetes mellitus"
              }
            ]
          },
          {
            "coding": [
              {
                "code": "431855005",
                "system": "http://snomed.info/sct",
                "display": "Chronic kidney disease stage 1"
              }
            ]
          },
          {
            "coding": [
              {
                "code": "59621000",
                "system": "http://snomed.info/sct",
                "display": "Essential hypertension"
              }
            ]
          },
          {
            "coding": [
              {
                "code": "15777000",
                "system": "http://snomed.info/sct",
                "display": "Prediabetes"
              }
            ]
          },
          {
            "coding": [
              {
                "code": "271737000",
                "system": "http://snomed.info/sct",
                "display": "Anemia"
              }
            ]
          }
        ],
        "status": "active",
        "intent": "order",
        "code": {
          "coding": [
            {
              "code": "108252007",
              "system": "http://snomed.info/sct",
              "display": "Laboratory procedure"
            }
          ]
        },
        "subject": {
          "reference": "urn:uuid:f63aaeb7-d5f6-49c4-bbcd-ed37fc55481c",
          "display": "Θεμιστοκλής Λιναρδάκη"
        },
        "requester": {
          "reference": "urn:uuid:d4152bfd-dae7-4a9f-a6f2-20dd84f4522e"
        }
      }
    },
    {
      "fullUrl": "urn:uuid:d4152bfd-dae7-4a9f-a6f2-20dd84f4522e",
      "resource": {
        "resourceType": "PractitionerRole",
        "id": "d4152bfd-dae7-4a9f-a6f2-20dd84f4522e",
        "meta": {
          "profile": [
            "http://hl7.eu/fhir/base/StructureDefinition/practitionerRole-eu"
          ]
        },
        "text": {
          "status": "generated",
          "div": "<div xmlns=\"http://www.w3.org/1999/xhtml\">Provider Role Id: d4152bfd-dae7-4a9f-a6f2-20dd84f4522e</div>"
        },
        "organization": {
          "reference": "urn:uuid:e3969111-dc5c-4eba-ab9c-7ef0368c1750"
        }
      }
    },
    {
      "fullUrl": "urn:uuid:e3969111-dc5c-4eba-ab9c-7ef0368c1750",
      "resource": {
        "resourceType": "Organization",
        "id": "e3969111-dc5c-4eba-ab9c-7ef0368c1750",
        "meta": {
          "profile": [
            "http://hl7.eu/fhir/base/StructureDefinition/organization-eu"
          ]
        },
        "identifier": [
          {
            "assigner": {
              "display": "HL7 Europe"
            },
            "system": "urn:oid:2.16.840.1.113883.2.51.999",
            "value": "822ba45d-afce-448e-bc4a-8d2a4b1c6c01"
          }
        ],
        "address": [
          {
            "line": [
              "211 Odós Filellinon"
            ],
            "city": "Patras",
            "postalCode": "262 21",
            "country": "Greece"
          }
        ],
        "text": {
          "status": "generated",
          "div": "<div xmlns=\"http://www.w3.org/1999/xhtml\">Provider Organization: Dr. Dimitris Economou</div>"
        },
        "name": "Dr. Dimitris Economou"
      }
    },
    {
      "fullUrl": "urn:uuid:5810f767-9453-4f7f-9df1-2a8bccc84cac",
      "resource": {
        "resourceType": "Specimen",
        "id": "5810f767-9453-4f7f-9df1-2a8bccc84cac",
        "meta": {
          "profile": [
            "http://hl7.eu/fhir/laboratory/StructureDefinition/Specimen-eu-lab"
          ]
        },
        "collection": {
          "collectedDateTime": "2019-03-06"
        },
        "text": {
          "status": "generated",
          "div": "<div xmlns=\"http://www.w3.org/1999/xhtml\"><table class=\"hl7__eu__lab__report\"><tr><th>Specimen</th><th>Collection Date</th></tr><tr><td>Acellular blood (serum or plasma) specimen</td><td><span class=\"nb\">06-Mar-2019</span></td></tr></table></div>"
        },
        "type": {
          "coding": [
            {
              "code": "122592007",
              "system": "http://snomed.info/sct",
              "display": "Acellular blood (serum or plasma) specimen"
            }
          ]
        }
      }
    },
    {
      "fullUrl": "urn:uuid:3901a45d-c190-4fe6-9efa-5f864764b2a9",
      "resource": {
        "resourceType": "Specimen",
        "id": "3901a45d-c190-4fe6-9efa-5f864764b2a9",
        "meta": {
          "profile": [
            "http://hl7.eu/fhir/laboratory/StructureDefinition/Specimen-eu-lab"
          ]
        },
        "collection": {
          "collectedDateTime": "2019-03-06"
        },
        "text": {
          "status": "generated",
          "div": "<div xmlns=\"http://www.w3.org/1999/xhtml\"><table class=\"hl7__eu__lab__report\"><tr><th>Specimen</th><th>Collection Date</th></tr><tr><td>Urine specimen</td><td><span class=\"nb\">06-Mar-2019</span></td></tr></table></div>"
        },
        "type": {
          "coding": [
            {
              "code": "122575003",
              "system": "http://snomed.info/sct",
              "display": "Urine specimen"
            }
          ]
        }
      }
    },
    {
      "fullUrl": "urn:uuid:58398fef-d0a9-4f52-9528-009beb3e473b",
      "resource": {
        "resourceType": "Specimen",
        "id": "58398fef-d0a9-4f52-9528-009beb3e473b",
        "meta": {
          "profile": [
            "http://hl7.eu/fhir/laboratory/StructureDefinition/Specimen-eu-lab"
          ]
        },
        "collection": {
          "collectedDateTime": "2019-03-06"
        },
        "text": {
          "status": "generated",
          "div": "<div xmlns=\"http://www.w3.org/1999/xhtml\"><table class=\"hl7__eu__lab__report\"><tr><th>Specimen</th><th>Collection Date</th></tr><tr><td>Whole blood specimen (specimen)</td><td><span class=\"nb\">06-Mar-2019</span></td></tr></table></div>"
        },
        "type": {
          "coding": [
            {
              "code": "258580003",
              "system": "http://snomed.info/sct",
              "display": "Whole blood specimen (specimen)"
            }
          ]
        }
      }
    },
    {
      "fullUrl": "urn:uuid:e045dd8d-4d80-45b8-b281-0d68f9bfab5c",
      "resource": {
        "resourceType": "Observation",
        "id": "e045dd8d-4d80-45b8-b281-0d68f9bfab5c",
        "meta": {
          "profile": [
            "http://hl7.eu/fhir/laboratory/StructureDefinition/Observation-resultslab-eu-lab"
          ]
        },
        "performer": [
          {
            "display": "The Central European Lab"
          }
        ],
        "category": [
          {
            "coding": [
              {
                "system": "http://terminology.hl7.org/CodeSystem/observation-category",
                "code": "laboratory"
              }
            ]
          }
        ],
        "code": {
          "coding": [
            {
              "code": "2345-7",
              "system": "http://loinc.org",
              "display": "Glucose [Mass/volume] in Serum or Plasma"
            }
          ],
          "text": "Glucose [Mass/volume] in Serum or Plasma"
        },
        "valueQuantity": {
          "system": "http://unitsofmeasure.org",
          "value": 64.7,
          "unit": "mg/dL",
          "code": "mg/dL"
        },
        "referenceRange": [
          {
            "low": {
              "value": 70,
              "code": "mg/dL",
              "system": "http://unitsofmeasure.org"
            }
          },
          {
            "high": {
              "value": 140,
              "code": "mg/dL",
              "system": "http://unitsofmeasure.org"
            }
          }
        ],
        "interpretation": [
          {
            "coding": [
              {
                "code": "L",
                "system": "http://terminology.hl7.org/CodeSystem/v3-ObservationInterpretation",
                "display": "Low"
              }
            ]
          }
        ],
        "text": {
          "status": "generated",
          "div": "<div xmlns=\"http://www.w3.org/1999/xhtml\"><table class=\"hl7__eu__lab__report\"><tr><th>Test</th><th>06-Mar-2019</th><th>Reference&#xA0;Range</th><th>Unit</th></tr><tr><td>Glucose [Mass/volume] in Serum or Plasma</td><td>64.7</td><td>70 - 140</td><td>L</td><td>mg/dL</td></tr></table></div>"
        },
        "status": "final",
        "subject": {
          "reference": "urn:uuid:f63aaeb7-d5f6-49c4-bbcd-ed37fc55481c",
          "display": "Θεμιστοκλής Λιναρδάκη"
        },
        "effectiveDateTime": "2019-03-06T06:16:00Z",
        "specimen": {
          "reference": "urn:uuid:5810f767-9453-4f7f-9df1-2a8bccc84cac"
        }
      }
    },
    {
      "fullUrl": "urn:uuid:ad5b3813-5a02-470d-9b32-d22f62f30728",
      "resource": {
        "resourceType": "Observation",
        "id": "ad5b3813-5a02-470d-9b32-d22f62f30728",
        "meta": {
          "profile": [
            "http://hl7.eu/fhir/laboratory/StructureDefinition/Observation-resultslab-eu-lab"
          ]
        },
        "performer": [
          {
            "display": "The Central European Lab"
          }
        ],
        "category": [
          {
            "coding": [
              {
                "system": "http://terminology.hl7.org/CodeSystem/observation-category",
                "code": "laboratory"
              }
            ]
          }
        ],
        "code": {
          "coding": [
            {
              "code": "3094-0",
              "system": "http://loinc.org",
              "display": "Urea nitrogen [Mass/volume] in Serum or Plasma"
            }
          ],
          "text": "Urea nitrogen [Mass/volume] in Serum or Plasma"
        },
        "valueQuantity": {
          "system": "http://unitsofmeasure.org",
          "value": 16.7,
          "unit": "mg/dL",
          "code": "mg/dL"
        },
        "referenceRange": [
          {
            "low": {
              "value": 7,
              "code": "mg/dL",
              "system": "http://unitsofmeasure.org"
            }
          },
          {
            "high": {
              "value": 20,
              "code": "mg/dL",
              "system": "http://unitsofmeasure.org"
            }
          }
        ],
        "text": {
          "status": "generated",
          "div": "<div xmlns=\"http://www.w3.org/1999/xhtml\"><table class=\"hl7__eu__lab__report\"><tr><th>Test</th><th>06-Mar-2019</th><th>Reference&#xA0;Range</th><th>Unit</th></tr><tr><td>Urea nitrogen [Mass/volume] in Serum or Plasma</td><td>16.7</td><td>7 - 20</td><td></td><td>mg/dL</td></tr></table></div>"
        },
        "status": "final",
        "subject": {
          "reference": "urn:uuid:f63aaeb7-d5f6-49c4-bbcd-ed37fc55481c",
          "display": "Θεμιστοκλής Λιναρδάκη"
        },
        "effectiveDateTime": "2019-03-06T06:16:00Z",
        "specimen": {
          "reference": "urn:uuid:5810f767-9453-4f7f-9df1-2a8bccc84cac"
        }
      }
    },
    {
      "fullUrl": "urn:uuid:af5bfed0-59ac-44c2-95c5-a0b0421f69c4",
      "resource": {
        "resourceType": "Observation",
        "id": "af5bfed0-59ac-44c2-95c5-a0b0421f69c4",
        "meta": {
          "profile": [
            "http://hl7.eu/fhir/laboratory/StructureDefinition/Observation-resultslab-eu-lab"
          ]
        },
        "performer": [
          {
            "display": "The Central European Lab"
          }
        ],
        "category": [
          {
            "coding": [
              {
                "system": "http://terminology.hl7.org/CodeSystem/observation-category",
                "code": "laboratory"
              }
            ]
          }
        ],
        "code": {
          "coding": [
            {
              "code": "2160-0",
              "system": "http://loinc.org",
              "display": "Creatinine [Mass/volume] in Serum or Plasma"
            }
          ],
          "text": "Creatinine [Mass/volume] in Serum or Plasma"
        },
        "valueQuantity": {
          "system": "http://unitsofmeasure.org",
          "value": 2.1,
          "unit": "mg/dL",
          "code": "mg/dL"
        },
        "referenceRange": [
          {
            "low": {
              "value": 0.9,
              "code": "mg/dL",
              "system": "http://unitsofmeasure.org"
            }
          },
          {
            "high": {
              "value": 1.3,
              "code": "mg/dL",
              "system": "http://unitsofmeasure.org"
            }
          }
        ],
        "interpretation": [
          {
            "coding": [
              {
                "code": "H",
                "system": "http://terminology.hl7.org/CodeSystem/v3-ObservationInterpretation",
                "display": "High"
              }
            ]
          }
        ],
        "text": {
          "status": "generated",
          "div": "<div xmlns=\"http://www.w3.org/1999/xhtml\"><table class=\"hl7__eu__lab__report\"><tr><th>Test</th><th>06-Mar-2019</th><th>Reference&#xA0;Range</th><th>Unit</th></tr><tr><td>Creatinine [Mass/volume] in Serum or Plasma</td><td>2.1</td><td>0.9 - 1.3</td><td>H</td><td>mg/dL</td></tr></table></div>"
        },
        "status": "final",
        "subject": {
          "reference": "urn:uuid:f63aaeb7-d5f6-49c4-bbcd-ed37fc55481c",
          "display": "Θεμιστοκλής Λιναρδάκη"
        },
        "effectiveDateTime": "2019-03-06T06:16:00Z",
        "specimen": {
          "reference": "urn:uuid:5810f767-9453-4f7f-9df1-2a8bccc84cac"
        }
      }
    },
    {
      "fullUrl": "urn:uuid:39803a17-c042-4bb2-b7fb-989e4f4e8eb6",
      "resource": {
        "resourceType": "Observation",
        "id": "39803a17-c042-4bb2-b7fb-989e4f4e8eb6",
        "meta": {
          "profile": [
            "http://hl7.eu/fhir/laboratory/StructureDefinition/Observation-resultslab-eu-lab"
          ]
        },
        "performer": [
          {
            "display": "The Central European Lab"
          }
        ],
        "category": [
          {
            "coding": [
              {
                "system": "http://terminology.hl7.org/CodeSystem/observation-category",
                "code": "laboratory"
              }
            ]
          }
        ],
        "code": {
          "coding": [
            {
              "code": "17861-6",
              "system": "http://loinc.org",
              "display": "Calcium [Mass/volume] in Serum or Plasma"
            }
          ],
          "text": "Calcium [Mass/volume] in Serum or Plasma"
        },
        "valueQuantity": {
          "system": "http://unitsofmeasure.org",
          "value": 8.5,
          "unit": "mg/dL",
          "code": "mg/dL"
        },
        "referenceRange": [
          {
            "low": {
              "value": 8.5,
              "code": "mg/dL",
              "system": "http://unitsofmeasure.org"
            }
          },
          {
            "high": {
              "value": 10.5,
              "code": "mg/dL",
              "system": "http://unitsofmeasure.org"
            }
          }
        ],
        "text": {
          "status": "generated",
          "div": "<div xmlns=\"http://www.w3.org/1999/xhtml\"><table class=\"hl7__eu__lab__report\"><tr><th>Test</th><th>06-Mar-2019</th><th>Reference&#xA0;Range</th><th>Unit</th></tr><tr><td>Calcium [Mass/volume] in Serum or Plasma</td><td>8.5</td><td>8.5 - 10.5</td><td></td><td>mg/dL</td></tr></table></div>"
        },
        "status": "final",
        "subject": {
          "reference": "urn:uuid:f63aaeb7-d5f6-49c4-bbcd-ed37fc55481c",
          "display": "Θεμιστοκλής Λιναρδάκη"
        },
        "effectiveDateTime": "2019-03-06T06:16:00Z",
        "specimen": {
          "reference": "urn:uuid:5810f767-9453-4f7f-9df1-2a8bccc84cac"
        }
      }
    },
    {
      "fullUrl": "urn:uuid:367ff762-0c34-48f1-994a-2aacca80dd52",
      "resource": {
        "resourceType": "Observation",
        "id": "367ff762-0c34-48f1-994a-2aacca80dd52",
        "meta": {
          "profile": [
            "http://hl7.eu/fhir/laboratory/StructureDefinition/Observation-resultslab-eu-lab"
          ]
        },
        "performer": [
          {
            "display": "The Central European Lab"
          }
        ],
        "category": [
          {
            "coding": [
              {
                "system": "http://terminology.hl7.org/CodeSystem/observation-category",
                "code": "laboratory"
              }
            ]
          }
        ],
        "code": {
          "coding": [
            {
              "code": "2951-2",
              "system": "http://loinc.org",
              "display": "Sodium [Moles/volume] in Serum or Plasma"
            }
          ],
          "text": "Sodium [Moles/volume] in Serum or Plasma"
        },
        "valueQuantity": {
          "system": "http://unitsofmeasure.org",
          "value": 143.2,
          "unit": "mmol/L",
          "code": "mmol/L"
        },
        "referenceRange": [
          {
            "low": {
              "value": 135,
              "code": "mmol/L",
              "system": "http://unitsofmeasure.org"
            }
          },
          {
            "high": {
              "value": 145,
              "code": "mmol/L",
              "system": "http://unitsofmeasure.org"
            }
          }
        ],
        "text": {
          "status": "generated",
          "div": "<div xmlns=\"http://www.w3.org/1999/xhtml\"><table class=\"hl7__eu__lab__report\"><tr><th>Test</th><th>06-Mar-2019</th><th>Reference&#xA0;Range</th><th>Unit</th></tr><tr><td>Sodium [Moles/volume] in Serum or Plasma</td><td>143.2</td><td>135 - 145</td><td></td><td>mmol/L</td></tr></table></div>"
        },
        "status": "final",
        "subject": {
          "reference": "urn:uuid:f63aaeb7-d5f6-49c4-bbcd-ed37fc55481c",
          "display": "Θεμιστοκλής Λιναρδάκη"
        },
        "effectiveDateTime": "2019-03-06T06:16:00Z",
        "specimen": {
          "reference": "urn:uuid:5810f767-9453-4f7f-9df1-2a8bccc84cac"
        }
      }
    },
    {
      "fullUrl": "urn:uuid:88d464f7-41ae-4c96-8377-d36db7f88fec",
      "resource": {
        "resourceType": "Observation",
        "id": "88d464f7-41ae-4c96-8377-d36db7f88fec",
        "meta": {
          "profile": [
            "http://hl7.eu/fhir/laboratory/StructureDefinition/Observation-resultslab-eu-lab"
          ]
        },
        "performer": [
          {
            "display": "The Central European Lab"
          }
        ],
        "category": [
          {
            "coding": [
              {
                "system": "http://terminology.hl7.org/CodeSystem/observation-category",
                "code": "laboratory"
              }
            ]
          }
        ],
        "code": {
          "coding": [
            {
              "code": "2823-3",
              "system": "http://loinc.org",
              "display": "Potassium [Moles/volume] in Serum or Plasma"
            }
          ],
          "text": "Potassium [Moles/volume] in Serum or Plasma"
        },
        "valueQuantity": {
          "system": "http://unitsofmeasure.org",
          "value": 4.8,
          "unit": "mmol/L",
          "code": "mmol/L"
        },
        "referenceRange": [
          {
            "low": {
              "value": 3.5,
              "code": "mmol/L",
              "system": "http://unitsofmeasure.org"
            }
          },
          {
            "high": {
              "value": 5,
              "code": "mmol/L",
              "system": "http://unitsofmeasure.org"
            }
          }
        ],
        "text": {
          "status": "generated",
          "div": "<div xmlns=\"http://www.w3.org/1999/xhtml\"><table class=\"hl7__eu__lab__report\"><tr><th>Test</th><th>06-Mar-2019</th><th>Reference&#xA0;Range</th><th>Unit</th></tr><tr><td>Potassium [Moles/volume] in Serum or Plasma</td><td>4.8</td><td>3.5 - 5</td><td></td><td>mmol/L</td></tr></table></div>"
        },
        "status": "final",
        "subject": {
          "reference": "urn:uuid:f63aaeb7-d5f6-49c4-bbcd-ed37fc55481c",
          "display": "Θεμιστοκλής Λιναρδάκη"
        },
        "effectiveDateTime": "2019-03-06T06:16:00Z",
        "specimen": {
          "reference": "urn:uuid:5810f767-9453-4f7f-9df1-2a8bccc84cac"
        }
      }
    },
    {
      "fullUrl": "urn:uuid:6fd9b5e9-be7a-4de6-9690-73951119aba7",
      "resource": {
        "resourceType": "Observation",
        "id": "6fd9b5e9-be7a-4de6-9690-73951119aba7",
        "meta": {
          "profile": [
            "http://hl7.eu/fhir/laboratory/StructureDefinition/Observation-resultslab-eu-lab"
          ]
        },
        "performer": [
          {
            "display": "The Central European Lab"
          }
        ],
        "category": [
          {
            "coding": [
              {
                "system": "http://terminology.hl7.org/CodeSystem/observation-category",
                "code": "laboratory"
              }
            ]
          }
        ],
        "code": {
          "coding": [
            {
              "code": "2075-0",
              "system": "http://loinc.org",
              "display": "Chloride [Moles/volume] in Serum or Plasma"
            }
          ],
          "text": "Chloride [Moles/volume] in Serum or Plasma"
        },
        "valueQuantity": {
          "system": "http://unitsofmeasure.org",
          "value": 110.3,
          "unit": "mmol/L",
          "code": "mmol/L"
        },
        "referenceRange": [
          {
            "low": {
              "value": 98,
              "code": "mmol/L",
              "system": "http://unitsofmeasure.org"
            }
          },
          {
            "high": {
              "value": 108,
              "code": "mmol/L",
              "system": "http://unitsofmeasure.org"
            }
          }
        ],
        "interpretation": [
          {
            "coding": [
              {
                "code": "H",
                "system": "http://terminology.hl7.org/CodeSystem/v3-ObservationInterpretation",
                "display": "High"
              }
            ]
          }
        ],
        "text": {
          "status": "generated",
          "div": "<div xmlns=\"http://www.w3.org/1999/xhtml\"><table class=\"hl7__eu__lab__report\"><tr><th>Test</th><th>06-Mar-2019</th><th>Reference&#xA0;Range</th><th>Unit</th></tr><tr><td>Chloride [Moles/volume] in Serum or Plasma</td><td>110.3</td><td>98 - 108</td><td>H</td><td>mmol/L</td></tr></table></div>"
        },
        "status": "final",
        "subject": {
          "reference": "urn:uuid:f63aaeb7-d5f6-49c4-bbcd-ed37fc55481c",
          "display": "Θεμιστοκλής Λιναρδάκη"
        },
        "effectiveDateTime": "2019-03-06T06:16:00Z",
        "specimen": {
          "reference": "urn:uuid:5810f767-9453-4f7f-9df1-2a8bccc84cac"
        }
      }
    },
    {
      "fullUrl": "urn:uuid:0f199c67-4668-484f-b39b-941d4a76acf2",
      "resource": {
        "resourceType": "Observation",
        "id": "0f199c67-4668-484f-b39b-941d4a76acf2",
        "meta": {
          "profile": [
            "http://hl7.eu/fhir/laboratory/StructureDefinition/Observation-resultslab-eu-lab"
          ]
        },
        "performer": [
          {
            "display": "The Central European Lab"
          }
        ],
        "category": [
          {
            "coding": [
              {
                "system": "http://terminology.hl7.org/CodeSystem/observation-category",
                "code": "laboratory"
              }
            ]
          }
        ],
        "code": {
          "coding": [
            {
              "code": "2028-9",
              "system": "http://loinc.org",
              "display": "Carbon dioxide, total [Moles/volume] in Serum or Plasma"
            }
          ],
          "text": "Carbon dioxide, total [Moles/volume] in Serum or Plasma"
        },
        "valueQuantity": {
          "system": "http://unitsofmeasure.org",
          "value": 24.1,
          "unit": "mmol/L",
          "code": "mmol/L"
        },
        "referenceRange": [
          {
            "low": {
              "value": 22,
              "code": "mmol/L",
              "system": "http://unitsofmeasure.org"
            }
          },
          {
            "high": {
              "value": 29,
              "code": "mmol/L",
              "system": "http://unitsofmeasure.org"
            }
          }
        ],
        "text": {
          "status": "generated",
          "div": "<div xmlns=\"http://www.w3.org/1999/xhtml\"><table class=\"hl7__eu__lab__report\"><tr><th>Test</th><th>06-Mar-2019</th><th>Reference&#xA0;Range</th><th>Unit</th></tr><tr><td>Carbon dioxide, total [Moles/volume] in Serum or Plasma</td><td>24.1</td><td>22 - 29</td><td></td><td>mmol/L</td></tr></table></div>"
        },
        "status": "final",
        "subject": {
          "reference": "urn:uuid:f63aaeb7-d5f6-49c4-bbcd-ed37fc55481c",
          "display": "Θεμιστοκλής Λιναρδάκη"
        },
        "effectiveDateTime": "2019-03-06T06:16:00Z",
        "specimen": {
          "reference": "urn:uuid:5810f767-9453-4f7f-9df1-2a8bccc84cac"
        }
      }
    },
    {
      "fullUrl": "urn:uuid:e321cd20-3761-4d85-8023-e5c8bd1aeb55",
      "resource": {
        "resourceType": "Observation",
        "id": "e321cd20-3761-4d85-8023-e5c8bd1aeb55",
        "meta": {
          "profile": [
            "http://hl7.eu/fhir/laboratory/StructureDefinition/Observation-resultslab-eu-lab"
          ]
        },
        "performer": [
          {
            "display": "The Central European Lab"
          }
        ],
        "category": [
          {
            "coding": [
              {
                "system": "http://terminology.hl7.org/CodeSystem/observation-category",
                "code": "laboratory"
              }
            ]
          }
        ],
        "code": {
          "coding": [
            {
              "code": "5767-9",
              "system": "http://loinc.org",
              "display": "Appearance of Urine"
            }
          ],
          "text": "Appearance of Urine"
        },
        "text": {
          "status": "generated",
          "div": "<div xmlns=\"http://www.w3.org/1999/xhtml\"><table class=\"hl7__eu__lab__report\"><tr><th>Test</th><th>06-Mar-2019</th><th>Reference&#xA0;Range</th><th>Unit</th></tr><tr><td>Appearance of Urine</td></tr></table></div>"
        },
        "status": "final",
        "subject": {
          "reference": "urn:uuid:f63aaeb7-d5f6-49c4-bbcd-ed37fc55481c",
          "display": "Θεμιστοκλής Λιναρδάκη"
        },
        "effectiveDateTime": "2019-03-06T06:16:00Z",
        "specimen": {
          "reference": "urn:uuid:3901a45d-c190-4fe6-9efa-5f864764b2a9"
        }
      }
    },
    {
      "fullUrl": "urn:uuid:fc50eac9-8ffe-4317-b6f4-0399a3e112db",
      "resource": {
        "resourceType": "Observation",
        "id": "fc50eac9-8ffe-4317-b6f4-0399a3e112db",
        "meta": {
          "profile": [
            "http://hl7.eu/fhir/laboratory/StructureDefinition/Observation-resultslab-eu-lab"
          ]
        },
        "performer": [
          {
            "display": "The Central European Lab"
          }
        ],
        "category": [
          {
            "coding": [
              {
                "system": "http://terminology.hl7.org/CodeSystem/observation-category",
                "code": "laboratory"
              }
            ]
          }
        ],
        "code": {
          "coding": [
            {
              "code": "34533-0",
              "system": "http://loinc.org",
              "display": "Odor of Urine"
            }
          ],
          "text": "Odor of Urine"
        },
        "text": {
          "status": "generated",
          "div": "<div xmlns=\"http://www.w3.org/1999/xhtml\"><table class=\"hl7__eu__lab__report\"><tr><th>Test</th><th>06-Mar-2019</th><th>Reference&#xA0;Range</th><th>Unit</th></tr><tr><td>Odor of Urine</td></tr></table></div>"
        },
        "status": "final",
        "subject": {
          "reference": "urn:uuid:f63aaeb7-d5f6-49c4-bbcd-ed37fc55481c",
          "display": "Θεμιστοκλής Λιναρδάκη"
        },
        "effectiveDateTime": "2019-03-06T06:16:00Z",
        "specimen": {
          "reference": "urn:uuid:3901a45d-c190-4fe6-9efa-5f864764b2a9"
        }
      }
    },
    {
      "fullUrl": "urn:uuid:684bc3e9-80ed-41cf-8259-cde1cd7444db",
      "resource": {
        "resourceType": "Observation",
        "id": "684bc3e9-80ed-41cf-8259-cde1cd7444db",
        "meta": {
          "profile": [
            "http://hl7.eu/fhir/laboratory/StructureDefinition/Observation-resultslab-eu-lab"
          ]
        },
        "performer": [
          {
            "display": "The Central European Lab"
          }
        ],
        "category": [
          {
            "coding": [
              {
                "system": "http://terminology.hl7.org/CodeSystem/observation-category",
                "code": "laboratory"
              }
            ]
          }
        ],
        "code": {
          "coding": [
            {
              "code": "32167-9",
              "system": "http://loinc.org",
              "display": "Clarity of Urine"
            }
          ],
          "text": "Clarity of Urine"
        },
        "text": {
          "status": "generated",
          "div": "<div xmlns=\"http://www.w3.org/1999/xhtml\"><table class=\"hl7__eu__lab__report\"><tr><th>Test</th><th>06-Mar-2019</th><th>Reference&#xA0;Range</th><th>Unit</th></tr><tr><td>Clarity of Urine</td></tr></table></div>"
        },
        "status": "final",
        "subject": {
          "reference": "urn:uuid:f63aaeb7-d5f6-49c4-bbcd-ed37fc55481c",
          "display": "Θεμιστοκλής Λιναρδάκη"
        },
        "effectiveDateTime": "2019-03-06T06:16:00Z",
        "specimen": {
          "reference": "urn:uuid:3901a45d-c190-4fe6-9efa-5f864764b2a9"
        }
      }
    },
    {
      "fullUrl": "urn:uuid:14c8a6c3-7f53-4719-ad64-ac8495e2b733",
      "resource": {
        "resourceType": "Observation",
        "id": "14c8a6c3-7f53-4719-ad64-ac8495e2b733",
        "meta": {
          "profile": [
            "http://hl7.eu/fhir/laboratory/StructureDefinition/Observation-resultslab-eu-lab"
          ]
        },
        "performer": [
          {
            "display": "The Central European Lab"
          }
        ],
        "category": [
          {
            "coding": [
              {
                "system": "http://terminology.hl7.org/CodeSystem/observation-category",
                "code": "laboratory"
              }
            ]
          }
        ],
        "code": {
          "coding": [
            {
              "code": "5778-6",
              "system": "http://loinc.org",
              "display": "Color of Urine"
            }
          ],
          "text": "Color of Urine"
        },
        "text": {
          "status": "generated",
          "div": "<div xmlns=\"http://www.w3.org/1999/xhtml\"><table class=\"hl7__eu__lab__report\"><tr><th>Test</th><th>06-Mar-2019</th><th>Reference&#xA0;Range</th><th>Unit</th></tr><tr><td>Color of Urine</td></tr></table></div>"
        },
        "status": "final",
        "subject": {
          "reference": "urn:uuid:f63aaeb7-d5f6-49c4-bbcd-ed37fc55481c",
          "display": "Θεμιστοκλής Λιναρδάκη"
        },
        "effectiveDateTime": "2019-03-06T06:16:00Z",
        "specimen": {
          "reference": "urn:uuid:3901a45d-c190-4fe6-9efa-5f864764b2a9"
        }
      }
    },
    {
      "fullUrl": "urn:uuid:343f689d-0fe5-496a-a756-e34e9a41cd27",
      "resource": {
        "resourceType": "Observation",
        "id": "343f689d-0fe5-496a-a756-e34e9a41cd27",
        "meta": {
          "profile": [
            "http://hl7.eu/fhir/laboratory/StructureDefinition/Observation-resultslab-eu-lab"
          ]
        },
        "performer": [
          {
            "display": "The Central European Lab"
          }
        ],
        "category": [
          {
            "coding": [
              {
                "system": "http://terminology.hl7.org/CodeSystem/observation-category",
                "code": "laboratory"
              }
            ]
          }
        ],
        "code": {
          "coding": [
            {
              "code": "5792-7",
              "system": "http://loinc.org",
              "display": "Glucose [Mass/volume] in Urine by Test strip"
            }
          ],
          "text": "Glucose [Mass/volume] in Urine by Test strip"
        },
        "valueQuantity": {
          "system": "http://unitsofmeasure.org",
          "value": 0.6,
          "unit": "mg/dL",
          "code": "mg/dL"
        },
        "referenceRange": [
          {
            "low": {
              "value": 0,
              "code": "mg/dL",
              "system": "http://unitsofmeasure.org"
            }
          },
          {
            "high": {
              "value": 0.8,
              "code": "mg/dL",
              "system": "http://unitsofmeasure.org"
            }
          }
        ],
        "text": {
          "status": "generated",
          "div": "<div xmlns=\"http://www.w3.org/1999/xhtml\"><table class=\"hl7__eu__lab__report\"><tr><th>Test</th><th>06-Mar-2019</th><th>Reference&#xA0;Range</th><th>Unit</th></tr><tr><td>Glucose [Mass/volume] in Urine by Test strip</td><td>0.6</td><td>0 - 0.8</td><td></td><td>mg/dL</td></tr></table></div>"
        },
        "status": "final",
        "subject": {
          "reference": "urn:uuid:f63aaeb7-d5f6-49c4-bbcd-ed37fc55481c",
          "display": "Θεμιστοκλής Λιναρδάκη"
        },
        "effectiveDateTime": "2019-03-06T06:16:00Z",
        "specimen": {
          "reference": "urn:uuid:3901a45d-c190-4fe6-9efa-5f864764b2a9"
        }
      }
    },
    {
      "fullUrl": "urn:uuid:c6e0ff69-e4a2-4283-853e-4dc71bbd2137",
      "resource": {
        "resourceType": "Observation",
        "id": "c6e0ff69-e4a2-4283-853e-4dc71bbd2137",
        "meta": {
          "profile": [
            "http://hl7.eu/fhir/laboratory/StructureDefinition/Observation-resultslab-eu-lab"
          ]
        },
        "performer": [
          {
            "display": "The Central European Lab"
          }
        ],
        "category": [
          {
            "coding": [
              {
                "system": "http://terminology.hl7.org/CodeSystem/observation-category",
                "code": "laboratory"
              }
            ]
          }
        ],
        "code": {
          "coding": [
            {
              "code": "25428-4",
              "system": "http://loinc.org",
              "display": "Glucose [Presence] in Urine by Test strip"
            }
          ],
          "text": "Glucose [Presence] in Urine by Test strip"
        },
        "text": {
          "status": "generated",
          "div": "<div xmlns=\"http://www.w3.org/1999/xhtml\"><table class=\"hl7__eu__lab__report\"><tr><th>Test</th><th>06-Mar-2019</th><th>Reference&#xA0;Range</th><th>Unit</th></tr><tr><td>Glucose [Presence] in Urine by Test strip</td></tr></table></div>"
        },
        "status": "final",
        "subject": {
          "reference": "urn:uuid:f63aaeb7-d5f6-49c4-bbcd-ed37fc55481c",
          "display": "Θεμιστοκλής Λιναρδάκη"
        },
        "effectiveDateTime": "2019-03-06T06:16:00Z",
        "specimen": {
          "reference": "urn:uuid:3901a45d-c190-4fe6-9efa-5f864764b2a9"
        }
      }
    },
    {
      "fullUrl": "urn:uuid:3baa8387-192f-43d1-a2ce-21025cf0430a",
      "resource": {
        "resourceType": "Observation",
        "id": "3baa8387-192f-43d1-a2ce-21025cf0430a",
        "meta": {
          "profile": [
            "http://hl7.eu/fhir/laboratory/StructureDefinition/Observation-resultslab-eu-lab"
          ]
        },
        "performer": [
          {
            "display": "The Central European Lab"
          }
        ],
        "category": [
          {
            "coding": [
              {
                "system": "http://terminology.hl7.org/CodeSystem/observation-category",
                "code": "laboratory"
              }
            ]
          }
        ],
        "code": {
          "coding": [
            {
              "code": "20505-4",
              "system": "http://loinc.org",
              "display": "Bilirubin.total [Mass/volume] in Urine by Test strip"
            }
          ],
          "text": "Bilirubin.total [Mass/volume] in Urine by Test strip"
        },
        "valueQuantity": {
          "system": "http://unitsofmeasure.org",
          "value": 1,
          "unit": "mg/dL",
          "code": "mg/dL"
        },
        "referenceRange": [
          {
            "low": {
              "value": 0.2,
              "code": "mg/dL",
              "system": "http://unitsofmeasure.org"
            }
          },
          {
            "high": {
              "value": 1,
              "code": "mg/dL",
              "system": "http://unitsofmeasure.org"
            }
          }
        ],
        "text": {
          "status": "generated",
          "div": "<div xmlns=\"http://www.w3.org/1999/xhtml\"><table class=\"hl7__eu__lab__report\"><tr><th>Test</th><th>06-Mar-2019</th><th>Reference&#xA0;Range</th><th>Unit</th></tr><tr><td>Bilirubin.total [Mass/volume] in Urine by Test strip</td><td>1.0</td><td>0.2 - 1</td><td></td><td>mg/dL</td></tr></table></div>"
        },
        "status": "final",
        "subject": {
          "reference": "urn:uuid:f63aaeb7-d5f6-49c4-bbcd-ed37fc55481c",
          "display": "Θεμιστοκλής Λιναρδάκη"
        },
        "effectiveDateTime": "2019-03-06T06:16:00Z",
        "specimen": {
          "reference": "urn:uuid:3901a45d-c190-4fe6-9efa-5f864764b2a9"
        }
      }
    },
    {
      "fullUrl": "urn:uuid:c7142de9-820a-477b-a480-006087c3f01c",
      "resource": {
        "resourceType": "Observation",
        "id": "c7142de9-820a-477b-a480-006087c3f01c",
        "meta": {
          "profile": [
            "http://hl7.eu/fhir/laboratory/StructureDefinition/Observation-resultslab-eu-lab"
          ]
        },
        "performer": [
          {
            "display": "The Central European Lab"
          }
        ],
        "category": [
          {
            "coding": [
              {
                "system": "http://terminology.hl7.org/CodeSystem/observation-category",
                "code": "laboratory"
              }
            ]
          }
        ],
        "code": {
          "coding": [
            {
              "code": "5770-3",
              "system": "http://loinc.org",
              "display": "Bilirubin.total [Presence] in Urine by Test strip"
            }
          ],
          "text": "Bilirubin.total [Presence] in Urine by Test strip"
        },
        "text": {
          "status": "generated",
          "div": "<div xmlns=\"http://www.w3.org/1999/xhtml\"><table class=\"hl7__eu__lab__report\"><tr><th>Test</th><th>06-Mar-2019</th><th>Reference&#xA0;Range</th><th>Unit</th></tr><tr><td>Bilirubin.total [Presence] in Urine by Test strip</td></tr></table></div>"
        },
        "status": "final",
        "subject": {
          "reference": "urn:uuid:f63aaeb7-d5f6-49c4-bbcd-ed37fc55481c",
          "display": "Θεμιστοκλής Λιναρδάκη"
        },
        "effectiveDateTime": "2019-03-06T06:16:00Z",
        "specimen": {
          "reference": "urn:uuid:3901a45d-c190-4fe6-9efa-5f864764b2a9"
        }
      }
    },
    {
      "fullUrl": "urn:uuid:7c1557ea-856b-48df-af18-60bf71eb4c11",
      "resource": {
        "resourceType": "Observation",
        "id": "7c1557ea-856b-48df-af18-60bf71eb4c11",
        "meta": {
          "profile": [
            "http://hl7.eu/fhir/laboratory/StructureDefinition/Observation-resultslab-eu-lab"
          ]
        },
        "performer": [
          {
            "display": "The Central European Lab"
          }
        ],
        "category": [
          {
            "coding": [
              {
                "system": "http://terminology.hl7.org/CodeSystem/observation-category",
                "code": "laboratory"
              }
            ]
          }
        ],
        "code": {
          "coding": [
            {
              "code": "5797-6",
              "system": "http://loinc.org",
              "display": "Ketones [Mass/volume] in Urine by Test strip"
            }
          ],
          "text": "Ketones [Mass/volume] in Urine by Test strip"
        },
        "valueQuantity": {
          "system": "http://unitsofmeasure.org",
          "value": 3.1,
          "unit": "mg/dL",
          "code": "mg/dL"
        },
        "referenceRange": [
          {
            "low": {
              "value": 0,
              "code": "mg/dL",
              "system": "http://unitsofmeasure.org"
            }
          },
          {
            "high": {
              "value": 5,
              "code": "mg/dL",
              "system": "http://unitsofmeasure.org"
            }
          }
        ],
        "text": {
          "status": "generated",
          "div": "<div xmlns=\"http://www.w3.org/1999/xhtml\"><table class=\"hl7__eu__lab__report\"><tr><th>Test</th><th>06-Mar-2019</th><th>Reference&#xA0;Range</th><th>Unit</th></tr><tr><td>Ketones [Mass/volume] in Urine by Test strip</td><td>3.1</td><td>0 - 5</td><td></td><td>mg/dL</td></tr></table></div>"
        },
        "status": "final",
        "subject": {
          "reference": "urn:uuid:f63aaeb7-d5f6-49c4-bbcd-ed37fc55481c",
          "display": "Θεμιστοκλής Λιναρδάκη"
        },
        "effectiveDateTime": "2019-03-06T06:16:00Z",
        "specimen": {
          "reference": "urn:uuid:3901a45d-c190-4fe6-9efa-5f864764b2a9"
        }
      }
    },
    {
      "fullUrl": "urn:uuid:8217900f-65fb-4c70-ae6b-c51fba7e2a92",
      "resource": {
        "resourceType": "Observation",
        "id": "8217900f-65fb-4c70-ae6b-c51fba7e2a92",
        "meta": {
          "profile": [
            "http://hl7.eu/fhir/laboratory/StructureDefinition/Observation-resultslab-eu-lab"
          ]
        },
        "performer": [
          {
            "display": "The Central European Lab"
          }
        ],
        "category": [
          {
            "coding": [
              {
                "system": "http://terminology.hl7.org/CodeSystem/observation-category",
                "code": "laboratory"
              }
            ]
          }
        ],
        "code": {
          "coding": [
            {
              "code": "2514-8",
              "system": "http://loinc.org",
              "display": "Ketones [Presence] in Urine by Test strip"
            }
          ],
          "text": "Ketones [Presence] in Urine by Test strip"
        },
        "text": {
          "status": "generated",
          "div": "<div xmlns=\"http://www.w3.org/1999/xhtml\"><table class=\"hl7__eu__lab__report\"><tr><th>Test</th><th>06-Mar-2019</th><th>Reference&#xA0;Range</th><th>Unit</th></tr><tr><td>Ketones [Presence] in Urine by Test strip</td></tr></table></div>"
        },
        "status": "final",
        "subject": {
          "reference": "urn:uuid:f63aaeb7-d5f6-49c4-bbcd-ed37fc55481c",
          "display": "Θεμιστοκλής Λιναρδάκη"
        },
        "effectiveDateTime": "2019-03-06T06:16:00Z",
        "specimen": {
          "reference": "urn:uuid:3901a45d-c190-4fe6-9efa-5f864764b2a9"
        }
      }
    },
    {
      "fullUrl": "urn:uuid:1047fc5e-5f4e-4266-82e3-fdce9b61b3e1",
      "resource": {
        "resourceType": "Observation",
        "id": "1047fc5e-5f4e-4266-82e3-fdce9b61b3e1",
        "meta": {
          "profile": [
            "http://hl7.eu/fhir/laboratory/StructureDefinition/Observation-resultslab-eu-lab"
          ]
        },
        "performer": [
          {
            "display": "The Central European Lab"
          }
        ],
        "category": [
          {
            "coding": [
              {
                "system": "http://terminology.hl7.org/CodeSystem/observation-category",
                "code": "laboratory"
              }
            ]
          }
        ],
        "code": {
          "coding": [
            {
              "code": "5811-5",
              "system": "http://loinc.org",
              "display": "Specific gravity of Urine by Test strip"
            }
          ],
          "text": "Specific gravity of Urine by Test strip"
        },
        "valueQuantity": {
          "system": "http://unitsofmeasure.org",
          "value": 1,
          "unit": "{nominal}",
          "code": "{nominal}"
        },
        "referenceRange": [
          {
            "low": {
              "value": 1.005,
              "code": "g/mL",
              "system": "http://unitsofmeasure.org"
            }
          },
          {
            "high": {
              "value": 1.03,
              "code": "g/mL",
              "system": "http://unitsofmeasure.org"
            }
          }
        ],
        "interpretation": [
          {
            "coding": [
              {
                "code": "L",
                "system": "http://terminology.hl7.org/CodeSystem/v3-ObservationInterpretation",
                "display": "Low"
              }
            ]
          }
        ],
        "text": {
          "status": "generated",
          "div": "<div xmlns=\"http://www.w3.org/1999/xhtml\"><table class=\"hl7__eu__lab__report\"><tr><th>Test</th><th>06-Mar-2019</th><th>Reference&#xA0;Range</th><th>Unit</th></tr><tr><td>Specific gravity of Urine by Test strip</td><td>1.0</td><td>1.005 - 1.03</td><td>L</td><td>{nominal}</td></tr></table></div>"
        },
        "status": "final",
        "subject": {
          "reference": "urn:uuid:f63aaeb7-d5f6-49c4-bbcd-ed37fc55481c",
          "display": "Θεμιστοκλής Λιναρδάκη"
        },
        "effectiveDateTime": "2019-03-06T06:16:00Z",
        "specimen": {
          "reference": "urn:uuid:3901a45d-c190-4fe6-9efa-5f864764b2a9"
        }
      }
    },
    {
      "fullUrl": "urn:uuid:fe5464f9-751d-40d3-a797-5bb8ea628057",
      "resource": {
        "resourceType": "Observation",
        "id": "fe5464f9-751d-40d3-a797-5bb8ea628057",
        "meta": {
          "profile": [
            "http://hl7.eu/fhir/laboratory/StructureDefinition/Observation-resultslab-eu-lab"
          ]
        },
        "performer": [
          {
            "display": "The Central European Lab"
          }
        ],
        "category": [
          {
            "coding": [
              {
                "system": "http://terminology.hl7.org/CodeSystem/observation-category",
                "code": "laboratory"
              }
            ]
          }
        ],
        "code": {
          "coding": [
            {
              "code": "5803-2",
              "system": "http://loinc.org",
              "display": "pH of Urine by Test strip"
            }
          ],
          "text": "pH of Urine by Test strip"
        },
        "valueQuantity": {
          "system": "http://unitsofmeasure.org",
          "value": 6.3,
          "unit": "pH",
          "code": "pH"
        },
        "referenceRange": [
          {
            "low": {
              "value": 4.6,
              "code": "pH",
              "system": "http://unitsofmeasure.org"
            }
          },
          {
            "high": {
              "value": 7,
              "code": "pH",
              "system": "http://unitsofmeasure.org"
            }
          }
        ],
        "text": {
          "status": "generated",
          "div": "<div xmlns=\"http://www.w3.org/1999/xhtml\"><table class=\"hl7__eu__lab__report\"><tr><th>Test</th><th>06-Mar-2019</th><th>Reference&#xA0;Range</th><th>Unit</th></tr><tr><td>pH of Urine by Test strip</td><td>6.3</td><td>4.6 - 7</td><td></td><td>pH</td></tr></table></div>"
        },
        "status": "final",
        "subject": {
          "reference": "urn:uuid:f63aaeb7-d5f6-49c4-bbcd-ed37fc55481c",
          "display": "Θεμιστοκλής Λιναρδάκη"
        },
        "effectiveDateTime": "2019-03-06T06:16:00Z",
        "specimen": {
          "reference": "urn:uuid:3901a45d-c190-4fe6-9efa-5f864764b2a9"
        }
      }
    },
    {
      "fullUrl": "urn:uuid:7648f3b9-e91b-406f-8108-0722457a19fa",
      "resource": {
        "resourceType": "Observation",
        "id": "7648f3b9-e91b-406f-8108-0722457a19fa",
        "meta": {
          "profile": [
            "http://hl7.eu/fhir/laboratory/StructureDefinition/Observation-resultslab-eu-lab"
          ]
        },
        "performer": [
          {
            "display": "The Central European Lab"
          }
        ],
        "category": [
          {
            "coding": [
              {
                "system": "http://terminology.hl7.org/CodeSystem/observation-category",
                "code": "laboratory"
              }
            ]
          }
        ],
        "code": {
          "coding": [
            {
              "code": "5804-0",
              "system": "http://loinc.org",
              "display": "Protein [Mass/volume] in Urine by Test strip"
            }
          ],
          "text": "Protein [Mass/volume] in Urine by Test strip"
        },
        "valueQuantity": {
          "system": "http://unitsofmeasure.org",
          "value": 202.5,
          "unit": "mg/dL",
          "code": "mg/dL"
        },
        "referenceRange": [
          {
            "low": {
              "value": 0,
              "code": "mg/dL",
              "system": "http://unitsofmeasure.org"
            }
          },
          {
            "high": {
              "value": 150,
              "code": "mg/dL",
              "system": "http://unitsofmeasure.org"
            }
          }
        ],
        "interpretation": [
          {
            "coding": [
              {
                "code": "H",
                "system": "http://terminology.hl7.org/CodeSystem/v3-ObservationInterpretation",
                "display": "High"
              }
            ]
          }
        ],
        "text": {
          "status": "generated",
          "div": "<div xmlns=\"http://www.w3.org/1999/xhtml\"><table class=\"hl7__eu__lab__report\"><tr><th>Test</th><th>06-Mar-2019</th><th>Reference&#xA0;Range</th><th>Unit</th></tr><tr><td>Protein [Mass/volume] in Urine by Test strip</td><td>202.5</td><td>0 - 150</td><td>H</td><td>mg/dL</td></tr></table></div>"
        },
        "status": "final",
        "subject": {
          "reference": "urn:uuid:f63aaeb7-d5f6-49c4-bbcd-ed37fc55481c",
          "display": "Θεμιστοκλής Λιναρδάκη"
        },
        "effectiveDateTime": "2019-03-06T06:16:00Z",
        "specimen": {
          "reference": "urn:uuid:3901a45d-c190-4fe6-9efa-5f864764b2a9"
        }
      }
    },
    {
      "fullUrl": "urn:uuid:9d7624b8-2dfe-4897-af86-704dd679ceca",
      "resource": {
        "resourceType": "Observation",
        "id": "9d7624b8-2dfe-4897-af86-704dd679ceca",
        "meta": {
          "profile": [
            "http://hl7.eu/fhir/laboratory/StructureDefinition/Observation-resultslab-eu-lab"
          ]
        },
        "performer": [
          {
            "display": "The Central European Lab"
          }
        ],
        "category": [
          {
            "coding": [
              {
                "system": "http://terminology.hl7.org/CodeSystem/observation-category",
                "code": "laboratory"
              }
            ]
          }
        ],
        "code": {
          "coding": [
            {
              "code": "20454-5",
              "system": "http://loinc.org",
              "display": "Protein [Presence] in Urine by Test strip"
            }
          ],
          "text": "Protein [Presence] in Urine by Test strip"
        },
        "text": {
          "status": "generated",
          "div": "<div xmlns=\"http://www.w3.org/1999/xhtml\"><table class=\"hl7__eu__lab__report\"><tr><th>Test</th><th>06-Mar-2019</th><th>Reference&#xA0;Range</th><th>Unit</th></tr><tr><td>Protein [Presence] in Urine by Test strip</td></tr></table></div>"
        },
        "status": "final",
        "subject": {
          "reference": "urn:uuid:f63aaeb7-d5f6-49c4-bbcd-ed37fc55481c",
          "display": "Θεμιστοκλής Λιναρδάκη"
        },
        "effectiveDateTime": "2019-03-06T06:16:00Z",
        "specimen": {
          "reference": "urn:uuid:3901a45d-c190-4fe6-9efa-5f864764b2a9"
        }
      }
    },
    {
      "fullUrl": "urn:uuid:f325c9a5-13f5-4606-aa67-54decd9f0e4e",
      "resource": {
        "resourceType": "Observation",
        "id": "f325c9a5-13f5-4606-aa67-54decd9f0e4e",
        "meta": {
          "profile": [
            "http://hl7.eu/fhir/laboratory/StructureDefinition/Observation-resultslab-eu-lab"
          ]
        },
        "performer": [
          {
            "display": "The Central European Lab"
          }
        ],
        "category": [
          {
            "coding": [
              {
                "system": "http://terminology.hl7.org/CodeSystem/observation-category",
                "code": "laboratory"
              }
            ]
          }
        ],
        "code": {
          "coding": [
            {
              "code": "5802-4",
              "system": "http://loinc.org",
              "display": "Nitrite [Presence] in Urine by Test strip"
            }
          ],
          "text": "Nitrite [Presence] in Urine by Test strip"
        },
        "text": {
          "status": "generated",
          "div": "<div xmlns=\"http://www.w3.org/1999/xhtml\"><table class=\"hl7__eu__lab__report\"><tr><th>Test</th><th>06-Mar-2019</th><th>Reference&#xA0;Range</th><th>Unit</th></tr><tr><td>Nitrite [Presence] in Urine by Test strip</td></tr></table></div>"
        },
        "status": "final",
        "subject": {
          "reference": "urn:uuid:f63aaeb7-d5f6-49c4-bbcd-ed37fc55481c",
          "display": "Θεμιστοκλής Λιναρδάκη"
        },
        "effectiveDateTime": "2019-03-06T06:16:00Z",
        "specimen": {
          "reference": "urn:uuid:3901a45d-c190-4fe6-9efa-5f864764b2a9"
        }
      }
    },
    {
      "fullUrl": "urn:uuid:4185fdc2-35cb-4ebb-a387-8d2c86914a15",
      "resource": {
        "resourceType": "Observation",
        "id": "4185fdc2-35cb-4ebb-a387-8d2c86914a15",
        "meta": {
          "profile": [
            "http://hl7.eu/fhir/laboratory/StructureDefinition/Observation-resultslab-eu-lab"
          ]
        },
        "performer": [
          {
            "display": "The Central European Lab"
          }
        ],
        "category": [
          {
            "coding": [
              {
                "system": "http://terminology.hl7.org/CodeSystem/observation-category",
                "code": "laboratory"
              }
            ]
          }
        ],
        "code": {
          "coding": [
            {
              "code": "5794-3",
              "system": "http://loinc.org",
              "display": "Hemoglobin [Presence] in Urine by Test strip"
            }
          ],
          "text": "Hemoglobin [Presence] in Urine by Test strip"
        },
        "text": {
          "status": "generated",
          "div": "<div xmlns=\"http://www.w3.org/1999/xhtml\"><table class=\"hl7__eu__lab__report\"><tr><th>Test</th><th>06-Mar-2019</th><th>Reference&#xA0;Range</th><th>Unit</th></tr><tr><td>Hemoglobin [Presence] in Urine by Test strip</td></tr></table></div>"
        },
        "status": "final",
        "subject": {
          "reference": "urn:uuid:f63aaeb7-d5f6-49c4-bbcd-ed37fc55481c",
          "display": "Θεμιστοκλής Λιναρδάκη"
        },
        "effectiveDateTime": "2019-03-06T06:16:00Z",
        "specimen": {
          "reference": "urn:uuid:3901a45d-c190-4fe6-9efa-5f864764b2a9"
        }
      }
    },
    {
      "fullUrl": "urn:uuid:d41bd78d-0b8b-4e7c-90ee-91dcbd7e4f34",
      "resource": {
        "resourceType": "Observation",
        "id": "d41bd78d-0b8b-4e7c-90ee-91dcbd7e4f34",
        "meta": {
          "profile": [
            "http://hl7.eu/fhir/laboratory/StructureDefinition/Observation-resultslab-eu-lab"
          ]
        },
        "performer": [
          {
            "display": "The Central European Lab"
          }
        ],
        "category": [
          {
            "coding": [
              {
                "system": "http://terminology.hl7.org/CodeSystem/observation-category",
                "code": "laboratory"
              }
            ]
          }
        ],
        "code": {
          "coding": [
            {
              "code": "5799-2",
              "system": "http://loinc.org",
              "display": "Leukocyte esterase [Presence] in Urine by Test strip"
            }
          ],
          "text": "Leukocyte esterase [Presence] in Urine by Test strip"
        },
        "text": {
          "status": "generated",
          "div": "<div xmlns=\"http://www.w3.org/1999/xhtml\"><table class=\"hl7__eu__lab__report\"><tr><th>Test</th><th>06-Mar-2019</th><th>Reference&#xA0;Range</th><th>Unit</th></tr><tr><td>Leukocyte esterase [Presence] in Urine by Test strip</td></tr></table></div>"
        },
        "status": "final",
        "subject": {
          "reference": "urn:uuid:f63aaeb7-d5f6-49c4-bbcd-ed37fc55481c",
          "display": "Θεμιστοκλής Λιναρδάκη"
        },
        "effectiveDateTime": "2019-03-06T06:16:00Z",
        "specimen": {
          "reference": "urn:uuid:3901a45d-c190-4fe6-9efa-5f864764b2a9"
        }
      }
    },
    {
      "fullUrl": "urn:uuid:de1df36a-44f8-4b8f-a1d8-6e4b08af8457",
      "resource": {
        "resourceType": "Observation",
        "id": "de1df36a-44f8-4b8f-a1d8-6e4b08af8457",
        "meta": {
          "profile": [
            "http://hl7.eu/fhir/laboratory/StructureDefinition/Observation-resultslab-eu-lab"
          ]
        },
        "performer": [
          {
            "display": "The Central European Lab"
          }
        ],
        "category": [
          {
            "coding": [
              {
                "system": "http://terminology.hl7.org/CodeSystem/observation-category",
                "code": "laboratory"
              }
            ]
          }
        ],
        "code": {
          "coding": [
            {
              "code": "4548-4",
              "system": "http://loinc.org",
              "display": "Hemoglobin A1c/Hemoglobin.total in Blood"
            }
          ],
          "text": "Hemoglobin A1c/Hemoglobin.total in Blood"
        },
        "valueQuantity": {
          "system": "http://unitsofmeasure.org",
          "value": 2.9,
          "unit": "%",
          "code": "%"
        },
        "referenceRange": [
          {
            "low": {
              "value": 4.3,
              "code": "%",
              "system": "http://unitsofmeasure.org"
            }
          },
          {
            "high": {
              "value": 6.4,
              "code": "%",
              "system": "http://unitsofmeasure.org"
            }
          }
        ],
        "interpretation": [
          {
            "coding": [
              {
                "code": "L",
                "system": "http://terminology.hl7.org/CodeSystem/v3-ObservationInterpretation",
                "display": "Low"
              }
            ]
          }
        ],
        "text": {
          "status": "generated",
          "div": "<div xmlns=\"http://www.w3.org/1999/xhtml\"><table class=\"hl7__eu__lab__report\"><tr><th>Test</th><th>06-Mar-2019</th><th>Reference&#xA0;Range</th><th>Unit</th></tr><tr><td>Hemoglobin A1c/Hemoglobin.total in Blood</td><td>2.9</td><td>4.3 - 6.4</td><td>L</td><td>%</td></tr></table></div>"
        },
        "status": "final",
        "subject": {
          "reference": "urn:uuid:f63aaeb7-d5f6-49c4-bbcd-ed37fc55481c",
          "display": "Θεμιστοκλής Λιναρδάκη"
        },
        "effectiveDateTime": "2019-03-06T06:16:00Z",
        "specimen": {
          "reference": "urn:uuid:58398fef-d0a9-4f52-9528-009beb3e473b"
        }
      }
    },
    {
      "fullUrl": "urn:uuid:08c62aca-ce9a-45a2-ad6e-6e9a11e7225d",
      "resource": {
        "resourceType": "Device",
        "id": "08c62aca-ce9a-45a2-ad6e-6e9a11e7225d",
        "deviceName": [
          {
            "name": "SYNDERAI Synthetic Generator",
            "type": "manufacturer-name"
          }
        ],
        "version": [
          {
            "value": "5.0"
          }
        ],
        "text": {
          "status": "generated",
          "div": "<div xmlns=\"http://www.w3.org/1999/xhtml\">SYNDERAI Synthetic Generator v5.0</div>"
        },
        "status": "active\"",
        "distinctIdentifier": "synderai-generator-50",
        "manufacturer": "SYNDERAI Project"
      }
    },
    {
      "fullUrl": "urn:uuid:505b753c-b57b-4338-b328-caf6b1ecc492",
      "resource": {
        "resourceType": "Provenance",
        "id": "505b753c-b57b-4338-b328-caf6b1ecc492",
        "target": [
          {
            "reference": "Patient/f63aaeb7-d5f6-49c4-bbcd-ed37fc55481c"
          },
          {
            "reference": "Bundle/4f87017e-e959-43f2-bc36-63a704f97098"
          },
          {
            "reference": "Composition/c276ff96-c733-488e-af86-19929130a3cf"
          },
          {
            "reference": "PractitionerRole/694e4804-cbab-42d2-b344-39980d62a302"
          },
          {
            "reference": "Practitioner/aaf1281c-c58f-43ac-9774-0458c9dad9db"
          },
          {
            "reference": "PractitionerRole/d4152bfd-dae7-4a9f-a6f2-20dd84f4522e"
          },
          {
            "reference": "Organization/e3969111-dc5c-4eba-ab9c-7ef0368c1750"
          }
        ],
        "activity": {
          "text": "Synthetic Example Data Generation"
        },
        "policy": [
          "https://synderai.net/synderai-synthetic-data-policy"
        ],
        "agent": [
          {
            "type": {
              "text": "author"
            },
            "who": {
              "reference": "Device/08c62aca-ce9a-45a2-ad6e-6e9a11e7225d"
            }
          }
        ],
        "reason": [
          {
            "text": "Interoperability Testing and Training (non-clinical use)"
          }
        ],
        "text": {
          "status": "generated",
          "div": "<div xmlns=\"http://www.w3.org/1999/xhtml\">Provenance for SYNDERAI Synthetic Example Data Resource</div>"
        },
        "recorded": "2019-03-06T07:16:00Z"
      }
    },
    {
      "fullUrl": "urn:uuid:694e4804-cbab-42d2-b344-39980d62a302",
      "resource": {
        "resourceType": "PractitionerRole",
        "id": "694e4804-cbab-42d2-b344-39980d62a302",
        "meta": {
          "profile": [
            "http://hl7.eu/fhir/base/StructureDefinition/practitionerRole-eu"
          ]
        },
        "text": {
          "status": "generated",
          "div": "<div xmlns=\"http://www.w3.org/1999/xhtml\">Laboratory Role Id: 694e4804-cbab-42d2-b344-39980d62a302</div>"
        },
        "practitioner": {
          "reference": "urn:uuid:aaf1281c-c58f-43ac-9774-0458c9dad9db"
        }
      }
    },
    {
      "fullUrl": "urn:uuid:aaf1281c-c58f-43ac-9774-0458c9dad9db",
      "resource": {
        "resourceType": "Practitioner",
        "id": "aaf1281c-c58f-43ac-9774-0458c9dad9db",
        "meta": {
          "profile": [
            "http://hl7.eu/fhir/base/StructureDefinition/practitioner-eu"
          ]
        },
        "identifier": [
          {
            "assigner": {
              "display": "HL7 Europe"
            },
            "system": "urn:oid:2.16.840.1.113883.2.51.999",
            "value": "e1e867c1-c6de-47da-863e-7c66c79dd7e6"
          }
        ],
        "name": [
          {
            "prefix": [
              "dr"
            ],
            "given": [
              "Ex"
            ],
            "family": "Ample"
          }
        ],
        "address": [
          {
            "line": [
              "Laboratoire Central Européenne",
              "Boulevard du Jardin Botanique 32"
            ],
            "postalCode": "1000",
            "city": "Brussels",
            "country": "Belgium"
          }
        ],
        "text": {
          "status": "generated",
          "div": "<div xmlns=\"http://www.w3.org/1999/xhtml\">Laboratory: Laboratoire Central Européenne, 1000 Brussels, Belgium</div>"
        }
      }
    }
  ],
  "type": "document",
  "timestamp": "2019-03-06T07:16:00Z"
}
