{
  "resourceType": "Bundle",
  "id": "99052dfc-5ee7-407b-aea1-d7e071df9be9",
  "meta": {
    "profile": [
      "http://hl7.eu/fhir/laboratory/StructureDefinition/Bundle-eu-lab"
    ]
  },
  "identifier": {
    "assigner": {
      "display": "HL7 Europe"
    },
    "system": "urn:oid:2.16.840.1.113883.2.51.999",
    "value": "00c6de20-7fb5-40bb-8efe-ef350d1fe4a6"
  },
  "entry": [
    {
      "fullUrl": "urn:uuid:993be016-140c-4338-84d3-13b364f38a32",
      "resource": {
        "resourceType": "Composition",
        "id": "993be016-140c-4338-84d3-13b364f38a32",
        "meta": {
          "profile": [
            "http://hl7.eu/fhir/laboratory/StructureDefinition/Composition-eu-lab"
          ]
        },
        "identifier": {
          "assigner": {
            "display": "HL7 Europe"
          },
          "system": "urn:oid:2.16.840.1.113883.2.51.999",
          "value": "c3b471b2-e72a-47ed-b1d6-3488b4ed84a5"
        },
        "author": [
          {
            "reference": "urn:uuid:feb98ae4-ecff-4ffb-ad89-ddf0c254d81c"
          }
        ],
        "category": [
          {
            "coding": [
              {
                "code": "26436-6",
                "system": "http://loinc.org",
                "display": "Laboratory studies (set)"
              }
            ]
          }
        ],
        "type": {
          "coding": [
            {
              "code": "11502-2",
              "system": "http://loinc.org",
              "display": "Laboratory report"
            }
          ],
          "text": "Laboratory Report"
        },
        "section": [
          {
            "code": {
              "coding": [
                {
                  "code": "26436-6",
                  "system": "http://loinc.org",
                  "display": "Laboratory studies (set)"
                }
              ],
              "text": "Laboratory studies"
            },
            "section": [
              {
                "code": {
                  "coding": [
                    {
                      "code": "$18719-5",
                      "system": "http://loinc.org",
                      "display": "Chemistry studies (set)"
                    }
                  ],
                  "text": "Chemistry"
                },
                "entry": [
                  {
                    "reference": "urn:uuid:412cbc4c-707e-44b7-b030-6473a22dbf40"
                  },
                  {
                    "reference": "urn:uuid:b99ed203-173c-4281-9a6b-15fe7584fc0a"
                  },
                  {
                    "reference": "urn:uuid:564384c0-2578-441c-bd77-36046a949975"
                  },
                  {
                    "reference": "urn:uuid:013a47e6-71be-4575-ad1e-7efdf1abfd18"
                  },
                  {
                    "reference": "urn:uuid:b61afcd9-7ddd-42ea-b19e-3ed501eb8fff"
                  },
                  {
                    "reference": "urn:uuid:fce61c9d-6d4c-40d1-a62e-1c70ed717aba"
                  },
                  {
                    "reference": "urn:uuid:8a78e4b8-9ab7-4ad2-9901-7a05e88aa5c1"
                  },
                  {
                    "reference": "urn:uuid:300c0b73-3e3b-4f21-9114-af0bce1ffda1"
                  },
                  {
                    "reference": "urn:uuid:6926764e-723d-4ef0-a37f-411189646e04"
                  },
                  {
                    "reference": "urn:uuid:07a03896-ff51-4315-9b82-060ee2ce3593"
                  },
                  {
                    "reference": "urn:uuid:ae9d7d33-1cbd-4d97-b618-6c9911dd715d"
                  },
                  {
                    "reference": "urn:uuid:0e2a225b-9667-48e5-9329-f13d21988b83"
                  },
                  {
                    "reference": "urn:uuid:e550bd0c-7563-4537-90ed-6116a9fec8ef"
                  },
                  {
                    "reference": "urn:uuid:49f29103-0b12-46a6-bdf1-19b0b21ae1ff"
                  },
                  {
                    "reference": "urn:uuid:b46bc6e6-7ac1-41d3-8823-526fd9a0d1db"
                  },
                  {
                    "reference": "urn:uuid:fea5efc7-40da-485f-bb16-64211ae91672"
                  },
                  {
                    "reference": "urn:uuid:9d239dba-bacb-4247-9b1d-4f88ff0c8007"
                  },
                  {
                    "reference": "urn:uuid:50270ae8-2ed3-4c87-a887-6719928b9362"
                  },
                  {
                    "reference": "urn:uuid:94fb2600-5614-4b8d-9578-18b6dfc5eb4b"
                  }
                ],
                "text": {
                  "status": "generated",
                  "div": "<div xmlns=\"http://www.w3.org/1999/xhtml\"><h3>Chemistry</h3><table class=\"hl7__eu__lab__report\"><thead><tr><th>Test</th><th>29-MAR-2021</th><th>Reference&#xA0;Range</th><th>Unit</th></tr></thead><tbody><tr><td>Glucose [Mass/volume] in Blood</td><td>78.0</td><td>70 - 140</td><td>mg/dL</td></tr><tr><td>Urea nitrogen [Mass/volume] in Blood</td><td>7.3</td><td>7 - 20</td><td>mg/dL</td></tr><tr><td>Creatinine [Mass/volume] in Blood</td><td><strong>3.1 H</strong></td><td>0.5 - 1.3</td><td>mg/dL</td></tr><tr><td>Calcium [Mass/volume] in Blood</td><td>8.7</td><td>8.5 - 10.5</td><td>mg/dL</td></tr><tr><td>Sodium [Moles/volume] in Blood</td><td>138.1</td><td>135 - 145</td><td>mmol/L</td></tr><tr><td>Potassium [Moles/volume] in Blood</td><td>4.4</td><td>3.5 - 5.1</td><td>mmol/L</td></tr><tr><td>Chloride [Moles/volume] in Blood</td><td><strong>110.8 H</strong></td><td>98 - 108</td><td>mmol/L</td></tr><tr><td>Carbon dioxide, total [Moles/volume] in Blood</td><td>26.6</td><td>22 - 29</td><td>mmol/L</td></tr><tr><td>Protein [Mass/volume] in Serum or Plasma</td><td>6.5</td><td>6 - 8.2</td><td>g/dL</td></tr><tr><td>Albumin [Mass/volume] in Serum or Plasma</td><td>5.0</td><td>3.5 - 5</td><td>g/dL</td></tr><tr><td>Globulin [Mass/volume] in Serum by calculation</td><td>2.5</td><td>2 - 4</td><td>g/L</td></tr><tr><td>Bilirubin.total [Mass/volume] in Serum or Plasma</td><td><strong>0.2 L</strong></td><td>0.3 - 1.2</td><td>mg/dL</td></tr><tr><td>Alkaline phosphatase [Enzymatic activity/volume] in Serum or Plasma</td><td>62.0</td><td>35 - 141</td><td>U/L</td></tr><tr><td>Alanine aminotransferase [Enzymatic activity/volume] in Serum or Plasma</td><td>20.7</td><td>7 - 60</td><td>U/L</td></tr><tr><td>Aspartate aminotransferase [Enzymatic activity/volume] in Serum or Plasma</td><td>28.8</td><td>10 - 40</td><td>U/L</td></tr><tr><td>Cholesterol [Mass/volume] in Serum or Plasma</td><td>154.5</td><td>0 - 200</td><td>mg/dL</td></tr><tr><td>Triglyceride [Mass/volume] in Serum or Plasma</td><td>175.5</td><td>0 - 199</td><td>mg/dL</td></tr><tr><td>Cholesterol in LDL [Mass/volume] in Serum or Plasma by Direct assay</td><td>110.4</td><td>0 - 130</td><td>mg/dL</td></tr><tr><td>Cholesterol in HDL [Mass/volume] in Serum or Plasma</td><td>47.2</td><td>46 - 77</td><td>mg/dL</td></tr></tbody></table></div>"
                },
                "title": "Chemistry"
              }
            ],
            "title": "Laboratory Report"
          },
          {
            "text": {
              "status": "generated",
              "div": "<div xmlns=\"http://www.w3.org/1999/xhtml\"><h3>Annotation</h3><table class=\"hl7__eu__lab__report\"><tr><th>Conclusion and Recommendations based on this report and previous findings known to us</th></tr><tr><td>Renal function is impaired, as indicated by elevated creatinine and mild hyperchloremia; other electrolytes and metabolic parameters are within normal limits. Liver enzymes and proteins are unremarkable, with a low total bilirubin of unclear clinical significance. Lipid profile is acceptable. Recommend clinical correlation for renal impairment and consideration of underlying causes, especially given the patient&quot;s age.</td></tr></table></div>"
            },
            "code": {
              "coding": [
                {
                  "system": "http://loinc.org",
                  "code": "48767-8",
                  "display": "Annotation comment"
                }
              ]
            },
            "title": "Annotation comment"
          }
        ],
        "status": "final",
        "subject": {
          "reference": "urn:uuid:6b98e02d-7f5d-4671-94ee-4392cba43f88",
          "display": "Marlene Gerlach"
        },
        "date": "2021-03-29T21:24:33Z",
        "title": "Laboratory Report",
        "confidentiality": "N"
      }
    },
    {
      "fullUrl": "urn:uuid:34827729-2f81-4800-a9c2-a4689564b814",
      "resource": {
        "resourceType": "DiagnosticReport",
        "id": "34827729-2f81-4800-a9c2-a4689564b814",
        "meta": {
          "profile": [
            "http://hl7.eu/fhir/laboratory/StructureDefinition/DiagnosticReport-eu-lab"
          ]
        },
        "identifier": [
          {
            "assigner": {
              "display": "HL7 Europe"
            },
            "system": "urn:oid:2.16.840.1.113883.2.51.999",
            "value": "c7bb567d-1204-435a-be93-e351d0bdd0c1"
          }
        ],
        "extension": [
          {
            "url": "http://hl7.org/fhir/5.0/StructureDefinition/extension-DiagnosticReport.composition",
            "valueReference": {
              "reference": "urn:uuid:c3b471b2-e72a-47ed-b1d6-3488b4ed84a5"
            }
          }
        ],
        "category": [
          {
            "coding": [
              {
                "code": "26436-6",
                "system": "http://loinc.org",
                "display": "Laboratory studies (set)"
              }
            ]
          }
        ],
        "specimen": [
          {
            "reference": "urn:uuid:8a71e5a7-6447-4e64-87eb-37aec3bf86de"
          },
          {
            "reference": "urn:uuid:26473279-ed74-4a66-b604-98d0a9749798"
          },
          {
            "reference": "urn:uuid:eca0bcf5-e827-41fd-be3b-ba0e4da7f0c0"
          }
        ],
        "result": [
          {
            "reference": "urn:uuid:412cbc4c-707e-44b7-b030-6473a22dbf40"
          },
          {
            "reference": "urn:uuid:b99ed203-173c-4281-9a6b-15fe7584fc0a"
          },
          {
            "reference": "urn:uuid:564384c0-2578-441c-bd77-36046a949975"
          },
          {
            "reference": "urn:uuid:013a47e6-71be-4575-ad1e-7efdf1abfd18"
          },
          {
            "reference": "urn:uuid:b61afcd9-7ddd-42ea-b19e-3ed501eb8fff"
          },
          {
            "reference": "urn:uuid:fce61c9d-6d4c-40d1-a62e-1c70ed717aba"
          },
          {
            "reference": "urn:uuid:8a78e4b8-9ab7-4ad2-9901-7a05e88aa5c1"
          },
          {
            "reference": "urn:uuid:300c0b73-3e3b-4f21-9114-af0bce1ffda1"
          },
          {
            "reference": "urn:uuid:6926764e-723d-4ef0-a37f-411189646e04"
          },
          {
            "reference": "urn:uuid:07a03896-ff51-4315-9b82-060ee2ce3593"
          },
          {
            "reference": "urn:uuid:ae9d7d33-1cbd-4d97-b618-6c9911dd715d"
          },
          {
            "reference": "urn:uuid:0e2a225b-9667-48e5-9329-f13d21988b83"
          },
          {
            "reference": "urn:uuid:e550bd0c-7563-4537-90ed-6116a9fec8ef"
          },
          {
            "reference": "urn:uuid:49f29103-0b12-46a6-bdf1-19b0b21ae1ff"
          },
          {
            "reference": "urn:uuid:b46bc6e6-7ac1-41d3-8823-526fd9a0d1db"
          },
          {
            "reference": "urn:uuid:fea5efc7-40da-485f-bb16-64211ae91672"
          },
          {
            "reference": "urn:uuid:9d239dba-bacb-4247-9b1d-4f88ff0c8007"
          },
          {
            "reference": "urn:uuid:50270ae8-2ed3-4c87-a887-6719928b9362"
          },
          {
            "reference": "urn:uuid:94fb2600-5614-4b8d-9578-18b6dfc5eb4b"
          }
        ],
        "status": "registered",
        "code": {
          "coding": [
            {
              "code": "11502-2",
              "system": "http://loinc.org",
              "display": "Laboratory report"
            }
          ]
        },
        "subject": {
          "reference": "urn:uuid:6b98e02d-7f5d-4671-94ee-4392cba43f88",
          "display": "Marlene Gerlach"
        }
      }
    },
    {
      "fullUrl": "urn:uuid:6b98e02d-7f5d-4671-94ee-4392cba43f88",
      "resource": {
        "resourceType": "Patient",
        "id": "6b98e02d-7f5d-4671-94ee-4392cba43f88",
        "meta": {
          "security": [
            {
              "system": "http://terminology.hl7.org/CodeSystem/v3-ActReason",
              "code": "HTEST"
            },
            {
              "system": "http://terminology.hl7.org/CodeSystem/v3-ActReason",
              "code": "TRAIN"
            }
          ],
          "tag": [
            {
              "system": "https://synderai.net/fhir/CodeSystem/tags",
              "code": "synthetic",
              "display": "SYNDERAI Synthetic data"
            }
          ],
          "profile": [
            "http://hl7.eu/fhir/base/StructureDefinition/patient-eu-core"
          ]
        },
        "identifier": [
          {
            "type": {
              "coding": [
                {
                  "code": "PT",
                  "system": "http://terminology.hl7.org/CodeSystem/v2-0203"
                }
              ]
            },
            "system": "http://ec.europa.eu/identifier/eci",
            "value": "4536-398571-9"
          },
          {
            "type": {
              "coding": [
                {
                  "code": "MR",
                  "system": "http://terminology.hl7.org/CodeSystem/v2-0203"
                }
              ]
            },
            "system": "http://local.setting.eu/identifier",
            "value": "ff7a4ff6-4bac-f07f-03c9-b91b1e1cfb23"
          }
        ],
        "name": [
          {
            "family": "Gerlach"
          },
          {
            "given": [
              "Marlene"
            ]
          },
          {
            "text": "Marlene Gerlach"
          }
        ],
        "address": [
          {
            "line": [
              "Etzlerplatz 57-53"
            ],
            "use": "home",
            "type": "physical",
            "postalCode": "71522",
            "city": "Backnang",
            "country": "Germany"
          }
        ],
        "telecom": [
          {
            "system": "phone",
            "value": "+49(0)2700 61724"
          }
        ],
        "extension": [
          {
            "url": "http://hl7.org/fhir/StructureDefinition/patient-nationality",
            "valueCodeableConcept": {
              "coding": [
                {
                  "code": "DE",
                  "system": "http://hl7.org/fhir/ValueSet/country"
                }
              ]
            }
          }
        ],
        "text": {
          "status": "generated",
          "div": "<div xmlns=\"http://www.w3.org/1999/xhtml\"><table class=\"hl7__ips\"><tr><td>Marlene Gerlach</td><td>female</td><td>28-Aug-1939</td></tr></table></div>"
        },
        "gender": "female",
        "birthDate": "1939-08-28"
      }
    },
    {
      "fullUrl": "urn:uuid:30fee96f-183d-4331-b20d-4f6ae1bf1fe1",
      "resource": {
        "resourceType": "ServiceRequest",
        "id": "30fee96f-183d-4331-b20d-4f6ae1bf1fe1",
        "meta": {
          "profile": [
            "http://hl7.eu/fhir/laboratory/StructureDefinition/ServiceRequest-eu-lab"
          ]
        },
        "identifier": [
          {
            "system": "http://example.org",
            "value": "52d70e14-fd95-408d-984a-491b2bc80298"
          }
        ],
        "specimen": [
          {
            "reference": "urn:uuid:8a71e5a7-6447-4e64-87eb-37aec3bf86de"
          },
          {
            "reference": "urn:uuid:26473279-ed74-4a66-b604-98d0a9749798"
          },
          {
            "reference": "urn:uuid:eca0bcf5-e827-41fd-be3b-ba0e4da7f0c0"
          }
        ],
        "reasonCode": [
          {
            "coding": [
              {
                "code": "55822004",
                "system": "http://snomed.info/sct",
                "display": "Hyperlipidemia"
              }
            ]
          },
          {
            "coding": [
              {
                "code": "414545008",
                "system": "http://snomed.info/sct",
                "display": "Ischemic heart disease"
              }
            ]
          },
          {
            "coding": [
              {
                "code": "157141000119108",
                "system": "http://snomed.info/sct",
                "display": "Proteinuria due to type 2 diabetes mellitus"
              }
            ]
          },
          {
            "coding": [
              {
                "code": "90781000119102",
                "system": "http://snomed.info/sct",
                "display": "Microalbuminuria due to type 2 diabetes mellitus"
              }
            ]
          },
          {
            "coding": [
              {
                "code": "127013003",
                "system": "http://snomed.info/sct",
                "display": "Disorder of kidney due to diabetes mellitus"
              }
            ]
          },
          {
            "coding": [
              {
                "code": "271737000",
                "system": "http://snomed.info/sct",
                "display": "Anemia"
              }
            ]
          },
          {
            "coding": [
              {
                "code": "15777000",
                "system": "http://snomed.info/sct",
                "display": "Prediabetes"
              }
            ]
          },
          {
            "coding": [
              {
                "code": "59621000",
                "system": "http://snomed.info/sct",
                "display": "Essential hypertension"
              }
            ]
          }
        ],
        "status": "active",
        "intent": "order",
        "code": {
          "coding": [
            {
              "code": "108252007",
              "system": "http://snomed.info/sct",
              "display": "Laboratory procedure"
            }
          ]
        },
        "subject": {
          "reference": "urn:uuid:6b98e02d-7f5d-4671-94ee-4392cba43f88",
          "display": "Marlene Gerlach"
        },
        "requester": {
          "reference": "urn:uuid:dad5e971-9d68-4e1d-8df4-cc7216c852b8"
        }
      }
    },
    {
      "fullUrl": "urn:uuid:dad5e971-9d68-4e1d-8df4-cc7216c852b8",
      "resource": {
        "resourceType": "PractitionerRole",
        "id": "dad5e971-9d68-4e1d-8df4-cc7216c852b8",
        "meta": {
          "profile": [
            "http://hl7.eu/fhir/base/StructureDefinition/practitionerRole-eu"
          ]
        },
        "text": {
          "status": "generated",
          "div": "<div xmlns=\"http://www.w3.org/1999/xhtml\">Provider Role Id: dad5e971-9d68-4e1d-8df4-cc7216c852b8</div>"
        },
        "organization": {
          "reference": "urn:uuid:1b78831c-a5bf-4ed9-b44f-334b02ad9e47"
        }
      }
    },
    {
      "fullUrl": "urn:uuid:1b78831c-a5bf-4ed9-b44f-334b02ad9e47",
      "resource": {
        "resourceType": "Organization",
        "id": "1b78831c-a5bf-4ed9-b44f-334b02ad9e47",
        "meta": {
          "profile": [
            "http://hl7.eu/fhir/base/StructureDefinition/organization-eu"
          ]
        },
        "identifier": [
          {
            "assigner": {
              "display": "HL7 Europe"
            },
            "system": "urn:oid:2.16.840.1.113883.2.51.999",
            "value": "0a2fcb99-fb02-4fcc-abb1-3271578d902a"
          }
        ],
        "address": [
          {
            "line": [
              "Karl-Krische-Straße 4"
            ],
            "city": "Backnang",
            "postalCode": "71522",
            "country": "Germany"
          }
        ],
        "text": {
          "status": "generated",
          "div": "<div xmlns=\"http://www.w3.org/1999/xhtml\">Provider Organization: Gesundheitszentrum</div>"
        },
        "name": "Gesundheitszentrum"
      }
    },
    {
      "fullUrl": "urn:uuid:8a71e5a7-6447-4e64-87eb-37aec3bf86de",
      "resource": {
        "resourceType": "Specimen",
        "id": "8a71e5a7-6447-4e64-87eb-37aec3bf86de",
        "meta": {
          "profile": [
            "http://hl7.eu/fhir/laboratory/StructureDefinition/Specimen-eu-lab"
          ]
        },
        "collection": {
          "collectedDateTime": "2021-03-29"
        },
        "text": {
          "status": "generated",
          "div": "<div xmlns=\"http://www.w3.org/1999/xhtml\"><table class=\"hl7__eu__lab__report\"><tr><th>Specimen</th><th>Collection Date</th></tr><tr><td>Whole blood specimen (specimen)</td><td><span class=\"nb\">29-Mar-2021</span></td></tr></table></div>"
        },
        "type": {
          "coding": [
            {
              "code": "258580003",
              "system": "http://snomed.info/sct",
              "display": "Whole blood specimen (specimen)"
            }
          ]
        }
      }
    },
    {
      "fullUrl": "urn:uuid:26473279-ed74-4a66-b604-98d0a9749798",
      "resource": {
        "resourceType": "Specimen",
        "id": "26473279-ed74-4a66-b604-98d0a9749798",
        "meta": {
          "profile": [
            "http://hl7.eu/fhir/laboratory/StructureDefinition/Specimen-eu-lab"
          ]
        },
        "collection": {
          "collectedDateTime": "2021-03-29"
        },
        "text": {
          "status": "generated",
          "div": "<div xmlns=\"http://www.w3.org/1999/xhtml\"><table class=\"hl7__eu__lab__report\"><tr><th>Specimen</th><th>Collection Date</th></tr><tr><td>Acellular blood (serum or plasma) specimen</td><td><span class=\"nb\">29-Mar-2021</span></td></tr></table></div>"
        },
        "type": {
          "coding": [
            {
              "code": "122592007",
              "system": "http://snomed.info/sct",
              "display": "Acellular blood (serum or plasma) specimen"
            }
          ]
        }
      }
    },
    {
      "fullUrl": "urn:uuid:eca0bcf5-e827-41fd-be3b-ba0e4da7f0c0",
      "resource": {
        "resourceType": "Specimen",
        "id": "eca0bcf5-e827-41fd-be3b-ba0e4da7f0c0",
        "meta": {
          "profile": [
            "http://hl7.eu/fhir/laboratory/StructureDefinition/Specimen-eu-lab"
          ]
        },
        "collection": {
          "collectedDateTime": "2021-03-29"
        },
        "text": {
          "status": "generated",
          "div": "<div xmlns=\"http://www.w3.org/1999/xhtml\"><table class=\"hl7__eu__lab__report\"><tr><th>Specimen</th><th>Collection Date</th></tr><tr><td>Serum specimen</td><td><span class=\"nb\">29-Mar-2021</span></td></tr></table></div>"
        },
        "type": {
          "coding": [
            {
              "code": "119364003",
              "system": "http://snomed.info/sct",
              "display": "Serum specimen"
            }
          ]
        }
      }
    },
    {
      "fullUrl": "urn:uuid:412cbc4c-707e-44b7-b030-6473a22dbf40",
      "resource": {
        "resourceType": "Observation",
        "id": "412cbc4c-707e-44b7-b030-6473a22dbf40",
        "meta": {
          "profile": [
            "http://hl7.eu/fhir/laboratory/StructureDefinition/Observation-resultslab-eu-lab"
          ]
        },
        "performer": [
          {
            "display": "The Central European Lab"
          }
        ],
        "category": [
          {
            "coding": [
              {
                "system": "http://terminology.hl7.org/CodeSystem/observation-category",
                "code": "laboratory"
              }
            ]
          }
        ],
        "code": {
          "coding": [
            {
              "code": "2339-0",
              "system": "http://loinc.org",
              "display": "Glucose [Mass/volume] in Blood"
            }
          ],
          "text": "Glucose [Mass/volume] in Blood"
        },
        "valueQuantity": {
          "system": "http://unitsofmeasure.org",
          "value": 78,
          "unit": "mg/dL",
          "code": "mg/dL"
        },
        "referenceRange": [
          {
            "low": {
              "value": 70,
              "code": "mg/dL",
              "system": "http://unitsofmeasure.org"
            }
          },
          {
            "high": {
              "value": 140,
              "code": "mg/dL",
              "system": "http://unitsofmeasure.org"
            }
          }
        ],
        "text": {
          "status": "generated",
          "div": "<div xmlns=\"http://www.w3.org/1999/xhtml\"><table class=\"hl7__eu__lab__report\"><tr><th>Test</th><th>29-Mar-2021</th><th>Reference&#xA0;Range</th><th>Unit</th></tr><tr><td>Glucose [Mass/volume] in Blood</td><td>78.0</td><td>70 - 140</td><td></td><td>mg/dL</td></tr></table></div>"
        },
        "status": "final",
        "subject": {
          "reference": "urn:uuid:6b98e02d-7f5d-4671-94ee-4392cba43f88",
          "display": "Marlene Gerlach"
        },
        "effectiveDateTime": "2021-03-29T19:24:33Z",
        "specimen": {
          "reference": "urn:uuid:8a71e5a7-6447-4e64-87eb-37aec3bf86de"
        }
      }
    },
    {
      "fullUrl": "urn:uuid:b99ed203-173c-4281-9a6b-15fe7584fc0a",
      "resource": {
        "resourceType": "Observation",
        "id": "b99ed203-173c-4281-9a6b-15fe7584fc0a",
        "meta": {
          "profile": [
            "http://hl7.eu/fhir/laboratory/StructureDefinition/Observation-resultslab-eu-lab"
          ]
        },
        "performer": [
          {
            "display": "The Central European Lab"
          }
        ],
        "category": [
          {
            "coding": [
              {
                "system": "http://terminology.hl7.org/CodeSystem/observation-category",
                "code": "laboratory"
              }
            ]
          }
        ],
        "code": {
          "coding": [
            {
              "code": "6299-2",
              "system": "http://loinc.org",
              "display": "Urea nitrogen [Mass/volume] in Blood"
            }
          ],
          "text": "Urea nitrogen [Mass/volume] in Blood"
        },
        "valueQuantity": {
          "system": "http://unitsofmeasure.org",
          "value": 7.3,
          "unit": "mg/dL",
          "code": "mg/dL"
        },
        "referenceRange": [
          {
            "low": {
              "value": 7,
              "code": "mg/dL",
              "system": "http://unitsofmeasure.org"
            }
          },
          {
            "high": {
              "value": 20,
              "code": "mg/dL",
              "system": "http://unitsofmeasure.org"
            }
          }
        ],
        "text": {
          "status": "generated",
          "div": "<div xmlns=\"http://www.w3.org/1999/xhtml\"><table class=\"hl7__eu__lab__report\"><tr><th>Test</th><th>29-Mar-2021</th><th>Reference&#xA0;Range</th><th>Unit</th></tr><tr><td>Urea nitrogen [Mass/volume] in Blood</td><td>7.3</td><td>7 - 20</td><td></td><td>mg/dL</td></tr></table></div>"
        },
        "status": "final",
        "subject": {
          "reference": "urn:uuid:6b98e02d-7f5d-4671-94ee-4392cba43f88",
          "display": "Marlene Gerlach"
        },
        "effectiveDateTime": "2021-03-29T19:24:33Z",
        "specimen": {
          "reference": "urn:uuid:8a71e5a7-6447-4e64-87eb-37aec3bf86de"
        }
      }
    },
    {
      "fullUrl": "urn:uuid:564384c0-2578-441c-bd77-36046a949975",
      "resource": {
        "resourceType": "Observation",
        "id": "564384c0-2578-441c-bd77-36046a949975",
        "meta": {
          "profile": [
            "http://hl7.eu/fhir/laboratory/StructureDefinition/Observation-resultslab-eu-lab"
          ]
        },
        "performer": [
          {
            "display": "The Central European Lab"
          }
        ],
        "category": [
          {
            "coding": [
              {
                "system": "http://terminology.hl7.org/CodeSystem/observation-category",
                "code": "laboratory"
              }
            ]
          }
        ],
        "code": {
          "coding": [
            {
              "code": "38483-4",
              "system": "http://loinc.org",
              "display": "Creatinine [Mass/volume] in Blood"
            }
          ],
          "text": "Creatinine [Mass/volume] in Blood"
        },
        "valueQuantity": {
          "system": "http://unitsofmeasure.org",
          "value": 3.1,
          "unit": "mg/dL",
          "code": "mg/dL"
        },
        "referenceRange": [
          {
            "low": {
              "value": 0.5,
              "code": "mg/dL",
              "system": "http://unitsofmeasure.org"
            }
          },
          {
            "high": {
              "value": 1.3,
              "code": "mg/dL",
              "system": "http://unitsofmeasure.org"
            }
          }
        ],
        "interpretation": [
          {
            "coding": [
              {
                "code": "H",
                "system": "http://terminology.hl7.org/CodeSystem/v3-ObservationInterpretation",
                "display": "High"
              }
            ]
          }
        ],
        "text": {
          "status": "generated",
          "div": "<div xmlns=\"http://www.w3.org/1999/xhtml\"><table class=\"hl7__eu__lab__report\"><tr><th>Test</th><th>29-Mar-2021</th><th>Reference&#xA0;Range</th><th>Unit</th></tr><tr><td>Creatinine [Mass/volume] in Blood</td><td>3.1</td><td>0.5 - 1.3</td><td>H</td><td>mg/dL</td></tr></table></div>"
        },
        "status": "final",
        "subject": {
          "reference": "urn:uuid:6b98e02d-7f5d-4671-94ee-4392cba43f88",
          "display": "Marlene Gerlach"
        },
        "effectiveDateTime": "2021-03-29T19:24:33Z",
        "specimen": {
          "reference": "urn:uuid:8a71e5a7-6447-4e64-87eb-37aec3bf86de"
        }
      }
    },
    {
      "fullUrl": "urn:uuid:013a47e6-71be-4575-ad1e-7efdf1abfd18",
      "resource": {
        "resourceType": "Observation",
        "id": "013a47e6-71be-4575-ad1e-7efdf1abfd18",
        "meta": {
          "profile": [
            "http://hl7.eu/fhir/laboratory/StructureDefinition/Observation-resultslab-eu-lab"
          ]
        },
        "performer": [
          {
            "display": "The Central European Lab"
          }
        ],
        "category": [
          {
            "coding": [
              {
                "system": "http://terminology.hl7.org/CodeSystem/observation-category",
                "code": "laboratory"
              }
            ]
          }
        ],
        "code": {
          "coding": [
            {
              "code": "49765-1",
              "system": "http://loinc.org",
              "display": "Calcium [Mass/volume] in Blood"
            }
          ],
          "text": "Calcium [Mass/volume] in Blood"
        },
        "valueQuantity": {
          "system": "http://unitsofmeasure.org",
          "value": 8.7,
          "unit": "mg/dL",
          "code": "mg/dL"
        },
        "referenceRange": [
          {
            "low": {
              "value": 8.5,
              "code": "mg/dL",
              "system": "http://unitsofmeasure.org"
            }
          },
          {
            "high": {
              "value": 10.5,
              "code": "mg/dL",
              "system": "http://unitsofmeasure.org"
            }
          }
        ],
        "text": {
          "status": "generated",
          "div": "<div xmlns=\"http://www.w3.org/1999/xhtml\"><table class=\"hl7__eu__lab__report\"><tr><th>Test</th><th>29-Mar-2021</th><th>Reference&#xA0;Range</th><th>Unit</th></tr><tr><td>Calcium [Mass/volume] in Blood</td><td>8.7</td><td>8.5 - 10.5</td><td></td><td>mg/dL</td></tr></table></div>"
        },
        "status": "final",
        "subject": {
          "reference": "urn:uuid:6b98e02d-7f5d-4671-94ee-4392cba43f88",
          "display": "Marlene Gerlach"
        },
        "effectiveDateTime": "2021-03-29T19:24:33Z",
        "specimen": {
          "reference": "urn:uuid:8a71e5a7-6447-4e64-87eb-37aec3bf86de"
        }
      }
    },
    {
      "fullUrl": "urn:uuid:b61afcd9-7ddd-42ea-b19e-3ed501eb8fff",
      "resource": {
        "resourceType": "Observation",
        "id": "b61afcd9-7ddd-42ea-b19e-3ed501eb8fff",
        "meta": {
          "profile": [
            "http://hl7.eu/fhir/laboratory/StructureDefinition/Observation-resultslab-eu-lab"
          ]
        },
        "performer": [
          {
            "display": "The Central European Lab"
          }
        ],
        "category": [
          {
            "coding": [
              {
                "system": "http://terminology.hl7.org/CodeSystem/observation-category",
                "code": "laboratory"
              }
            ]
          }
        ],
        "code": {
          "coding": [
            {
              "code": "2947-0",
              "system": "http://loinc.org",
              "display": "Sodium [Moles/volume] in Blood"
            }
          ],
          "text": "Sodium [Moles/volume] in Blood"
        },
        "valueQuantity": {
          "system": "http://unitsofmeasure.org",
          "value": 138.1,
          "unit": "mmol/L",
          "code": "mmol/L"
        },
        "referenceRange": [
          {
            "low": {
              "value": 135,
              "code": "mmol/L",
              "system": "http://unitsofmeasure.org"
            }
          },
          {
            "high": {
              "value": 145,
              "code": "mmol/L",
              "system": "http://unitsofmeasure.org"
            }
          }
        ],
        "text": {
          "status": "generated",
          "div": "<div xmlns=\"http://www.w3.org/1999/xhtml\"><table class=\"hl7__eu__lab__report\"><tr><th>Test</th><th>29-Mar-2021</th><th>Reference&#xA0;Range</th><th>Unit</th></tr><tr><td>Sodium [Moles/volume] in Blood</td><td>138.1</td><td>135 - 145</td><td></td><td>mmol/L</td></tr></table></div>"
        },
        "status": "final",
        "subject": {
          "reference": "urn:uuid:6b98e02d-7f5d-4671-94ee-4392cba43f88",
          "display": "Marlene Gerlach"
        },
        "effectiveDateTime": "2021-03-29T19:24:33Z",
        "specimen": {
          "reference": "urn:uuid:8a71e5a7-6447-4e64-87eb-37aec3bf86de"
        }
      }
    },
    {
      "fullUrl": "urn:uuid:fce61c9d-6d4c-40d1-a62e-1c70ed717aba",
      "resource": {
        "resourceType": "Observation",
        "id": "fce61c9d-6d4c-40d1-a62e-1c70ed717aba",
        "meta": {
          "profile": [
            "http://hl7.eu/fhir/laboratory/StructureDefinition/Observation-resultslab-eu-lab"
          ]
        },
        "performer": [
          {
            "display": "The Central European Lab"
          }
        ],
        "category": [
          {
            "coding": [
              {
                "system": "http://terminology.hl7.org/CodeSystem/observation-category",
                "code": "laboratory"
              }
            ]
          }
        ],
        "code": {
          "coding": [
            {
              "code": "6298-4",
              "system": "http://loinc.org",
              "display": "Potassium [Moles/volume] in Blood"
            }
          ],
          "text": "Potassium [Moles/volume] in Blood"
        },
        "valueQuantity": {
          "system": "http://unitsofmeasure.org",
          "value": 4.4,
          "unit": "mmol/L",
          "code": "mmol/L"
        },
        "referenceRange": [
          {
            "low": {
              "value": 3.5,
              "code": "mmol/L",
              "system": "http://unitsofmeasure.org"
            }
          },
          {
            "high": {
              "value": 5.1,
              "code": "mmol/L",
              "system": "http://unitsofmeasure.org"
            }
          }
        ],
        "text": {
          "status": "generated",
          "div": "<div xmlns=\"http://www.w3.org/1999/xhtml\"><table class=\"hl7__eu__lab__report\"><tr><th>Test</th><th>29-Mar-2021</th><th>Reference&#xA0;Range</th><th>Unit</th></tr><tr><td>Potassium [Moles/volume] in Blood</td><td>4.4</td><td>3.5 - 5.1</td><td></td><td>mmol/L</td></tr></table></div>"
        },
        "status": "final",
        "subject": {
          "reference": "urn:uuid:6b98e02d-7f5d-4671-94ee-4392cba43f88",
          "display": "Marlene Gerlach"
        },
        "effectiveDateTime": "2021-03-29T19:24:33Z",
        "specimen": {
          "reference": "urn:uuid:8a71e5a7-6447-4e64-87eb-37aec3bf86de"
        }
      }
    },
    {
      "fullUrl": "urn:uuid:8a78e4b8-9ab7-4ad2-9901-7a05e88aa5c1",
      "resource": {
        "resourceType": "Observation",
        "id": "8a78e4b8-9ab7-4ad2-9901-7a05e88aa5c1",
        "meta": {
          "profile": [
            "http://hl7.eu/fhir/laboratory/StructureDefinition/Observation-resultslab-eu-lab"
          ]
        },
        "performer": [
          {
            "display": "The Central European Lab"
          }
        ],
        "category": [
          {
            "coding": [
              {
                "system": "http://terminology.hl7.org/CodeSystem/observation-category",
                "code": "laboratory"
              }
            ]
          }
        ],
        "code": {
          "coding": [
            {
              "code": "2069-3",
              "system": "http://loinc.org",
              "display": "Chloride [Moles/volume] in Blood"
            }
          ],
          "text": "Chloride [Moles/volume] in Blood"
        },
        "valueQuantity": {
          "system": "http://unitsofmeasure.org",
          "value": 110.8,
          "unit": "mmol/L",
          "code": "mmol/L"
        },
        "referenceRange": [
          {
            "low": {
              "value": 98,
              "code": "mmol/L",
              "system": "http://unitsofmeasure.org"
            }
          },
          {
            "high": {
              "value": 108,
              "code": "mmol/L",
              "system": "http://unitsofmeasure.org"
            }
          }
        ],
        "interpretation": [
          {
            "coding": [
              {
                "code": "H",
                "system": "http://terminology.hl7.org/CodeSystem/v3-ObservationInterpretation",
                "display": "High"
              }
            ]
          }
        ],
        "text": {
          "status": "generated",
          "div": "<div xmlns=\"http://www.w3.org/1999/xhtml\"><table class=\"hl7__eu__lab__report\"><tr><th>Test</th><th>29-Mar-2021</th><th>Reference&#xA0;Range</th><th>Unit</th></tr><tr><td>Chloride [Moles/volume] in Blood</td><td>110.8</td><td>98 - 108</td><td>H</td><td>mmol/L</td></tr></table></div>"
        },
        "status": "final",
        "subject": {
          "reference": "urn:uuid:6b98e02d-7f5d-4671-94ee-4392cba43f88",
          "display": "Marlene Gerlach"
        },
        "effectiveDateTime": "2021-03-29T19:24:33Z",
        "specimen": {
          "reference": "urn:uuid:8a71e5a7-6447-4e64-87eb-37aec3bf86de"
        }
      }
    },
    {
      "fullUrl": "urn:uuid:300c0b73-3e3b-4f21-9114-af0bce1ffda1",
      "resource": {
        "resourceType": "Observation",
        "id": "300c0b73-3e3b-4f21-9114-af0bce1ffda1",
        "meta": {
          "profile": [
            "http://hl7.eu/fhir/laboratory/StructureDefinition/Observation-resultslab-eu-lab"
          ]
        },
        "performer": [
          {
            "display": "The Central European Lab"
          }
        ],
        "category": [
          {
            "coding": [
              {
                "system": "http://terminology.hl7.org/CodeSystem/observation-category",
                "code": "laboratory"
              }
            ]
          }
        ],
        "code": {
          "coding": [
            {
              "code": "20565-8",
              "system": "http://loinc.org",
              "display": "Carbon dioxide, total [Moles/volume] in Blood"
            }
          ],
          "text": "Carbon dioxide, total [Moles/volume] in Blood"
        },
        "valueQuantity": {
          "system": "http://unitsofmeasure.org",
          "value": 26.6,
          "unit": "mmol/L",
          "code": "mmol/L"
        },
        "referenceRange": [
          {
            "low": {
              "value": 22,
              "code": "mmol/L",
              "system": "http://unitsofmeasure.org"
            }
          },
          {
            "high": {
              "value": 29,
              "code": "mmol/L",
              "system": "http://unitsofmeasure.org"
            }
          }
        ],
        "text": {
          "status": "generated",
          "div": "<div xmlns=\"http://www.w3.org/1999/xhtml\"><table class=\"hl7__eu__lab__report\"><tr><th>Test</th><th>29-Mar-2021</th><th>Reference&#xA0;Range</th><th>Unit</th></tr><tr><td>Carbon dioxide, total [Moles/volume] in Blood</td><td>26.6</td><td>22 - 29</td><td></td><td>mmol/L</td></tr></table></div>"
        },
        "status": "final",
        "subject": {
          "reference": "urn:uuid:6b98e02d-7f5d-4671-94ee-4392cba43f88",
          "display": "Marlene Gerlach"
        },
        "effectiveDateTime": "2021-03-29T19:24:33Z",
        "specimen": {
          "reference": "urn:uuid:8a71e5a7-6447-4e64-87eb-37aec3bf86de"
        }
      }
    },
    {
      "fullUrl": "urn:uuid:6926764e-723d-4ef0-a37f-411189646e04",
      "resource": {
        "resourceType": "Observation",
        "id": "6926764e-723d-4ef0-a37f-411189646e04",
        "meta": {
          "profile": [
            "http://hl7.eu/fhir/laboratory/StructureDefinition/Observation-resultslab-eu-lab"
          ]
        },
        "performer": [
          {
            "display": "The Central European Lab"
          }
        ],
        "category": [
          {
            "coding": [
              {
                "system": "http://terminology.hl7.org/CodeSystem/observation-category",
                "code": "laboratory"
              }
            ]
          }
        ],
        "code": {
          "coding": [
            {
              "code": "2885-2",
              "system": "http://loinc.org",
              "display": "Protein [Mass/volume] in Serum or Plasma"
            }
          ],
          "text": "Protein [Mass/volume] in Serum or Plasma"
        },
        "valueQuantity": {
          "system": "http://unitsofmeasure.org",
          "value": 6.5,
          "unit": "g/dL",
          "code": "g/dL"
        },
        "referenceRange": [
          {
            "low": {
              "value": 6,
              "code": "g/dL",
              "system": "http://unitsofmeasure.org"
            }
          },
          {
            "high": {
              "value": 8.2,
              "code": "g/dL",
              "system": "http://unitsofmeasure.org"
            }
          }
        ],
        "text": {
          "status": "generated",
          "div": "<div xmlns=\"http://www.w3.org/1999/xhtml\"><table class=\"hl7__eu__lab__report\"><tr><th>Test</th><th>29-Mar-2021</th><th>Reference&#xA0;Range</th><th>Unit</th></tr><tr><td>Protein [Mass/volume] in Serum or Plasma</td><td>6.5</td><td>6 - 8.2</td><td></td><td>g/dL</td></tr></table></div>"
        },
        "status": "final",
        "subject": {
          "reference": "urn:uuid:6b98e02d-7f5d-4671-94ee-4392cba43f88",
          "display": "Marlene Gerlach"
        },
        "effectiveDateTime": "2021-03-29T19:24:33Z",
        "specimen": {
          "reference": "urn:uuid:26473279-ed74-4a66-b604-98d0a9749798"
        }
      }
    },
    {
      "fullUrl": "urn:uuid:07a03896-ff51-4315-9b82-060ee2ce3593",
      "resource": {
        "resourceType": "Observation",
        "id": "07a03896-ff51-4315-9b82-060ee2ce3593",
        "meta": {
          "profile": [
            "http://hl7.eu/fhir/laboratory/StructureDefinition/Observation-resultslab-eu-lab"
          ]
        },
        "performer": [
          {
            "display": "The Central European Lab"
          }
        ],
        "category": [
          {
            "coding": [
              {
                "system": "http://terminology.hl7.org/CodeSystem/observation-category",
                "code": "laboratory"
              }
            ]
          }
        ],
        "code": {
          "coding": [
            {
              "code": "1751-7",
              "system": "http://loinc.org",
              "display": "Albumin [Mass/volume] in Serum or Plasma"
            }
          ],
          "text": "Albumin [Mass/volume] in Serum or Plasma"
        },
        "valueQuantity": {
          "system": "http://unitsofmeasure.org",
          "value": 5,
          "unit": "g/dL",
          "code": "g/dL"
        },
        "referenceRange": [
          {
            "low": {
              "value": 3.5,
              "code": "g/dL",
              "system": "http://unitsofmeasure.org"
            }
          },
          {
            "high": {
              "value": 5,
              "code": "g/dL",
              "system": "http://unitsofmeasure.org"
            }
          }
        ],
        "text": {
          "status": "generated",
          "div": "<div xmlns=\"http://www.w3.org/1999/xhtml\"><table class=\"hl7__eu__lab__report\"><tr><th>Test</th><th>29-Mar-2021</th><th>Reference&#xA0;Range</th><th>Unit</th></tr><tr><td>Albumin [Mass/volume] in Serum or Plasma</td><td>5.0</td><td>3.5 - 5</td><td></td><td>g/dL</td></tr></table></div>"
        },
        "status": "final",
        "subject": {
          "reference": "urn:uuid:6b98e02d-7f5d-4671-94ee-4392cba43f88",
          "display": "Marlene Gerlach"
        },
        "effectiveDateTime": "2021-03-29T19:24:33Z",
        "specimen": {
          "reference": "urn:uuid:26473279-ed74-4a66-b604-98d0a9749798"
        }
      }
    },
    {
      "fullUrl": "urn:uuid:ae9d7d33-1cbd-4d97-b618-6c9911dd715d",
      "resource": {
        "resourceType": "Observation",
        "id": "ae9d7d33-1cbd-4d97-b618-6c9911dd715d",
        "meta": {
          "profile": [
            "http://hl7.eu/fhir/laboratory/StructureDefinition/Observation-resultslab-eu-lab"
          ]
        },
        "performer": [
          {
            "display": "The Central European Lab"
          }
        ],
        "category": [
          {
            "coding": [
              {
                "system": "http://terminology.hl7.org/CodeSystem/observation-category",
                "code": "laboratory"
              }
            ]
          }
        ],
        "code": {
          "coding": [
            {
              "code": "10834-0",
              "system": "http://loinc.org",
              "display": "Globulin [Mass/volume] in Serum by calculation"
            }
          ],
          "text": "Globulin [Mass/volume] in Serum by calculation"
        },
        "valueQuantity": {
          "system": "http://unitsofmeasure.org",
          "value": 2.5,
          "unit": "g/L",
          "code": "g/L"
        },
        "referenceRange": [
          {
            "low": {
              "value": 2,
              "code": "g/L",
              "system": "http://unitsofmeasure.org"
            }
          },
          {
            "high": {
              "value": 4,
              "code": "g/L",
              "system": "http://unitsofmeasure.org"
            }
          }
        ],
        "text": {
          "status": "generated",
          "div": "<div xmlns=\"http://www.w3.org/1999/xhtml\"><table class=\"hl7__eu__lab__report\"><tr><th>Test</th><th>29-Mar-2021</th><th>Reference&#xA0;Range</th><th>Unit</th></tr><tr><td>Globulin [Mass/volume] in Serum by calculation</td><td>2.5</td><td>2 - 4</td><td></td><td>g/L</td></tr></table></div>"
        },
        "status": "final",
        "subject": {
          "reference": "urn:uuid:6b98e02d-7f5d-4671-94ee-4392cba43f88",
          "display": "Marlene Gerlach"
        },
        "effectiveDateTime": "2021-03-29T19:24:33Z",
        "specimen": {
          "reference": "urn:uuid:eca0bcf5-e827-41fd-be3b-ba0e4da7f0c0"
        }
      }
    },
    {
      "fullUrl": "urn:uuid:0e2a225b-9667-48e5-9329-f13d21988b83",
      "resource": {
        "resourceType": "Observation",
        "id": "0e2a225b-9667-48e5-9329-f13d21988b83",
        "meta": {
          "profile": [
            "http://hl7.eu/fhir/laboratory/StructureDefinition/Observation-resultslab-eu-lab"
          ]
        },
        "performer": [
          {
            "display": "The Central European Lab"
          }
        ],
        "category": [
          {
            "coding": [
              {
                "system": "http://terminology.hl7.org/CodeSystem/observation-category",
                "code": "laboratory"
              }
            ]
          }
        ],
        "code": {
          "coding": [
            {
              "code": "1975-2",
              "system": "http://loinc.org",
              "display": "Bilirubin.total [Mass/volume] in Serum or Plasma"
            }
          ],
          "text": "Bilirubin.total [Mass/volume] in Serum or Plasma"
        },
        "valueQuantity": {
          "system": "http://unitsofmeasure.org",
          "value": 0.2,
          "unit": "mg/dL",
          "code": "mg/dL"
        },
        "referenceRange": [
          {
            "low": {
              "value": 0.3,
              "code": "mg/dL",
              "system": "http://unitsofmeasure.org"
            }
          },
          {
            "high": {
              "value": 1.2,
              "code": "mg/dL",
              "system": "http://unitsofmeasure.org"
            }
          }
        ],
        "interpretation": [
          {
            "coding": [
              {
                "code": "L",
                "system": "http://terminology.hl7.org/CodeSystem/v3-ObservationInterpretation",
                "display": "Low"
              }
            ]
          }
        ],
        "text": {
          "status": "generated",
          "div": "<div xmlns=\"http://www.w3.org/1999/xhtml\"><table class=\"hl7__eu__lab__report\"><tr><th>Test</th><th>29-Mar-2021</th><th>Reference&#xA0;Range</th><th>Unit</th></tr><tr><td>Bilirubin.total [Mass/volume] in Serum or Plasma</td><td>0.2</td><td>0.3 - 1.2</td><td>L</td><td>mg/dL</td></tr></table></div>"
        },
        "status": "final",
        "subject": {
          "reference": "urn:uuid:6b98e02d-7f5d-4671-94ee-4392cba43f88",
          "display": "Marlene Gerlach"
        },
        "effectiveDateTime": "2021-03-29T19:24:33Z",
        "specimen": {
          "reference": "urn:uuid:26473279-ed74-4a66-b604-98d0a9749798"
        }
      }
    },
    {
      "fullUrl": "urn:uuid:e550bd0c-7563-4537-90ed-6116a9fec8ef",
      "resource": {
        "resourceType": "Observation",
        "id": "e550bd0c-7563-4537-90ed-6116a9fec8ef",
        "meta": {
          "profile": [
            "http://hl7.eu/fhir/laboratory/StructureDefinition/Observation-resultslab-eu-lab"
          ]
        },
        "performer": [
          {
            "display": "The Central European Lab"
          }
        ],
        "category": [
          {
            "coding": [
              {
                "system": "http://terminology.hl7.org/CodeSystem/observation-category",
                "code": "laboratory"
              }
            ]
          }
        ],
        "code": {
          "coding": [
            {
              "code": "6768-6",
              "system": "http://loinc.org",
              "display": "Alkaline phosphatase [Enzymatic activity/volume] in Serum or Plasma"
            }
          ],
          "text": "Alkaline phosphatase [Enzymatic activity/volume] in Serum or Plasma"
        },
        "valueQuantity": {
          "system": "http://unitsofmeasure.org",
          "value": 62,
          "unit": "U/L",
          "code": "U/L"
        },
        "referenceRange": [
          {
            "low": {
              "value": 35,
              "code": "U/L",
              "system": "http://unitsofmeasure.org"
            }
          },
          {
            "high": {
              "value": 141,
              "code": "U/L",
              "system": "http://unitsofmeasure.org"
            }
          }
        ],
        "text": {
          "status": "generated",
          "div": "<div xmlns=\"http://www.w3.org/1999/xhtml\"><table class=\"hl7__eu__lab__report\"><tr><th>Test</th><th>29-Mar-2021</th><th>Reference&#xA0;Range</th><th>Unit</th></tr><tr><td>Alkaline phosphatase [Enzymatic activity/volume] in Serum or Plasma</td><td>62.0</td><td>35 - 141</td><td></td><td>U/L</td></tr></table></div>"
        },
        "status": "final",
        "subject": {
          "reference": "urn:uuid:6b98e02d-7f5d-4671-94ee-4392cba43f88",
          "display": "Marlene Gerlach"
        },
        "effectiveDateTime": "2021-03-29T19:24:33Z",
        "specimen": {
          "reference": "urn:uuid:26473279-ed74-4a66-b604-98d0a9749798"
        }
      }
    },
    {
      "fullUrl": "urn:uuid:49f29103-0b12-46a6-bdf1-19b0b21ae1ff",
      "resource": {
        "resourceType": "Observation",
        "id": "49f29103-0b12-46a6-bdf1-19b0b21ae1ff",
        "meta": {
          "profile": [
            "http://hl7.eu/fhir/laboratory/StructureDefinition/Observation-resultslab-eu-lab"
          ]
        },
        "performer": [
          {
            "display": "The Central European Lab"
          }
        ],
        "category": [
          {
            "coding": [
              {
                "system": "http://terminology.hl7.org/CodeSystem/observation-category",
                "code": "laboratory"
              }
            ]
          }
        ],
        "code": {
          "coding": [
            {
              "code": "1742-6",
              "system": "http://loinc.org",
              "display": "Alanine aminotransferase [Enzymatic activity/volume] in Serum or Plasma"
            }
          ],
          "text": "Alanine aminotransferase [Enzymatic activity/volume] in Serum or Plasma"
        },
        "valueQuantity": {
          "system": "http://unitsofmeasure.org",
          "value": 20.7,
          "unit": "U/L",
          "code": "U/L"
        },
        "referenceRange": [
          {
            "low": {
              "value": 7,
              "code": "U/L",
              "system": "http://unitsofmeasure.org"
            }
          },
          {
            "high": {
              "value": 60,
              "code": "U/L",
              "system": "http://unitsofmeasure.org"
            }
          }
        ],
        "text": {
          "status": "generated",
          "div": "<div xmlns=\"http://www.w3.org/1999/xhtml\"><table class=\"hl7__eu__lab__report\"><tr><th>Test</th><th>29-Mar-2021</th><th>Reference&#xA0;Range</th><th>Unit</th></tr><tr><td>Alanine aminotransferase [Enzymatic activity/volume] in Serum or Plasma</td><td>20.7</td><td>7 - 60</td><td></td><td>U/L</td></tr></table></div>"
        },
        "status": "final",
        "subject": {
          "reference": "urn:uuid:6b98e02d-7f5d-4671-94ee-4392cba43f88",
          "display": "Marlene Gerlach"
        },
        "effectiveDateTime": "2021-03-29T19:24:33Z",
        "specimen": {
          "reference": "urn:uuid:26473279-ed74-4a66-b604-98d0a9749798"
        }
      }
    },
    {
      "fullUrl": "urn:uuid:b46bc6e6-7ac1-41d3-8823-526fd9a0d1db",
      "resource": {
        "resourceType": "Observation",
        "id": "b46bc6e6-7ac1-41d3-8823-526fd9a0d1db",
        "meta": {
          "profile": [
            "http://hl7.eu/fhir/laboratory/StructureDefinition/Observation-resultslab-eu-lab"
          ]
        },
        "performer": [
          {
            "display": "The Central European Lab"
          }
        ],
        "category": [
          {
            "coding": [
              {
                "system": "http://terminology.hl7.org/CodeSystem/observation-category",
                "code": "laboratory"
              }
            ]
          }
        ],
        "code": {
          "coding": [
            {
              "code": "1920-8",
              "system": "http://loinc.org",
              "display": "Aspartate aminotransferase [Enzymatic activity/volume] in Serum or Plasma"
            }
          ],
          "text": "Aspartate aminotransferase [Enzymatic activity/volume] in Serum or Plasma"
        },
        "valueQuantity": {
          "system": "http://unitsofmeasure.org",
          "value": 28.8,
          "unit": "U/L",
          "code": "U/L"
        },
        "referenceRange": [
          {
            "low": {
              "value": 10,
              "code": "U/L",
              "system": "http://unitsofmeasure.org"
            }
          },
          {
            "high": {
              "value": 40,
              "code": "U/L",
              "system": "http://unitsofmeasure.org"
            }
          }
        ],
        "text": {
          "status": "generated",
          "div": "<div xmlns=\"http://www.w3.org/1999/xhtml\"><table class=\"hl7__eu__lab__report\"><tr><th>Test</th><th>29-Mar-2021</th><th>Reference&#xA0;Range</th><th>Unit</th></tr><tr><td>Aspartate aminotransferase [Enzymatic activity/volume] in Serum or Plasma</td><td>28.8</td><td>10 - 40</td><td></td><td>U/L</td></tr></table></div>"
        },
        "status": "final",
        "subject": {
          "reference": "urn:uuid:6b98e02d-7f5d-4671-94ee-4392cba43f88",
          "display": "Marlene Gerlach"
        },
        "effectiveDateTime": "2021-03-29T19:24:33Z",
        "specimen": {
          "reference": "urn:uuid:26473279-ed74-4a66-b604-98d0a9749798"
        }
      }
    },
    {
      "fullUrl": "urn:uuid:fea5efc7-40da-485f-bb16-64211ae91672",
      "resource": {
        "resourceType": "Observation",
        "id": "fea5efc7-40da-485f-bb16-64211ae91672",
        "meta": {
          "profile": [
            "http://hl7.eu/fhir/laboratory/StructureDefinition/Observation-resultslab-eu-lab"
          ]
        },
        "performer": [
          {
            "display": "The Central European Lab"
          }
        ],
        "category": [
          {
            "coding": [
              {
                "system": "http://terminology.hl7.org/CodeSystem/observation-category",
                "code": "laboratory"
              }
            ]
          }
        ],
        "code": {
          "coding": [
            {
              "code": "2093-3",
              "system": "http://loinc.org",
              "display": "Cholesterol [Mass/volume] in Serum or Plasma"
            }
          ],
          "text": "Cholesterol [Mass/volume] in Serum or Plasma"
        },
        "valueQuantity": {
          "system": "http://unitsofmeasure.org",
          "value": 154.5,
          "unit": "mg/dL",
          "code": "mg/dL"
        },
        "referenceRange": [
          {
            "low": {
              "value": 0,
              "code": "mg/dL",
              "system": "http://unitsofmeasure.org"
            }
          },
          {
            "high": {
              "value": 200,
              "code": "mg/dL",
              "system": "http://unitsofmeasure.org"
            }
          }
        ],
        "text": {
          "status": "generated",
          "div": "<div xmlns=\"http://www.w3.org/1999/xhtml\"><table class=\"hl7__eu__lab__report\"><tr><th>Test</th><th>29-Mar-2021</th><th>Reference&#xA0;Range</th><th>Unit</th></tr><tr><td>Cholesterol [Mass/volume] in Serum or Plasma</td><td>154.5</td><td>0 - 200</td><td></td><td>mg/dL</td></tr></table></div>"
        },
        "status": "final",
        "subject": {
          "reference": "urn:uuid:6b98e02d-7f5d-4671-94ee-4392cba43f88",
          "display": "Marlene Gerlach"
        },
        "effectiveDateTime": "2021-03-29T19:24:33Z",
        "specimen": {
          "reference": "urn:uuid:26473279-ed74-4a66-b604-98d0a9749798"
        }
      }
    },
    {
      "fullUrl": "urn:uuid:9d239dba-bacb-4247-9b1d-4f88ff0c8007",
      "resource": {
        "resourceType": "Observation",
        "id": "9d239dba-bacb-4247-9b1d-4f88ff0c8007",
        "meta": {
          "profile": [
            "http://hl7.eu/fhir/laboratory/StructureDefinition/Observation-resultslab-eu-lab"
          ]
        },
        "performer": [
          {
            "display": "The Central European Lab"
          }
        ],
        "category": [
          {
            "coding": [
              {
                "system": "http://terminology.hl7.org/CodeSystem/observation-category",
                "code": "laboratory"
              }
            ]
          }
        ],
        "code": {
          "coding": [
            {
              "code": "2571-8",
              "system": "http://loinc.org",
              "display": "Triglyceride [Mass/volume] in Serum or Plasma"
            }
          ],
          "text": "Triglyceride [Mass/volume] in Serum or Plasma"
        },
        "valueQuantity": {
          "system": "http://unitsofmeasure.org",
          "value": 175.5,
          "unit": "mg/dL",
          "code": "mg/dL"
        },
        "referenceRange": [
          {
            "low": {
              "value": 0,
              "code": "mg/dL",
              "system": "http://unitsofmeasure.org"
            }
          },
          {
            "high": {
              "value": 199,
              "code": "mg/dL",
              "system": "http://unitsofmeasure.org"
            }
          }
        ],
        "text": {
          "status": "generated",
          "div": "<div xmlns=\"http://www.w3.org/1999/xhtml\"><table class=\"hl7__eu__lab__report\"><tr><th>Test</th><th>29-Mar-2021</th><th>Reference&#xA0;Range</th><th>Unit</th></tr><tr><td>Triglyceride [Mass/volume] in Serum or Plasma</td><td>175.5</td><td>0 - 199</td><td></td><td>mg/dL</td></tr></table></div>"
        },
        "status": "final",
        "subject": {
          "reference": "urn:uuid:6b98e02d-7f5d-4671-94ee-4392cba43f88",
          "display": "Marlene Gerlach"
        },
        "effectiveDateTime": "2021-03-29T19:24:33Z",
        "specimen": {
          "reference": "urn:uuid:26473279-ed74-4a66-b604-98d0a9749798"
        }
      }
    },
    {
      "fullUrl": "urn:uuid:50270ae8-2ed3-4c87-a887-6719928b9362",
      "resource": {
        "resourceType": "Observation",
        "id": "50270ae8-2ed3-4c87-a887-6719928b9362",
        "meta": {
          "profile": [
            "http://hl7.eu/fhir/laboratory/StructureDefinition/Observation-resultslab-eu-lab"
          ]
        },
        "performer": [
          {
            "display": "The Central European Lab"
          }
        ],
        "category": [
          {
            "coding": [
              {
                "system": "http://terminology.hl7.org/CodeSystem/observation-category",
                "code": "laboratory"
              }
            ]
          }
        ],
        "code": {
          "coding": [
            {
              "code": "18262-6",
              "system": "http://loinc.org",
              "display": "Cholesterol in LDL [Mass/volume] in Serum or Plasma by Direct assay"
            }
          ],
          "text": "Cholesterol in LDL [Mass/volume] in Serum or Plasma by Direct assay"
        },
        "valueQuantity": {
          "system": "http://unitsofmeasure.org",
          "value": 110.4,
          "unit": "mg/dL",
          "code": "mg/dL"
        },
        "referenceRange": [
          {
            "low": {
              "value": 0,
              "code": "mg/dL",
              "system": "http://unitsofmeasure.org"
            }
          },
          {
            "high": {
              "value": 130,
              "code": "mg/dL",
              "system": "http://unitsofmeasure.org"
            }
          }
        ],
        "text": {
          "status": "generated",
          "div": "<div xmlns=\"http://www.w3.org/1999/xhtml\"><table class=\"hl7__eu__lab__report\"><tr><th>Test</th><th>29-Mar-2021</th><th>Reference&#xA0;Range</th><th>Unit</th></tr><tr><td>Cholesterol in LDL [Mass/volume] in Serum or Plasma by Direct assay</td><td>110.4</td><td>0 - 130</td><td></td><td>mg/dL</td></tr></table></div>"
        },
        "status": "final",
        "subject": {
          "reference": "urn:uuid:6b98e02d-7f5d-4671-94ee-4392cba43f88",
          "display": "Marlene Gerlach"
        },
        "effectiveDateTime": "2021-03-29T19:24:33Z",
        "specimen": {
          "reference": "urn:uuid:26473279-ed74-4a66-b604-98d0a9749798"
        }
      }
    },
    {
      "fullUrl": "urn:uuid:94fb2600-5614-4b8d-9578-18b6dfc5eb4b",
      "resource": {
        "resourceType": "Observation",
        "id": "94fb2600-5614-4b8d-9578-18b6dfc5eb4b",
        "meta": {
          "profile": [
            "http://hl7.eu/fhir/laboratory/StructureDefinition/Observation-resultslab-eu-lab"
          ]
        },
        "performer": [
          {
            "display": "The Central European Lab"
          }
        ],
        "category": [
          {
            "coding": [
              {
                "system": "http://terminology.hl7.org/CodeSystem/observation-category",
                "code": "laboratory"
              }
            ]
          }
        ],
        "code": {
          "coding": [
            {
              "code": "2085-9",
              "system": "http://loinc.org",
              "display": "Cholesterol in HDL [Mass/volume] in Serum or Plasma"
            }
          ],
          "text": "Cholesterol in HDL [Mass/volume] in Serum or Plasma"
        },
        "valueQuantity": {
          "system": "http://unitsofmeasure.org",
          "value": 47.2,
          "unit": "mg/dL",
          "code": "mg/dL"
        },
        "referenceRange": [
          {
            "low": {
              "value": 46,
              "code": "mg/dL",
              "system": "http://unitsofmeasure.org"
            }
          },
          {
            "high": {
              "value": 77,
              "code": "mg/dL",
              "system": "http://unitsofmeasure.org"
            }
          }
        ],
        "text": {
          "status": "generated",
          "div": "<div xmlns=\"http://www.w3.org/1999/xhtml\"><table class=\"hl7__eu__lab__report\"><tr><th>Test</th><th>29-Mar-2021</th><th>Reference&#xA0;Range</th><th>Unit</th></tr><tr><td>Cholesterol in HDL [Mass/volume] in Serum or Plasma</td><td>47.2</td><td>46 - 77</td><td></td><td>mg/dL</td></tr></table></div>"
        },
        "status": "final",
        "subject": {
          "reference": "urn:uuid:6b98e02d-7f5d-4671-94ee-4392cba43f88",
          "display": "Marlene Gerlach"
        },
        "effectiveDateTime": "2021-03-29T19:24:33Z",
        "specimen": {
          "reference": "urn:uuid:26473279-ed74-4a66-b604-98d0a9749798"
        }
      }
    },
    {
      "fullUrl": "urn:uuid:5bebeab8-2253-4746-ad2e-adbc2b23c519",
      "resource": {
        "resourceType": "Device",
        "id": "5bebeab8-2253-4746-ad2e-adbc2b23c519",
        "deviceName": [
          {
            "name": "SYNDERAI Synthetic Generator",
            "type": "manufacturer-name"
          }
        ],
        "version": [
          {
            "value": "5.0"
          }
        ],
        "text": {
          "status": "generated",
          "div": "<div xmlns=\"http://www.w3.org/1999/xhtml\">SYNDERAI Synthetic Generator v5.0</div>"
        },
        "status": "active\"",
        "distinctIdentifier": "synderai-generator-50",
        "manufacturer": "SYNDERAI Project"
      }
    },
    {
      "fullUrl": "urn:uuid:e0b29738-734e-4c1d-80ac-9f53598b8304",
      "resource": {
        "resourceType": "Provenance",
        "id": "e0b29738-734e-4c1d-80ac-9f53598b8304",
        "target": [
          {
            "reference": "Patient/6b98e02d-7f5d-4671-94ee-4392cba43f88"
          },
          {
            "reference": "Bundle/99052dfc-5ee7-407b-aea1-d7e071df9be9"
          },
          {
            "reference": "Composition/993be016-140c-4338-84d3-13b364f38a32"
          },
          {
            "reference": "PractitionerRole/feb98ae4-ecff-4ffb-ad89-ddf0c254d81c"
          },
          {
            "reference": "Practitioner/ed23994a-1c02-4a8b-a6a3-40d8f7e4e171"
          },
          {
            "reference": "PractitionerRole/dad5e971-9d68-4e1d-8df4-cc7216c852b8"
          },
          {
            "reference": "Organization/1b78831c-a5bf-4ed9-b44f-334b02ad9e47"
          }
        ],
        "activity": {
          "text": "Synthetic Example Data Generation"
        },
        "policy": [
          "https://synderai.net/synderai-synthetic-data-policy"
        ],
        "agent": [
          {
            "type": {
              "text": "author"
            },
            "who": {
              "reference": "Device/5bebeab8-2253-4746-ad2e-adbc2b23c519"
            }
          }
        ],
        "reason": [
          {
            "text": "Interoperability Testing and Training (non-clinical use)"
          }
        ],
        "text": {
          "status": "generated",
          "div": "<div xmlns=\"http://www.w3.org/1999/xhtml\">Provenance for SYNDERAI Synthetic Example Data Resource</div>"
        },
        "recorded": "2021-03-29T21:24:33Z"
      }
    },
    {
      "fullUrl": "urn:uuid:feb98ae4-ecff-4ffb-ad89-ddf0c254d81c",
      "resource": {
        "resourceType": "PractitionerRole",
        "id": "feb98ae4-ecff-4ffb-ad89-ddf0c254d81c",
        "meta": {
          "profile": [
            "http://hl7.eu/fhir/base/StructureDefinition/practitionerRole-eu"
          ]
        },
        "text": {
          "status": "generated",
          "div": "<div xmlns=\"http://www.w3.org/1999/xhtml\">Laboratory Role Id: feb98ae4-ecff-4ffb-ad89-ddf0c254d81c</div>"
        },
        "practitioner": {
          "reference": "urn:uuid:ed23994a-1c02-4a8b-a6a3-40d8f7e4e171"
        }
      }
    },
    {
      "fullUrl": "urn:uuid:ed23994a-1c02-4a8b-a6a3-40d8f7e4e171",
      "resource": {
        "resourceType": "Practitioner",
        "id": "ed23994a-1c02-4a8b-a6a3-40d8f7e4e171",
        "meta": {
          "profile": [
            "http://hl7.eu/fhir/base/StructureDefinition/practitioner-eu"
          ]
        },
        "identifier": [
          {
            "assigner": {
              "display": "HL7 Europe"
            },
            "system": "urn:oid:2.16.840.1.113883.2.51.999",
            "value": "bc3e267e-e607-4b37-b04c-65fd4ab091d7"
          }
        ],
        "name": [
          {
            "prefix": [
              "dr"
            ],
            "given": [
              "Ex"
            ],
            "family": "Ample"
          }
        ],
        "address": [
          {
            "line": [
              "Laboratoire Central Européenne",
              "Boulevard du Jardin Botanique 32"
            ],
            "postalCode": "1000",
            "city": "Brussels",
            "country": "Belgium"
          }
        ],
        "text": {
          "status": "generated",
          "div": "<div xmlns=\"http://www.w3.org/1999/xhtml\">Laboratory: Laboratoire Central Européenne, 1000 Brussels, Belgium</div>"
        }
      }
    }
  ],
  "type": "document",
  "timestamp": "2021-03-29T21:24:33Z"
}
