{
  "resourceType": "Bundle",
  "id": "04345293-ce82-4d58-b95c-7f76667e717a",
  "meta": {
    "profile": [
      "http://hl7.eu/fhir/laboratory/StructureDefinition/Bundle-eu-lab"
    ]
  },
  "identifier": {
    "assigner": {
      "display": "HL7 Europe"
    },
    "system": "urn:oid:2.16.840.1.113883.2.51.999",
    "value": "4592b771-b608-476e-966b-094182ab94ee"
  },
  "entry": [
    {
      "fullUrl": "urn:uuid:f49c75c2-ac3a-4c45-afe4-20f432e273e2",
      "resource": {
        "resourceType": "Composition",
        "id": "f49c75c2-ac3a-4c45-afe4-20f432e273e2",
        "meta": {
          "profile": [
            "http://hl7.eu/fhir/laboratory/StructureDefinition/Composition-eu-lab"
          ]
        },
        "identifier": {
          "assigner": {
            "display": "HL7 Europe"
          },
          "system": "urn:oid:2.16.840.1.113883.2.51.999",
          "value": "ec99056e-1e90-42fb-a435-f31113ea8b5c"
        },
        "author": [
          {
            "reference": "urn:uuid:ece34a16-29ff-4eee-a5c9-f98ae8cf8bf0"
          }
        ],
        "category": [
          {
            "coding": [
              {
                "code": "26436-6",
                "system": "http://loinc.org",
                "display": "Laboratory studies (set)"
              }
            ]
          }
        ],
        "type": {
          "coding": [
            {
              "code": "11502-2",
              "system": "http://loinc.org",
              "display": "Laboratory report"
            }
          ],
          "text": "Laboratory Report"
        },
        "section": [
          {
            "code": {
              "coding": [
                {
                  "code": "26436-6",
                  "system": "http://loinc.org",
                  "display": "Laboratory studies (set)"
                }
              ],
              "text": "Laboratory studies"
            },
            "section": [
              {
                "code": {
                  "coding": [
                    {
                      "code": "$18719-5",
                      "system": "http://loinc.org",
                      "display": "Chemistry studies (set)"
                    }
                  ],
                  "text": "Chemistry"
                },
                "entry": [
                  {
                    "reference": "urn:uuid:bae3ad5e-f7e5-4f74-98cf-139b2e857eb4"
                  },
                  {
                    "reference": "urn:uuid:662f5c3f-1f4e-480a-8bad-fa2576bf8cbf"
                  },
                  {
                    "reference": "urn:uuid:62dcc642-8a6f-41bc-a668-b0cfa349a598"
                  },
                  {
                    "reference": "urn:uuid:eb35a171-83ae-42b8-8146-13b6c6bc7e5a"
                  },
                  {
                    "reference": "urn:uuid:5fb89b87-2f90-44d3-bf1f-9735d4f6518d"
                  },
                  {
                    "reference": "urn:uuid:f6534156-078a-4d99-8b81-453fbc62065f"
                  },
                  {
                    "reference": "urn:uuid:cfe29d57-c02e-4bd0-a9ca-a2e5cfb4a9e7"
                  },
                  {
                    "reference": "urn:uuid:1f32af36-6f0b-43bd-a168-f867f67cd77b"
                  },
                  {
                    "reference": "urn:uuid:9faf3614-82a4-49ef-a777-d6f47f7998b4"
                  },
                  {
                    "reference": "urn:uuid:32fbea74-8967-4b04-8cd2-5d786eb08cdf"
                  },
                  {
                    "reference": "urn:uuid:62e40ab7-32cd-4e8c-bbd0-fdf6b7ec3d8d"
                  },
                  {
                    "reference": "urn:uuid:0f7307bb-0a9b-466e-a6e1-b8fd4b7d83ce"
                  },
                  {
                    "reference": "urn:uuid:fd729d47-dc5c-47f7-a6a5-f48b61d73ce6"
                  },
                  {
                    "reference": "urn:uuid:d0c98982-924a-4547-b0b6-61c689148086"
                  },
                  {
                    "reference": "urn:uuid:41599feb-3a8c-44b0-bf34-2814a8bd05bb"
                  },
                  {
                    "reference": "urn:uuid:d6a308b3-829b-44f3-9a67-94c29314b152"
                  },
                  {
                    "reference": "urn:uuid:bdec6a4c-abc7-491f-8e25-5c576c09281b"
                  },
                  {
                    "reference": "urn:uuid:34a4c9bc-2bd0-4056-93dd-9d9711427b89"
                  }
                ],
                "text": {
                  "status": "generated",
                  "div": "<div xmlns=\"http://www.w3.org/1999/xhtml\"><h3>Chemistry</h3><table class=\"hl7__eu__lab__report\"><thead><tr><th>Test</th><th>13-SEP-2016</th><th>Reference&#xA0;Range</th><th>Unit</th></tr></thead><tbody><tr><td>Glucose [Mass/volume] in Serum or Plasma</td><td>77.9</td><td>70 - 99</td><td>mg/dL</td></tr><tr><td>Urea nitrogen [Mass/volume] in Serum or Plasma</td><td>18.2</td><td>7 - 50</td><td>mg/dL</td></tr><tr><td>Creatinine [Mass/volume] in Serum or Plasma</td><td><strong>2.0 H</strong></td><td>0.6 - 1.1</td><td>mg/dL</td></tr><tr><td>Calcium [Mass/volume] in Serum or Plasma</td><td>9.6</td><td>8.6 - 10.4</td><td>mg/dL</td></tr><tr><td>Sodium [Moles/volume] in Serum or Plasma</td><td>141.5</td><td>135 - 145</td><td>mmol/L</td></tr><tr><td>Potassium [Moles/volume] in Serum or Plasma</td><td>4.4</td><td>3.5 - 5.1</td><td>mmol/L</td></tr><tr><td>Chloride [Moles/volume] in Serum or Plasma</td><td><strong>109.2 H</strong></td><td>98 - 108</td><td>mmol/L</td></tr><tr><td>Carbon dioxide, total [Moles/volume] in Serum or Plasma</td><td><strong>20.6 L</strong></td><td>22 - 32</td><td>mmol/L</td></tr><tr><td>Ketones [Presence] in Urine by Test strip</td><td>Urine ketone test = +</td><td></td><td></td></tr><tr><td>Hemoglobin A1c/Hemoglobin.total in Blood</td><td><strong>3.0 L</strong></td><td>4 - 6.4</td><td>%</td></tr><tr><td>Glucose [Mass/volume] in Blood</td><td>77.9</td><td>70 - 100</td><td>mg/dL</td></tr><tr><td>Urea nitrogen [Mass/volume] in Blood</td><td>18.2</td><td>7 - 43</td><td>mg/dL</td></tr><tr><td>Creatinine [Mass/volume] in Blood</td><td><strong>1.8 H</strong></td><td>0.6 - 1.1</td><td>mg/dL</td></tr><tr><td>Calcium [Mass/volume] in Blood</td><td>9.6</td><td>8.5 - 10.5</td><td>mg/dL</td></tr><tr><td>Sodium [Moles/volume] in Blood</td><td>141.5</td><td>135 - 145</td><td>mmol/L</td></tr><tr><td>Potassium [Moles/volume] in Blood</td><td>4.4</td><td>3.5 - 5.1</td><td>mmol/L</td></tr><tr><td>Chloride [Moles/volume] in Blood</td><td><strong>109.2 H</strong></td><td>98 - 108</td><td>mmol/L</td></tr><tr><td>Carbon dioxide, total [Moles/volume] in Blood</td><td><strong>20.6 L</strong></td><td>22 - 29</td><td>mmol/L</td></tr></tbody></table></div>"
                },
                "title": "Chemistry"
              },
              {
                "code": {
                  "coding": [
                    {
                      "code": "$18729-4",
                      "system": "http://loinc.org",
                      "display": "Urinalysis studies (set)"
                    }
                  ],
                  "text": "Urinalysis"
                },
                "entry": [
                  {
                    "reference": "urn:uuid:7a31376b-71d1-43a4-ac17-ce938ecbf82f"
                  },
                  {
                    "reference": "urn:uuid:62709c7c-13e3-40b8-8740-fc707a9a8386"
                  },
                  {
                    "reference": "urn:uuid:f97bacac-84b2-44d4-994e-5f76b7145e4b"
                  },
                  {
                    "reference": "urn:uuid:0b895378-cf18-47be-bd1e-a7ecbeae659c"
                  },
                  {
                    "reference": "urn:uuid:d5f5a546-71ce-4a8e-aab7-8bfda05b8368"
                  },
                  {
                    "reference": "urn:uuid:10050e40-4082-452c-a6cd-a96abf5beb06"
                  },
                  {
                    "reference": "urn:uuid:fe32a359-6b53-4078-aae1-ff80b4fe471c"
                  },
                  {
                    "reference": "urn:uuid:4b58166e-37f9-4a10-a0d1-ee93b862e4c5"
                  },
                  {
                    "reference": "urn:uuid:d5138b41-440e-4315-b328-dedfeb268577"
                  },
                  {
                    "reference": "urn:uuid:af0440b5-4fd6-478a-8157-0d67cc2c6202"
                  },
                  {
                    "reference": "urn:uuid:1a45e5aa-94a7-4bc7-9f1a-3a0da8ff7b94"
                  },
                  {
                    "reference": "urn:uuid:f093107c-6a56-4ab5-9d66-b22d6ba4b507"
                  }
                ],
                "text": {
                  "status": "generated",
                  "div": "<div xmlns=\"http://www.w3.org/1999/xhtml\"><h3>Urinalysis</h3><table class=\"hl7__eu__lab__report\"><thead><tr><th>Test</th><th>13-SEP-2016</th><th>Reference&#xA0;Range</th><th>Unit</th></tr></thead><tbody><tr><td>Glucose [Mass/volume] in Urine by Test strip</td><td><strong>0.6 L</strong></td><td>0.8 - 0</td><td>mg/dL</td></tr><tr><td>Glucose [Presence] in Urine by Test strip</td><td>++</td><td></td><td></td></tr><tr><td>Bilirubin.total [Mass/volume] in Urine by Test strip</td><td>0.7</td><td>0 - 1</td><td>mg/dL</td></tr><tr><td>Bilirubin.total [Presence] in Urine by Test strip</td><td>Finding of bilirubin in urine</td><td></td><td></td></tr><tr><td>Ketones [Mass/volume] in Urine by Test strip</td><td><strong>19.9 H</strong></td><td>0 - 4</td><td>mg/dL</td></tr><tr><td>Specific gravity of Urine by Test strip</td><td><strong>1.0 L</strong></td><td>1.005 - 1.03</td><td>{nominal}</td></tr><tr><td>pH of Urine by Test strip</td><td>6.4</td><td>4.6 - 7</td><td>pH</td></tr><tr><td>Protein [Mass/volume] in Urine by Test strip</td><td><strong>154.7 H</strong></td><td>0 - 14</td><td>mg/dL</td></tr><tr><td>Protein [Presence] in Urine by Test strip</td><td>Urine protein test = ++</td><td></td><td></td></tr><tr><td>Nitrite [Presence] in Urine by Test strip</td><td>Urine nitrite negative</td><td></td><td></td></tr><tr><td>Hemoglobin [Presence] in Urine by Test strip</td><td>Urine blood test = negative</td><td></td><td></td></tr><tr><td>Leukocyte esterase [Presence] in Urine by Test strip</td><td>Urine leukocyte test negative</td><td></td><td></td></tr></tbody></table></div>"
                },
                "title": "Urinalysis"
              },
              {
                "code": {
                  "coding": [
                    {
                      "code": "$LP7846-1",
                      "system": "http://loinc.org",
                      "display": "Specimen information"
                    }
                  ],
                  "text": "Specimen information"
                },
                "entry": [
                  {
                    "reference": "urn:uuid:087fe93a-d571-4516-b091-8535ca72bbdc"
                  },
                  {
                    "reference": "urn:uuid:2da1da43-0bd8-4764-b02b-0f223a9d6e1d"
                  },
                  {
                    "reference": "urn:uuid:850068b9-c33a-4629-bf5d-58c627cc7e4c"
                  },
                  {
                    "reference": "urn:uuid:54fe936b-4d30-4c36-bb4d-1f0cb4ed8bd9"
                  }
                ],
                "text": {
                  "status": "generated",
                  "div": "<div xmlns=\"http://www.w3.org/1999/xhtml\"><h3>Specimen information</h3><table class=\"hl7__eu__lab__report\"><thead><tr><th>Test</th><th>13-SEP-2016</th><th>Specimen</th><th></th></tr></thead><tbody><tr><td>Appearance of Urine</td><td>Cloudy urine</td><td>Urine</td><td></td></tr><tr><td>Odor of Urine</td><td>Urine smell ammoniacal</td><td>Urine</td><td></td></tr><tr><td>Clarity of Urine</td><td>Translucent</td><td>Urine</td><td></td></tr><tr><td>Color of Urine</td><td>Brown color</td><td>Urine</td><td></td></tr></tbody></table></div>"
                },
                "title": "Specimen information"
              }
            ],
            "title": "Laboratory Report"
          },
          {
            "text": {
              "status": "generated",
              "div": "<div xmlns=\"http://www.w3.org/1999/xhtml\"><h3>Annotation</h3><table class=\"hl7__eu__lab__report\"><tr><th>Conclusion and Recommendations based on this report and previous findings known to us</th></tr><tr><td>The patient shows elevated creatinine, proteinuria, and ketonuria, suggesting impaired renal function with possible acute or chronic kidney disease. Low total CO₂ and elevated chloride may indicate metabolic acidosis. Urine findings (cloudy, brown, ammoniacal) support renal involvement but no clear evidence of infection. Low HbA1c and normal glucose exclude diabetes. Recommend nephrology evaluation and further assessment of renal function and acid-base status.</td></tr></table></div>"
            },
            "code": {
              "coding": [
                {
                  "system": "http://loinc.org",
                  "code": "48767-8",
                  "display": "Annotation comment"
                }
              ]
            },
            "title": "Annotation comment"
          }
        ],
        "status": "final",
        "subject": {
          "reference": "urn:uuid:28b5f5ce-8734-4d8f-9eb9-6dffa255ad03",
          "display": "Meaghan Neary"
        },
        "date": "2016-09-13T00:11:04Z",
        "title": "Laboratory Report",
        "confidentiality": "N"
      }
    },
    {
      "fullUrl": "urn:uuid:497cc7b0-cf65-43f1-90a1-1dde69d5ff92",
      "resource": {
        "resourceType": "DiagnosticReport",
        "id": "497cc7b0-cf65-43f1-90a1-1dde69d5ff92",
        "meta": {
          "profile": [
            "http://hl7.eu/fhir/laboratory/StructureDefinition/DiagnosticReport-eu-lab"
          ]
        },
        "identifier": [
          {
            "assigner": {
              "display": "HL7 Europe"
            },
            "system": "urn:oid:2.16.840.1.113883.2.51.999",
            "value": "e803302d-0f83-4bb6-b341-affe44a97843"
          }
        ],
        "extension": [
          {
            "url": "http://hl7.org/fhir/5.0/StructureDefinition/extension-DiagnosticReport.composition",
            "valueReference": {
              "reference": "urn:uuid:ec99056e-1e90-42fb-a435-f31113ea8b5c"
            }
          }
        ],
        "category": [
          {
            "coding": [
              {
                "code": "26436-6",
                "system": "http://loinc.org",
                "display": "Laboratory studies (set)"
              }
            ]
          }
        ],
        "specimen": [
          {
            "reference": "urn:uuid:c6ebfc36-7d15-4664-ab45-634934ab1786"
          },
          {
            "reference": "urn:uuid:aad9bf4b-74c6-49ef-af27-7154eebf331f"
          },
          {
            "reference": "urn:uuid:dbeb8fe9-5548-4a46-9cc0-190da9f59314"
          }
        ],
        "result": [
          {
            "reference": "urn:uuid:bae3ad5e-f7e5-4f74-98cf-139b2e857eb4"
          },
          {
            "reference": "urn:uuid:662f5c3f-1f4e-480a-8bad-fa2576bf8cbf"
          },
          {
            "reference": "urn:uuid:62dcc642-8a6f-41bc-a668-b0cfa349a598"
          },
          {
            "reference": "urn:uuid:eb35a171-83ae-42b8-8146-13b6c6bc7e5a"
          },
          {
            "reference": "urn:uuid:5fb89b87-2f90-44d3-bf1f-9735d4f6518d"
          },
          {
            "reference": "urn:uuid:f6534156-078a-4d99-8b81-453fbc62065f"
          },
          {
            "reference": "urn:uuid:cfe29d57-c02e-4bd0-a9ca-a2e5cfb4a9e7"
          },
          {
            "reference": "urn:uuid:1f32af36-6f0b-43bd-a168-f867f67cd77b"
          },
          {
            "reference": "urn:uuid:087fe93a-d571-4516-b091-8535ca72bbdc"
          },
          {
            "reference": "urn:uuid:2da1da43-0bd8-4764-b02b-0f223a9d6e1d"
          },
          {
            "reference": "urn:uuid:850068b9-c33a-4629-bf5d-58c627cc7e4c"
          },
          {
            "reference": "urn:uuid:54fe936b-4d30-4c36-bb4d-1f0cb4ed8bd9"
          },
          {
            "reference": "urn:uuid:7a31376b-71d1-43a4-ac17-ce938ecbf82f"
          },
          {
            "reference": "urn:uuid:62709c7c-13e3-40b8-8740-fc707a9a8386"
          },
          {
            "reference": "urn:uuid:f97bacac-84b2-44d4-994e-5f76b7145e4b"
          },
          {
            "reference": "urn:uuid:0b895378-cf18-47be-bd1e-a7ecbeae659c"
          },
          {
            "reference": "urn:uuid:d5f5a546-71ce-4a8e-aab7-8bfda05b8368"
          },
          {
            "reference": "urn:uuid:9faf3614-82a4-49ef-a777-d6f47f7998b4"
          },
          {
            "reference": "urn:uuid:10050e40-4082-452c-a6cd-a96abf5beb06"
          },
          {
            "reference": "urn:uuid:fe32a359-6b53-4078-aae1-ff80b4fe471c"
          },
          {
            "reference": "urn:uuid:4b58166e-37f9-4a10-a0d1-ee93b862e4c5"
          },
          {
            "reference": "urn:uuid:d5138b41-440e-4315-b328-dedfeb268577"
          },
          {
            "reference": "urn:uuid:af0440b5-4fd6-478a-8157-0d67cc2c6202"
          },
          {
            "reference": "urn:uuid:1a45e5aa-94a7-4bc7-9f1a-3a0da8ff7b94"
          },
          {
            "reference": "urn:uuid:f093107c-6a56-4ab5-9d66-b22d6ba4b507"
          },
          {
            "reference": "urn:uuid:32fbea74-8967-4b04-8cd2-5d786eb08cdf"
          },
          {
            "reference": "urn:uuid:62e40ab7-32cd-4e8c-bbd0-fdf6b7ec3d8d"
          },
          {
            "reference": "urn:uuid:0f7307bb-0a9b-466e-a6e1-b8fd4b7d83ce"
          },
          {
            "reference": "urn:uuid:fd729d47-dc5c-47f7-a6a5-f48b61d73ce6"
          },
          {
            "reference": "urn:uuid:d0c98982-924a-4547-b0b6-61c689148086"
          },
          {
            "reference": "urn:uuid:41599feb-3a8c-44b0-bf34-2814a8bd05bb"
          },
          {
            "reference": "urn:uuid:d6a308b3-829b-44f3-9a67-94c29314b152"
          },
          {
            "reference": "urn:uuid:bdec6a4c-abc7-491f-8e25-5c576c09281b"
          },
          {
            "reference": "urn:uuid:34a4c9bc-2bd0-4056-93dd-9d9711427b89"
          }
        ],
        "status": "registered",
        "code": {
          "coding": [
            {
              "code": "11502-2",
              "system": "http://loinc.org",
              "display": "Laboratory report"
            }
          ]
        },
        "subject": {
          "reference": "urn:uuid:28b5f5ce-8734-4d8f-9eb9-6dffa255ad03",
          "display": "Meaghan Neary"
        }
      }
    },
    {
      "fullUrl": "urn:uuid:28b5f5ce-8734-4d8f-9eb9-6dffa255ad03",
      "resource": {
        "resourceType": "Patient",
        "id": "28b5f5ce-8734-4d8f-9eb9-6dffa255ad03",
        "meta": {
          "security": [
            {
              "system": "http://terminology.hl7.org/CodeSystem/v3-ActReason",
              "code": "HTEST"
            },
            {
              "system": "http://terminology.hl7.org/CodeSystem/v3-ActReason",
              "code": "TRAIN"
            }
          ],
          "tag": [
            {
              "system": "https://synderai.net/fhir/CodeSystem/tags",
              "code": "synthetic",
              "display": "SYNDERAI Synthetic data"
            }
          ],
          "profile": [
            "http://hl7.eu/fhir/base/StructureDefinition/patient-eu-core"
          ]
        },
        "identifier": [
          {
            "type": {
              "coding": [
                {
                  "code": "PT",
                  "system": "http://terminology.hl7.org/CodeSystem/v2-0203"
                }
              ]
            },
            "system": "http://ec.europa.eu/identifier/eci",
            "value": "1586-567257-8"
          },
          {
            "type": {
              "coding": [
                {
                  "code": "MR",
                  "system": "http://terminology.hl7.org/CodeSystem/v2-0203"
                }
              ]
            },
            "system": "http://local.setting.eu/identifier",
            "value": "443e6379-f231-b364-3ccb-644740a1aa2a"
          }
        ],
        "name": [
          {
            "family": "Neary"
          },
          {
            "given": [
              "Meaghan"
            ]
          },
          {
            "text": "Meaghan Neary"
          }
        ],
        "address": [
          {
            "line": [
              "64 Linskey Street"
            ],
            "use": "home",
            "type": "physical",
            "postalCode": "D02",
            "city": "Dublin",
            "country": "Ireland"
          }
        ],
        "telecom": [
          {
            "system": "phone",
            "value": "001-967-573-0911x465"
          }
        ],
        "extension": [
          {
            "url": "http://hl7.org/fhir/StructureDefinition/patient-nationality",
            "valueCodeableConcept": {
              "coding": [
                {
                  "code": "IE",
                  "system": "http://hl7.org/fhir/ValueSet/country"
                }
              ]
            }
          }
        ],
        "text": {
          "status": "generated",
          "div": "<div xmlns=\"http://www.w3.org/1999/xhtml\"><table class=\"hl7__ips\"><tr><td>Meaghan Neary</td><td>female</td><td>19-Dec-1960</td></tr></table></div>"
        },
        "gender": "female",
        "birthDate": "1960-12-19"
      }
    },
    {
      "fullUrl": "urn:uuid:f8e5d995-3fc9-4453-8724-9c1903831490",
      "resource": {
        "resourceType": "ServiceRequest",
        "id": "f8e5d995-3fc9-4453-8724-9c1903831490",
        "meta": {
          "profile": [
            "http://hl7.eu/fhir/laboratory/StructureDefinition/ServiceRequest-eu-lab"
          ]
        },
        "identifier": [
          {
            "system": "http://example.org",
            "value": "3762e201-8696-450e-9cc0-5fe5af659de4"
          }
        ],
        "specimen": [
          {
            "reference": "urn:uuid:c6ebfc36-7d15-4664-ab45-634934ab1786"
          },
          {
            "reference": "urn:uuid:aad9bf4b-74c6-49ef-af27-7154eebf331f"
          },
          {
            "reference": "urn:uuid:dbeb8fe9-5548-4a46-9cc0-190da9f59314"
          }
        ],
        "reasonCode": [
          {
            "coding": [
              {
                "code": "55822004",
                "system": "http://snomed.info/sct",
                "display": "Hyperlipidemia"
              }
            ]
          },
          {
            "coding": [
              {
                "code": "433144002",
                "system": "http://snomed.info/sct",
                "display": "Chronic kidney disease stage 3"
              }
            ]
          },
          {
            "coding": [
              {
                "code": "157141000119108",
                "system": "http://snomed.info/sct",
                "display": "Proteinuria due to type 2 diabetes mellitus"
              }
            ]
          },
          {
            "coding": [
              {
                "code": "431856006",
                "system": "http://snomed.info/sct",
                "display": "Chronic kidney disease stage 2"
              }
            ]
          },
          {
            "coding": [
              {
                "code": "90781000119102",
                "system": "http://snomed.info/sct",
                "display": "Microalbuminuria due to type 2 diabetes mellitus"
              }
            ]
          },
          {
            "coding": [
              {
                "code": "127013003",
                "system": "http://snomed.info/sct",
                "display": "Disorder of kidney due to diabetes mellitus"
              }
            ]
          },
          {
            "coding": [
              {
                "code": "431855005",
                "system": "http://snomed.info/sct",
                "display": "Chronic kidney disease stage 1"
              }
            ]
          },
          {
            "coding": [
              {
                "code": "237602007",
                "system": "http://snomed.info/sct",
                "display": "Metabolic syndrome X"
              }
            ]
          },
          {
            "coding": [
              {
                "code": "271737000",
                "system": "http://snomed.info/sct",
                "display": "Anemia"
              }
            ]
          },
          {
            "coding": [
              {
                "code": "15777000",
                "system": "http://snomed.info/sct",
                "display": "Prediabetes"
              }
            ]
          },
          {
            "coding": [
              {
                "code": "59621000",
                "system": "http://snomed.info/sct",
                "display": "Essential hypertension"
              }
            ]
          }
        ],
        "status": "active",
        "intent": "order",
        "code": {
          "coding": [
            {
              "code": "108252007",
              "system": "http://snomed.info/sct",
              "display": "Laboratory procedure"
            }
          ]
        },
        "subject": {
          "reference": "urn:uuid:28b5f5ce-8734-4d8f-9eb9-6dffa255ad03",
          "display": "Meaghan Neary"
        },
        "requester": {
          "reference": "urn:uuid:1d434902-3729-45a7-908f-69d726114fee"
        }
      }
    },
    {
      "fullUrl": "urn:uuid:1d434902-3729-45a7-908f-69d726114fee",
      "resource": {
        "resourceType": "PractitionerRole",
        "id": "1d434902-3729-45a7-908f-69d726114fee",
        "meta": {
          "profile": [
            "http://hl7.eu/fhir/base/StructureDefinition/practitionerRole-eu"
          ]
        },
        "text": {
          "status": "generated",
          "div": "<div xmlns=\"http://www.w3.org/1999/xhtml\">Provider Role Id: 1d434902-3729-45a7-908f-69d726114fee</div>"
        },
        "organization": {
          "reference": "urn:uuid:ff050a36-3a37-479d-b373-ee45cfdb666a"
        }
      }
    },
    {
      "fullUrl": "urn:uuid:ff050a36-3a37-479d-b373-ee45cfdb666a",
      "resource": {
        "resourceType": "Organization",
        "id": "ff050a36-3a37-479d-b373-ee45cfdb666a",
        "meta": {
          "profile": [
            "http://hl7.eu/fhir/base/StructureDefinition/organization-eu"
          ]
        },
        "identifier": [
          {
            "assigner": {
              "display": "HL7 Europe"
            },
            "system": "urn:oid:2.16.840.1.113883.2.51.999",
            "value": "94e53756-8394-40f7-b3f8-0b0041261297"
          }
        ],
        "address": [
          {
            "line": [
              "Parnell Square West nan"
            ],
            "city": "Dublin",
            "postalCode": "D01",
            "country": "Ireland"
          }
        ],
        "text": {
          "status": "generated",
          "div": "<div xmlns=\"http://www.w3.org/1999/xhtml\">Provider Organization: Rotunda Hospital</div>"
        },
        "name": "Rotunda Hospital"
      }
    },
    {
      "fullUrl": "urn:uuid:c6ebfc36-7d15-4664-ab45-634934ab1786",
      "resource": {
        "resourceType": "Specimen",
        "id": "c6ebfc36-7d15-4664-ab45-634934ab1786",
        "meta": {
          "profile": [
            "http://hl7.eu/fhir/laboratory/StructureDefinition/Specimen-eu-lab"
          ]
        },
        "collection": {
          "collectedDateTime": "2016-09-12"
        },
        "text": {
          "status": "generated",
          "div": "<div xmlns=\"http://www.w3.org/1999/xhtml\"><table class=\"hl7__eu__lab__report\"><tr><th>Specimen</th><th>Collection Date</th></tr><tr><td>Acellular blood (serum or plasma) specimen</td><td><span class=\"nb\">12-Sep-2016</span></td></tr></table></div>"
        },
        "type": {
          "coding": [
            {
              "code": "122592007",
              "system": "http://snomed.info/sct",
              "display": "Acellular blood (serum or plasma) specimen"
            }
          ]
        }
      }
    },
    {
      "fullUrl": "urn:uuid:aad9bf4b-74c6-49ef-af27-7154eebf331f",
      "resource": {
        "resourceType": "Specimen",
        "id": "aad9bf4b-74c6-49ef-af27-7154eebf331f",
        "meta": {
          "profile": [
            "http://hl7.eu/fhir/laboratory/StructureDefinition/Specimen-eu-lab"
          ]
        },
        "collection": {
          "collectedDateTime": "2016-09-12"
        },
        "text": {
          "status": "generated",
          "div": "<div xmlns=\"http://www.w3.org/1999/xhtml\"><table class=\"hl7__eu__lab__report\"><tr><th>Specimen</th><th>Collection Date</th></tr><tr><td>Urine specimen</td><td><span class=\"nb\">12-Sep-2016</span></td></tr></table></div>"
        },
        "type": {
          "coding": [
            {
              "code": "122575003",
              "system": "http://snomed.info/sct",
              "display": "Urine specimen"
            }
          ]
        }
      }
    },
    {
      "fullUrl": "urn:uuid:dbeb8fe9-5548-4a46-9cc0-190da9f59314",
      "resource": {
        "resourceType": "Specimen",
        "id": "dbeb8fe9-5548-4a46-9cc0-190da9f59314",
        "meta": {
          "profile": [
            "http://hl7.eu/fhir/laboratory/StructureDefinition/Specimen-eu-lab"
          ]
        },
        "collection": {
          "collectedDateTime": "2016-09-12"
        },
        "text": {
          "status": "generated",
          "div": "<div xmlns=\"http://www.w3.org/1999/xhtml\"><table class=\"hl7__eu__lab__report\"><tr><th>Specimen</th><th>Collection Date</th></tr><tr><td>Whole blood specimen (specimen)</td><td><span class=\"nb\">12-Sep-2016</span></td></tr></table></div>"
        },
        "type": {
          "coding": [
            {
              "code": "258580003",
              "system": "http://snomed.info/sct",
              "display": "Whole blood specimen (specimen)"
            }
          ]
        }
      }
    },
    {
      "fullUrl": "urn:uuid:bae3ad5e-f7e5-4f74-98cf-139b2e857eb4",
      "resource": {
        "resourceType": "Observation",
        "id": "bae3ad5e-f7e5-4f74-98cf-139b2e857eb4",
        "meta": {
          "profile": [
            "http://hl7.eu/fhir/laboratory/StructureDefinition/Observation-resultslab-eu-lab"
          ]
        },
        "performer": [
          {
            "display": "The Central European Lab"
          }
        ],
        "category": [
          {
            "coding": [
              {
                "system": "http://terminology.hl7.org/CodeSystem/observation-category",
                "code": "laboratory"
              }
            ]
          }
        ],
        "code": {
          "coding": [
            {
              "code": "2345-7",
              "system": "http://loinc.org",
              "display": "Glucose [Mass/volume] in Serum or Plasma"
            }
          ],
          "text": "Glucose [Mass/volume] in Serum or Plasma"
        },
        "valueQuantity": {
          "system": "http://unitsofmeasure.org",
          "value": 77.9,
          "unit": "mg/dL",
          "code": "mg/dL"
        },
        "referenceRange": [
          {
            "low": {
              "value": 70,
              "code": "mg/dL",
              "system": "http://unitsofmeasure.org"
            }
          },
          {
            "high": {
              "value": 99,
              "code": "mg/dL",
              "system": "http://unitsofmeasure.org"
            }
          }
        ],
        "text": {
          "status": "generated",
          "div": "<div xmlns=\"http://www.w3.org/1999/xhtml\"><table class=\"hl7__eu__lab__report\"><tr><th>Test</th><th>13-Sep-2016</th><th>Reference&#xA0;Range</th><th>Unit</th></tr><tr><td>Glucose [Mass/volume] in Serum or Plasma</td><td>77.9</td><td>70 - 99</td><td></td><td>mg/dL</td></tr></table></div>"
        },
        "status": "final",
        "subject": {
          "reference": "urn:uuid:28b5f5ce-8734-4d8f-9eb9-6dffa255ad03",
          "display": "Meaghan Neary"
        },
        "effectiveDateTime": "2016-09-12T22:11:04Z",
        "specimen": {
          "reference": "urn:uuid:c6ebfc36-7d15-4664-ab45-634934ab1786"
        }
      }
    },
    {
      "fullUrl": "urn:uuid:662f5c3f-1f4e-480a-8bad-fa2576bf8cbf",
      "resource": {
        "resourceType": "Observation",
        "id": "662f5c3f-1f4e-480a-8bad-fa2576bf8cbf",
        "meta": {
          "profile": [
            "http://hl7.eu/fhir/laboratory/StructureDefinition/Observation-resultslab-eu-lab"
          ]
        },
        "performer": [
          {
            "display": "The Central European Lab"
          }
        ],
        "category": [
          {
            "coding": [
              {
                "system": "http://terminology.hl7.org/CodeSystem/observation-category",
                "code": "laboratory"
              }
            ]
          }
        ],
        "code": {
          "coding": [
            {
              "code": "3094-0",
              "system": "http://loinc.org",
              "display": "Urea nitrogen [Mass/volume] in Serum or Plasma"
            }
          ],
          "text": "Urea nitrogen [Mass/volume] in Serum or Plasma"
        },
        "valueQuantity": {
          "system": "http://unitsofmeasure.org",
          "value": 18.2,
          "unit": "mg/dL",
          "code": "mg/dL"
        },
        "referenceRange": [
          {
            "low": {
              "value": 7,
              "code": "mg/dL",
              "system": "http://unitsofmeasure.org"
            }
          },
          {
            "high": {
              "value": 50,
              "code": "mg/dL",
              "system": "http://unitsofmeasure.org"
            }
          }
        ],
        "text": {
          "status": "generated",
          "div": "<div xmlns=\"http://www.w3.org/1999/xhtml\"><table class=\"hl7__eu__lab__report\"><tr><th>Test</th><th>13-Sep-2016</th><th>Reference&#xA0;Range</th><th>Unit</th></tr><tr><td>Urea nitrogen [Mass/volume] in Serum or Plasma</td><td>18.2</td><td>7 - 50</td><td></td><td>mg/dL</td></tr></table></div>"
        },
        "status": "final",
        "subject": {
          "reference": "urn:uuid:28b5f5ce-8734-4d8f-9eb9-6dffa255ad03",
          "display": "Meaghan Neary"
        },
        "effectiveDateTime": "2016-09-12T22:11:04Z",
        "specimen": {
          "reference": "urn:uuid:c6ebfc36-7d15-4664-ab45-634934ab1786"
        }
      }
    },
    {
      "fullUrl": "urn:uuid:62dcc642-8a6f-41bc-a668-b0cfa349a598",
      "resource": {
        "resourceType": "Observation",
        "id": "62dcc642-8a6f-41bc-a668-b0cfa349a598",
        "meta": {
          "profile": [
            "http://hl7.eu/fhir/laboratory/StructureDefinition/Observation-resultslab-eu-lab"
          ]
        },
        "performer": [
          {
            "display": "The Central European Lab"
          }
        ],
        "category": [
          {
            "coding": [
              {
                "system": "http://terminology.hl7.org/CodeSystem/observation-category",
                "code": "laboratory"
              }
            ]
          }
        ],
        "code": {
          "coding": [
            {
              "code": "2160-0",
              "system": "http://loinc.org",
              "display": "Creatinine [Mass/volume] in Serum or Plasma"
            }
          ],
          "text": "Creatinine [Mass/volume] in Serum or Plasma"
        },
        "valueQuantity": {
          "system": "http://unitsofmeasure.org",
          "value": 2,
          "unit": "mg/dL",
          "code": "mg/dL"
        },
        "referenceRange": [
          {
            "low": {
              "value": 0.6,
              "code": "mg/dL",
              "system": "http://unitsofmeasure.org"
            }
          },
          {
            "high": {
              "value": 1.1,
              "code": "mg/dL",
              "system": "http://unitsofmeasure.org"
            }
          }
        ],
        "interpretation": [
          {
            "coding": [
              {
                "code": "H",
                "system": "http://terminology.hl7.org/CodeSystem/v3-ObservationInterpretation",
                "display": "High"
              }
            ]
          }
        ],
        "text": {
          "status": "generated",
          "div": "<div xmlns=\"http://www.w3.org/1999/xhtml\"><table class=\"hl7__eu__lab__report\"><tr><th>Test</th><th>13-Sep-2016</th><th>Reference&#xA0;Range</th><th>Unit</th></tr><tr><td>Creatinine [Mass/volume] in Serum or Plasma</td><td>2.0</td><td>0.6 - 1.1</td><td>H</td><td>mg/dL</td></tr></table></div>"
        },
        "status": "final",
        "subject": {
          "reference": "urn:uuid:28b5f5ce-8734-4d8f-9eb9-6dffa255ad03",
          "display": "Meaghan Neary"
        },
        "effectiveDateTime": "2016-09-12T22:11:04Z",
        "specimen": {
          "reference": "urn:uuid:c6ebfc36-7d15-4664-ab45-634934ab1786"
        }
      }
    },
    {
      "fullUrl": "urn:uuid:eb35a171-83ae-42b8-8146-13b6c6bc7e5a",
      "resource": {
        "resourceType": "Observation",
        "id": "eb35a171-83ae-42b8-8146-13b6c6bc7e5a",
        "meta": {
          "profile": [
            "http://hl7.eu/fhir/laboratory/StructureDefinition/Observation-resultslab-eu-lab"
          ]
        },
        "performer": [
          {
            "display": "The Central European Lab"
          }
        ],
        "category": [
          {
            "coding": [
              {
                "system": "http://terminology.hl7.org/CodeSystem/observation-category",
                "code": "laboratory"
              }
            ]
          }
        ],
        "code": {
          "coding": [
            {
              "code": "17861-6",
              "system": "http://loinc.org",
              "display": "Calcium [Mass/volume] in Serum or Plasma"
            }
          ],
          "text": "Calcium [Mass/volume] in Serum or Plasma"
        },
        "valueQuantity": {
          "system": "http://unitsofmeasure.org",
          "value": 9.6,
          "unit": "mg/dL",
          "code": "mg/dL"
        },
        "referenceRange": [
          {
            "low": {
              "value": 8.6,
              "code": "mg/dL",
              "system": "http://unitsofmeasure.org"
            }
          },
          {
            "high": {
              "value": 10.4,
              "code": "mg/dL",
              "system": "http://unitsofmeasure.org"
            }
          }
        ],
        "text": {
          "status": "generated",
          "div": "<div xmlns=\"http://www.w3.org/1999/xhtml\"><table class=\"hl7__eu__lab__report\"><tr><th>Test</th><th>13-Sep-2016</th><th>Reference&#xA0;Range</th><th>Unit</th></tr><tr><td>Calcium [Mass/volume] in Serum or Plasma</td><td>9.6</td><td>8.6 - 10.4</td><td></td><td>mg/dL</td></tr></table></div>"
        },
        "status": "final",
        "subject": {
          "reference": "urn:uuid:28b5f5ce-8734-4d8f-9eb9-6dffa255ad03",
          "display": "Meaghan Neary"
        },
        "effectiveDateTime": "2016-09-12T22:11:04Z",
        "specimen": {
          "reference": "urn:uuid:c6ebfc36-7d15-4664-ab45-634934ab1786"
        }
      }
    },
    {
      "fullUrl": "urn:uuid:5fb89b87-2f90-44d3-bf1f-9735d4f6518d",
      "resource": {
        "resourceType": "Observation",
        "id": "5fb89b87-2f90-44d3-bf1f-9735d4f6518d",
        "meta": {
          "profile": [
            "http://hl7.eu/fhir/laboratory/StructureDefinition/Observation-resultslab-eu-lab"
          ]
        },
        "performer": [
          {
            "display": "The Central European Lab"
          }
        ],
        "category": [
          {
            "coding": [
              {
                "system": "http://terminology.hl7.org/CodeSystem/observation-category",
                "code": "laboratory"
              }
            ]
          }
        ],
        "code": {
          "coding": [
            {
              "code": "2951-2",
              "system": "http://loinc.org",
              "display": "Sodium [Moles/volume] in Serum or Plasma"
            }
          ],
          "text": "Sodium [Moles/volume] in Serum or Plasma"
        },
        "valueQuantity": {
          "system": "http://unitsofmeasure.org",
          "value": 141.5,
          "unit": "mmol/L",
          "code": "mmol/L"
        },
        "referenceRange": [
          {
            "low": {
              "value": 135,
              "code": "mmol/L",
              "system": "http://unitsofmeasure.org"
            }
          },
          {
            "high": {
              "value": 145,
              "code": "mmol/L",
              "system": "http://unitsofmeasure.org"
            }
          }
        ],
        "text": {
          "status": "generated",
          "div": "<div xmlns=\"http://www.w3.org/1999/xhtml\"><table class=\"hl7__eu__lab__report\"><tr><th>Test</th><th>13-Sep-2016</th><th>Reference&#xA0;Range</th><th>Unit</th></tr><tr><td>Sodium [Moles/volume] in Serum or Plasma</td><td>141.5</td><td>135 - 145</td><td></td><td>mmol/L</td></tr></table></div>"
        },
        "status": "final",
        "subject": {
          "reference": "urn:uuid:28b5f5ce-8734-4d8f-9eb9-6dffa255ad03",
          "display": "Meaghan Neary"
        },
        "effectiveDateTime": "2016-09-12T22:11:04Z",
        "specimen": {
          "reference": "urn:uuid:c6ebfc36-7d15-4664-ab45-634934ab1786"
        }
      }
    },
    {
      "fullUrl": "urn:uuid:f6534156-078a-4d99-8b81-453fbc62065f",
      "resource": {
        "resourceType": "Observation",
        "id": "f6534156-078a-4d99-8b81-453fbc62065f",
        "meta": {
          "profile": [
            "http://hl7.eu/fhir/laboratory/StructureDefinition/Observation-resultslab-eu-lab"
          ]
        },
        "performer": [
          {
            "display": "The Central European Lab"
          }
        ],
        "category": [
          {
            "coding": [
              {
                "system": "http://terminology.hl7.org/CodeSystem/observation-category",
                "code": "laboratory"
              }
            ]
          }
        ],
        "code": {
          "coding": [
            {
              "code": "2823-3",
              "system": "http://loinc.org",
              "display": "Potassium [Moles/volume] in Serum or Plasma"
            }
          ],
          "text": "Potassium [Moles/volume] in Serum or Plasma"
        },
        "valueQuantity": {
          "system": "http://unitsofmeasure.org",
          "value": 4.4,
          "unit": "mmol/L",
          "code": "mmol/L"
        },
        "referenceRange": [
          {
            "low": {
              "value": 3.5,
              "code": "mmol/L",
              "system": "http://unitsofmeasure.org"
            }
          },
          {
            "high": {
              "value": 5.1,
              "code": "mmol/L",
              "system": "http://unitsofmeasure.org"
            }
          }
        ],
        "text": {
          "status": "generated",
          "div": "<div xmlns=\"http://www.w3.org/1999/xhtml\"><table class=\"hl7__eu__lab__report\"><tr><th>Test</th><th>13-Sep-2016</th><th>Reference&#xA0;Range</th><th>Unit</th></tr><tr><td>Potassium [Moles/volume] in Serum or Plasma</td><td>4.4</td><td>3.5 - 5.1</td><td></td><td>mmol/L</td></tr></table></div>"
        },
        "status": "final",
        "subject": {
          "reference": "urn:uuid:28b5f5ce-8734-4d8f-9eb9-6dffa255ad03",
          "display": "Meaghan Neary"
        },
        "effectiveDateTime": "2016-09-12T22:11:04Z",
        "specimen": {
          "reference": "urn:uuid:c6ebfc36-7d15-4664-ab45-634934ab1786"
        }
      }
    },
    {
      "fullUrl": "urn:uuid:cfe29d57-c02e-4bd0-a9ca-a2e5cfb4a9e7",
      "resource": {
        "resourceType": "Observation",
        "id": "cfe29d57-c02e-4bd0-a9ca-a2e5cfb4a9e7",
        "meta": {
          "profile": [
            "http://hl7.eu/fhir/laboratory/StructureDefinition/Observation-resultslab-eu-lab"
          ]
        },
        "performer": [
          {
            "display": "The Central European Lab"
          }
        ],
        "category": [
          {
            "coding": [
              {
                "system": "http://terminology.hl7.org/CodeSystem/observation-category",
                "code": "laboratory"
              }
            ]
          }
        ],
        "code": {
          "coding": [
            {
              "code": "2075-0",
              "system": "http://loinc.org",
              "display": "Chloride [Moles/volume] in Serum or Plasma"
            }
          ],
          "text": "Chloride [Moles/volume] in Serum or Plasma"
        },
        "valueQuantity": {
          "system": "http://unitsofmeasure.org",
          "value": 109.2,
          "unit": "mmol/L",
          "code": "mmol/L"
        },
        "referenceRange": [
          {
            "low": {
              "value": 98,
              "code": "mmol/L",
              "system": "http://unitsofmeasure.org"
            }
          },
          {
            "high": {
              "value": 108,
              "code": "mmol/L",
              "system": "http://unitsofmeasure.org"
            }
          }
        ],
        "interpretation": [
          {
            "coding": [
              {
                "code": "H",
                "system": "http://terminology.hl7.org/CodeSystem/v3-ObservationInterpretation",
                "display": "High"
              }
            ]
          }
        ],
        "text": {
          "status": "generated",
          "div": "<div xmlns=\"http://www.w3.org/1999/xhtml\"><table class=\"hl7__eu__lab__report\"><tr><th>Test</th><th>13-Sep-2016</th><th>Reference&#xA0;Range</th><th>Unit</th></tr><tr><td>Chloride [Moles/volume] in Serum or Plasma</td><td>109.2</td><td>98 - 108</td><td>H</td><td>mmol/L</td></tr></table></div>"
        },
        "status": "final",
        "subject": {
          "reference": "urn:uuid:28b5f5ce-8734-4d8f-9eb9-6dffa255ad03",
          "display": "Meaghan Neary"
        },
        "effectiveDateTime": "2016-09-12T22:11:04Z",
        "specimen": {
          "reference": "urn:uuid:c6ebfc36-7d15-4664-ab45-634934ab1786"
        }
      }
    },
    {
      "fullUrl": "urn:uuid:1f32af36-6f0b-43bd-a168-f867f67cd77b",
      "resource": {
        "resourceType": "Observation",
        "id": "1f32af36-6f0b-43bd-a168-f867f67cd77b",
        "meta": {
          "profile": [
            "http://hl7.eu/fhir/laboratory/StructureDefinition/Observation-resultslab-eu-lab"
          ]
        },
        "performer": [
          {
            "display": "The Central European Lab"
          }
        ],
        "category": [
          {
            "coding": [
              {
                "system": "http://terminology.hl7.org/CodeSystem/observation-category",
                "code": "laboratory"
              }
            ]
          }
        ],
        "code": {
          "coding": [
            {
              "code": "2028-9",
              "system": "http://loinc.org",
              "display": "Carbon dioxide, total [Moles/volume] in Serum or Plasma"
            }
          ],
          "text": "Carbon dioxide, total [Moles/volume] in Serum or Plasma"
        },
        "valueQuantity": {
          "system": "http://unitsofmeasure.org",
          "value": 20.6,
          "unit": "mmol/L",
          "code": "mmol/L"
        },
        "referenceRange": [
          {
            "low": {
              "value": 22,
              "code": "mmol/L",
              "system": "http://unitsofmeasure.org"
            }
          },
          {
            "high": {
              "value": 32,
              "code": "mmol/L",
              "system": "http://unitsofmeasure.org"
            }
          }
        ],
        "interpretation": [
          {
            "coding": [
              {
                "code": "L",
                "system": "http://terminology.hl7.org/CodeSystem/v3-ObservationInterpretation",
                "display": "Low"
              }
            ]
          }
        ],
        "text": {
          "status": "generated",
          "div": "<div xmlns=\"http://www.w3.org/1999/xhtml\"><table class=\"hl7__eu__lab__report\"><tr><th>Test</th><th>13-Sep-2016</th><th>Reference&#xA0;Range</th><th>Unit</th></tr><tr><td>Carbon dioxide, total [Moles/volume] in Serum or Plasma</td><td>20.6</td><td>22 - 32</td><td>L</td><td>mmol/L</td></tr></table></div>"
        },
        "status": "final",
        "subject": {
          "reference": "urn:uuid:28b5f5ce-8734-4d8f-9eb9-6dffa255ad03",
          "display": "Meaghan Neary"
        },
        "effectiveDateTime": "2016-09-12T22:11:04Z",
        "specimen": {
          "reference": "urn:uuid:c6ebfc36-7d15-4664-ab45-634934ab1786"
        }
      }
    },
    {
      "fullUrl": "urn:uuid:087fe93a-d571-4516-b091-8535ca72bbdc",
      "resource": {
        "resourceType": "Observation",
        "id": "087fe93a-d571-4516-b091-8535ca72bbdc",
        "meta": {
          "profile": [
            "http://hl7.eu/fhir/laboratory/StructureDefinition/Observation-resultslab-eu-lab"
          ]
        },
        "performer": [
          {
            "display": "The Central European Lab"
          }
        ],
        "category": [
          {
            "coding": [
              {
                "system": "http://terminology.hl7.org/CodeSystem/observation-category",
                "code": "laboratory"
              }
            ]
          }
        ],
        "code": {
          "coding": [
            {
              "code": "5767-9",
              "system": "http://loinc.org",
              "display": "Appearance of Urine"
            }
          ],
          "text": "Appearance of Urine"
        },
        "text": {
          "status": "generated",
          "div": "<div xmlns=\"http://www.w3.org/1999/xhtml\"><table class=\"hl7__eu__lab__report\"><tr><th>Test</th><th>13-Sep-2016</th><th>Reference&#xA0;Range</th><th>Unit</th></tr><tr><td>Appearance of Urine</td></tr></table></div>"
        },
        "status": "final",
        "subject": {
          "reference": "urn:uuid:28b5f5ce-8734-4d8f-9eb9-6dffa255ad03",
          "display": "Meaghan Neary"
        },
        "effectiveDateTime": "2016-09-12T22:11:04Z",
        "specimen": {
          "reference": "urn:uuid:aad9bf4b-74c6-49ef-af27-7154eebf331f"
        }
      }
    },
    {
      "fullUrl": "urn:uuid:2da1da43-0bd8-4764-b02b-0f223a9d6e1d",
      "resource": {
        "resourceType": "Observation",
        "id": "2da1da43-0bd8-4764-b02b-0f223a9d6e1d",
        "meta": {
          "profile": [
            "http://hl7.eu/fhir/laboratory/StructureDefinition/Observation-resultslab-eu-lab"
          ]
        },
        "performer": [
          {
            "display": "The Central European Lab"
          }
        ],
        "category": [
          {
            "coding": [
              {
                "system": "http://terminology.hl7.org/CodeSystem/observation-category",
                "code": "laboratory"
              }
            ]
          }
        ],
        "code": {
          "coding": [
            {
              "code": "34533-0",
              "system": "http://loinc.org",
              "display": "Odor of Urine"
            }
          ],
          "text": "Odor of Urine"
        },
        "text": {
          "status": "generated",
          "div": "<div xmlns=\"http://www.w3.org/1999/xhtml\"><table class=\"hl7__eu__lab__report\"><tr><th>Test</th><th>13-Sep-2016</th><th>Reference&#xA0;Range</th><th>Unit</th></tr><tr><td>Odor of Urine</td></tr></table></div>"
        },
        "status": "final",
        "subject": {
          "reference": "urn:uuid:28b5f5ce-8734-4d8f-9eb9-6dffa255ad03",
          "display": "Meaghan Neary"
        },
        "effectiveDateTime": "2016-09-12T22:11:04Z",
        "specimen": {
          "reference": "urn:uuid:aad9bf4b-74c6-49ef-af27-7154eebf331f"
        }
      }
    },
    {
      "fullUrl": "urn:uuid:850068b9-c33a-4629-bf5d-58c627cc7e4c",
      "resource": {
        "resourceType": "Observation",
        "id": "850068b9-c33a-4629-bf5d-58c627cc7e4c",
        "meta": {
          "profile": [
            "http://hl7.eu/fhir/laboratory/StructureDefinition/Observation-resultslab-eu-lab"
          ]
        },
        "performer": [
          {
            "display": "The Central European Lab"
          }
        ],
        "category": [
          {
            "coding": [
              {
                "system": "http://terminology.hl7.org/CodeSystem/observation-category",
                "code": "laboratory"
              }
            ]
          }
        ],
        "code": {
          "coding": [
            {
              "code": "32167-9",
              "system": "http://loinc.org",
              "display": "Clarity of Urine"
            }
          ],
          "text": "Clarity of Urine"
        },
        "text": {
          "status": "generated",
          "div": "<div xmlns=\"http://www.w3.org/1999/xhtml\"><table class=\"hl7__eu__lab__report\"><tr><th>Test</th><th>13-Sep-2016</th><th>Reference&#xA0;Range</th><th>Unit</th></tr><tr><td>Clarity of Urine</td></tr></table></div>"
        },
        "status": "final",
        "subject": {
          "reference": "urn:uuid:28b5f5ce-8734-4d8f-9eb9-6dffa255ad03",
          "display": "Meaghan Neary"
        },
        "effectiveDateTime": "2016-09-12T22:11:04Z",
        "specimen": {
          "reference": "urn:uuid:aad9bf4b-74c6-49ef-af27-7154eebf331f"
        }
      }
    },
    {
      "fullUrl": "urn:uuid:54fe936b-4d30-4c36-bb4d-1f0cb4ed8bd9",
      "resource": {
        "resourceType": "Observation",
        "id": "54fe936b-4d30-4c36-bb4d-1f0cb4ed8bd9",
        "meta": {
          "profile": [
            "http://hl7.eu/fhir/laboratory/StructureDefinition/Observation-resultslab-eu-lab"
          ]
        },
        "performer": [
          {
            "display": "The Central European Lab"
          }
        ],
        "category": [
          {
            "coding": [
              {
                "system": "http://terminology.hl7.org/CodeSystem/observation-category",
                "code": "laboratory"
              }
            ]
          }
        ],
        "code": {
          "coding": [
            {
              "code": "5778-6",
              "system": "http://loinc.org",
              "display": "Color of Urine"
            }
          ],
          "text": "Color of Urine"
        },
        "text": {
          "status": "generated",
          "div": "<div xmlns=\"http://www.w3.org/1999/xhtml\"><table class=\"hl7__eu__lab__report\"><tr><th>Test</th><th>13-Sep-2016</th><th>Reference&#xA0;Range</th><th>Unit</th></tr><tr><td>Color of Urine</td></tr></table></div>"
        },
        "status": "final",
        "subject": {
          "reference": "urn:uuid:28b5f5ce-8734-4d8f-9eb9-6dffa255ad03",
          "display": "Meaghan Neary"
        },
        "effectiveDateTime": "2016-09-12T22:11:04Z",
        "specimen": {
          "reference": "urn:uuid:aad9bf4b-74c6-49ef-af27-7154eebf331f"
        }
      }
    },
    {
      "fullUrl": "urn:uuid:7a31376b-71d1-43a4-ac17-ce938ecbf82f",
      "resource": {
        "resourceType": "Observation",
        "id": "7a31376b-71d1-43a4-ac17-ce938ecbf82f",
        "meta": {
          "profile": [
            "http://hl7.eu/fhir/laboratory/StructureDefinition/Observation-resultslab-eu-lab"
          ]
        },
        "performer": [
          {
            "display": "The Central European Lab"
          }
        ],
        "category": [
          {
            "coding": [
              {
                "system": "http://terminology.hl7.org/CodeSystem/observation-category",
                "code": "laboratory"
              }
            ]
          }
        ],
        "code": {
          "coding": [
            {
              "code": "5792-7",
              "system": "http://loinc.org",
              "display": "Glucose [Mass/volume] in Urine by Test strip"
            }
          ],
          "text": "Glucose [Mass/volume] in Urine by Test strip"
        },
        "valueQuantity": {
          "system": "http://unitsofmeasure.org",
          "value": 0.6,
          "unit": "mg/dL",
          "code": "mg/dL"
        },
        "referenceRange": [
          {
            "low": {
              "value": 0.8,
              "code": "mg/dL",
              "system": "http://unitsofmeasure.org"
            }
          },
          {
            "high": {
              "value": 0,
              "code": "mg/dL",
              "system": "http://unitsofmeasure.org"
            }
          }
        ],
        "interpretation": [
          {
            "coding": [
              {
                "code": "L",
                "system": "http://terminology.hl7.org/CodeSystem/v3-ObservationInterpretation",
                "display": "Low"
              }
            ]
          }
        ],
        "text": {
          "status": "generated",
          "div": "<div xmlns=\"http://www.w3.org/1999/xhtml\"><table class=\"hl7__eu__lab__report\"><tr><th>Test</th><th>13-Sep-2016</th><th>Reference&#xA0;Range</th><th>Unit</th></tr><tr><td>Glucose [Mass/volume] in Urine by Test strip</td><td>0.6</td><td>0.8 - 0</td><td>L</td><td>mg/dL</td></tr></table></div>"
        },
        "status": "final",
        "subject": {
          "reference": "urn:uuid:28b5f5ce-8734-4d8f-9eb9-6dffa255ad03",
          "display": "Meaghan Neary"
        },
        "effectiveDateTime": "2016-09-12T22:11:04Z",
        "specimen": {
          "reference": "urn:uuid:aad9bf4b-74c6-49ef-af27-7154eebf331f"
        }
      }
    },
    {
      "fullUrl": "urn:uuid:62709c7c-13e3-40b8-8740-fc707a9a8386",
      "resource": {
        "resourceType": "Observation",
        "id": "62709c7c-13e3-40b8-8740-fc707a9a8386",
        "meta": {
          "profile": [
            "http://hl7.eu/fhir/laboratory/StructureDefinition/Observation-resultslab-eu-lab"
          ]
        },
        "performer": [
          {
            "display": "The Central European Lab"
          }
        ],
        "category": [
          {
            "coding": [
              {
                "system": "http://terminology.hl7.org/CodeSystem/observation-category",
                "code": "laboratory"
              }
            ]
          }
        ],
        "code": {
          "coding": [
            {
              "code": "25428-4",
              "system": "http://loinc.org",
              "display": "Glucose [Presence] in Urine by Test strip"
            }
          ],
          "text": "Glucose [Presence] in Urine by Test strip"
        },
        "text": {
          "status": "generated",
          "div": "<div xmlns=\"http://www.w3.org/1999/xhtml\"><table class=\"hl7__eu__lab__report\"><tr><th>Test</th><th>13-Sep-2016</th><th>Reference&#xA0;Range</th><th>Unit</th></tr><tr><td>Glucose [Presence] in Urine by Test strip</td></tr></table></div>"
        },
        "status": "final",
        "subject": {
          "reference": "urn:uuid:28b5f5ce-8734-4d8f-9eb9-6dffa255ad03",
          "display": "Meaghan Neary"
        },
        "effectiveDateTime": "2016-09-12T22:11:04Z",
        "specimen": {
          "reference": "urn:uuid:aad9bf4b-74c6-49ef-af27-7154eebf331f"
        }
      }
    },
    {
      "fullUrl": "urn:uuid:f97bacac-84b2-44d4-994e-5f76b7145e4b",
      "resource": {
        "resourceType": "Observation",
        "id": "f97bacac-84b2-44d4-994e-5f76b7145e4b",
        "meta": {
          "profile": [
            "http://hl7.eu/fhir/laboratory/StructureDefinition/Observation-resultslab-eu-lab"
          ]
        },
        "performer": [
          {
            "display": "The Central European Lab"
          }
        ],
        "category": [
          {
            "coding": [
              {
                "system": "http://terminology.hl7.org/CodeSystem/observation-category",
                "code": "laboratory"
              }
            ]
          }
        ],
        "code": {
          "coding": [
            {
              "code": "20505-4",
              "system": "http://loinc.org",
              "display": "Bilirubin.total [Mass/volume] in Urine by Test strip"
            }
          ],
          "text": "Bilirubin.total [Mass/volume] in Urine by Test strip"
        },
        "valueQuantity": {
          "system": "http://unitsofmeasure.org",
          "value": 0.7,
          "unit": "mg/dL",
          "code": "mg/dL"
        },
        "referenceRange": [
          {
            "low": {
              "value": 0,
              "code": "mg/dL",
              "system": "http://unitsofmeasure.org"
            }
          },
          {
            "high": {
              "value": 1,
              "code": "mg/dL",
              "system": "http://unitsofmeasure.org"
            }
          }
        ],
        "text": {
          "status": "generated",
          "div": "<div xmlns=\"http://www.w3.org/1999/xhtml\"><table class=\"hl7__eu__lab__report\"><tr><th>Test</th><th>13-Sep-2016</th><th>Reference&#xA0;Range</th><th>Unit</th></tr><tr><td>Bilirubin.total [Mass/volume] in Urine by Test strip</td><td>0.7</td><td>0 - 1</td><td></td><td>mg/dL</td></tr></table></div>"
        },
        "status": "final",
        "subject": {
          "reference": "urn:uuid:28b5f5ce-8734-4d8f-9eb9-6dffa255ad03",
          "display": "Meaghan Neary"
        },
        "effectiveDateTime": "2016-09-12T22:11:04Z",
        "specimen": {
          "reference": "urn:uuid:aad9bf4b-74c6-49ef-af27-7154eebf331f"
        }
      }
    },
    {
      "fullUrl": "urn:uuid:0b895378-cf18-47be-bd1e-a7ecbeae659c",
      "resource": {
        "resourceType": "Observation",
        "id": "0b895378-cf18-47be-bd1e-a7ecbeae659c",
        "meta": {
          "profile": [
            "http://hl7.eu/fhir/laboratory/StructureDefinition/Observation-resultslab-eu-lab"
          ]
        },
        "performer": [
          {
            "display": "The Central European Lab"
          }
        ],
        "category": [
          {
            "coding": [
              {
                "system": "http://terminology.hl7.org/CodeSystem/observation-category",
                "code": "laboratory"
              }
            ]
          }
        ],
        "code": {
          "coding": [
            {
              "code": "5770-3",
              "system": "http://loinc.org",
              "display": "Bilirubin.total [Presence] in Urine by Test strip"
            }
          ],
          "text": "Bilirubin.total [Presence] in Urine by Test strip"
        },
        "text": {
          "status": "generated",
          "div": "<div xmlns=\"http://www.w3.org/1999/xhtml\"><table class=\"hl7__eu__lab__report\"><tr><th>Test</th><th>13-Sep-2016</th><th>Reference&#xA0;Range</th><th>Unit</th></tr><tr><td>Bilirubin.total [Presence] in Urine by Test strip</td></tr></table></div>"
        },
        "status": "final",
        "subject": {
          "reference": "urn:uuid:28b5f5ce-8734-4d8f-9eb9-6dffa255ad03",
          "display": "Meaghan Neary"
        },
        "effectiveDateTime": "2016-09-12T22:11:04Z",
        "specimen": {
          "reference": "urn:uuid:aad9bf4b-74c6-49ef-af27-7154eebf331f"
        }
      }
    },
    {
      "fullUrl": "urn:uuid:d5f5a546-71ce-4a8e-aab7-8bfda05b8368",
      "resource": {
        "resourceType": "Observation",
        "id": "d5f5a546-71ce-4a8e-aab7-8bfda05b8368",
        "meta": {
          "profile": [
            "http://hl7.eu/fhir/laboratory/StructureDefinition/Observation-resultslab-eu-lab"
          ]
        },
        "performer": [
          {
            "display": "The Central European Lab"
          }
        ],
        "category": [
          {
            "coding": [
              {
                "system": "http://terminology.hl7.org/CodeSystem/observation-category",
                "code": "laboratory"
              }
            ]
          }
        ],
        "code": {
          "coding": [
            {
              "code": "5797-6",
              "system": "http://loinc.org",
              "display": "Ketones [Mass/volume] in Urine by Test strip"
            }
          ],
          "text": "Ketones [Mass/volume] in Urine by Test strip"
        },
        "valueQuantity": {
          "system": "http://unitsofmeasure.org",
          "value": 19.9,
          "unit": "mg/dL",
          "code": "mg/dL"
        },
        "referenceRange": [
          {
            "low": {
              "value": 0,
              "code": "mg/dL",
              "system": "http://unitsofmeasure.org"
            }
          },
          {
            "high": {
              "value": 4,
              "code": "mg/dL",
              "system": "http://unitsofmeasure.org"
            }
          }
        ],
        "interpretation": [
          {
            "coding": [
              {
                "code": "H",
                "system": "http://terminology.hl7.org/CodeSystem/v3-ObservationInterpretation",
                "display": "High"
              }
            ]
          }
        ],
        "text": {
          "status": "generated",
          "div": "<div xmlns=\"http://www.w3.org/1999/xhtml\"><table class=\"hl7__eu__lab__report\"><tr><th>Test</th><th>13-Sep-2016</th><th>Reference&#xA0;Range</th><th>Unit</th></tr><tr><td>Ketones [Mass/volume] in Urine by Test strip</td><td>19.9</td><td>0 - 4</td><td>H</td><td>mg/dL</td></tr></table></div>"
        },
        "status": "final",
        "subject": {
          "reference": "urn:uuid:28b5f5ce-8734-4d8f-9eb9-6dffa255ad03",
          "display": "Meaghan Neary"
        },
        "effectiveDateTime": "2016-09-12T22:11:04Z",
        "specimen": {
          "reference": "urn:uuid:aad9bf4b-74c6-49ef-af27-7154eebf331f"
        }
      }
    },
    {
      "fullUrl": "urn:uuid:9faf3614-82a4-49ef-a777-d6f47f7998b4",
      "resource": {
        "resourceType": "Observation",
        "id": "9faf3614-82a4-49ef-a777-d6f47f7998b4",
        "meta": {
          "profile": [
            "http://hl7.eu/fhir/laboratory/StructureDefinition/Observation-resultslab-eu-lab"
          ]
        },
        "performer": [
          {
            "display": "The Central European Lab"
          }
        ],
        "category": [
          {
            "coding": [
              {
                "system": "http://terminology.hl7.org/CodeSystem/observation-category",
                "code": "laboratory"
              }
            ]
          }
        ],
        "code": {
          "coding": [
            {
              "code": "2514-8",
              "system": "http://loinc.org",
              "display": "Ketones [Presence] in Urine by Test strip"
            }
          ],
          "text": "Ketones [Presence] in Urine by Test strip"
        },
        "text": {
          "status": "generated",
          "div": "<div xmlns=\"http://www.w3.org/1999/xhtml\"><table class=\"hl7__eu__lab__report\"><tr><th>Test</th><th>13-Sep-2016</th><th>Reference&#xA0;Range</th><th>Unit</th></tr><tr><td>Ketones [Presence] in Urine by Test strip</td></tr></table></div>"
        },
        "status": "final",
        "subject": {
          "reference": "urn:uuid:28b5f5ce-8734-4d8f-9eb9-6dffa255ad03",
          "display": "Meaghan Neary"
        },
        "effectiveDateTime": "2016-09-12T22:11:04Z",
        "specimen": {
          "reference": "urn:uuid:aad9bf4b-74c6-49ef-af27-7154eebf331f"
        }
      }
    },
    {
      "fullUrl": "urn:uuid:10050e40-4082-452c-a6cd-a96abf5beb06",
      "resource": {
        "resourceType": "Observation",
        "id": "10050e40-4082-452c-a6cd-a96abf5beb06",
        "meta": {
          "profile": [
            "http://hl7.eu/fhir/laboratory/StructureDefinition/Observation-resultslab-eu-lab"
          ]
        },
        "performer": [
          {
            "display": "The Central European Lab"
          }
        ],
        "category": [
          {
            "coding": [
              {
                "system": "http://terminology.hl7.org/CodeSystem/observation-category",
                "code": "laboratory"
              }
            ]
          }
        ],
        "code": {
          "coding": [
            {
              "code": "5811-5",
              "system": "http://loinc.org",
              "display": "Specific gravity of Urine by Test strip"
            }
          ],
          "text": "Specific gravity of Urine by Test strip"
        },
        "valueQuantity": {
          "system": "http://unitsofmeasure.org",
          "value": 1,
          "unit": "{nominal}",
          "code": "{nominal}"
        },
        "referenceRange": [
          {
            "low": {
              "value": 1.005,
              "code": "g/mL",
              "system": "http://unitsofmeasure.org"
            }
          },
          {
            "high": {
              "value": 1.03,
              "code": "g/mL",
              "system": "http://unitsofmeasure.org"
            }
          }
        ],
        "interpretation": [
          {
            "coding": [
              {
                "code": "L",
                "system": "http://terminology.hl7.org/CodeSystem/v3-ObservationInterpretation",
                "display": "Low"
              }
            ]
          }
        ],
        "text": {
          "status": "generated",
          "div": "<div xmlns=\"http://www.w3.org/1999/xhtml\"><table class=\"hl7__eu__lab__report\"><tr><th>Test</th><th>13-Sep-2016</th><th>Reference&#xA0;Range</th><th>Unit</th></tr><tr><td>Specific gravity of Urine by Test strip</td><td>1.0</td><td>1.005 - 1.03</td><td>L</td><td>{nominal}</td></tr></table></div>"
        },
        "status": "final",
        "subject": {
          "reference": "urn:uuid:28b5f5ce-8734-4d8f-9eb9-6dffa255ad03",
          "display": "Meaghan Neary"
        },
        "effectiveDateTime": "2016-09-12T22:11:04Z",
        "specimen": {
          "reference": "urn:uuid:aad9bf4b-74c6-49ef-af27-7154eebf331f"
        }
      }
    },
    {
      "fullUrl": "urn:uuid:fe32a359-6b53-4078-aae1-ff80b4fe471c",
      "resource": {
        "resourceType": "Observation",
        "id": "fe32a359-6b53-4078-aae1-ff80b4fe471c",
        "meta": {
          "profile": [
            "http://hl7.eu/fhir/laboratory/StructureDefinition/Observation-resultslab-eu-lab"
          ]
        },
        "performer": [
          {
            "display": "The Central European Lab"
          }
        ],
        "category": [
          {
            "coding": [
              {
                "system": "http://terminology.hl7.org/CodeSystem/observation-category",
                "code": "laboratory"
              }
            ]
          }
        ],
        "code": {
          "coding": [
            {
              "code": "5803-2",
              "system": "http://loinc.org",
              "display": "pH of Urine by Test strip"
            }
          ],
          "text": "pH of Urine by Test strip"
        },
        "valueQuantity": {
          "system": "http://unitsofmeasure.org",
          "value": 6.4,
          "unit": "pH",
          "code": "pH"
        },
        "referenceRange": [
          {
            "low": {
              "value": 4.6,
              "code": "pH",
              "system": "http://unitsofmeasure.org"
            }
          },
          {
            "high": {
              "value": 7,
              "code": "pH",
              "system": "http://unitsofmeasure.org"
            }
          }
        ],
        "text": {
          "status": "generated",
          "div": "<div xmlns=\"http://www.w3.org/1999/xhtml\"><table class=\"hl7__eu__lab__report\"><tr><th>Test</th><th>13-Sep-2016</th><th>Reference&#xA0;Range</th><th>Unit</th></tr><tr><td>pH of Urine by Test strip</td><td>6.4</td><td>4.6 - 7</td><td></td><td>pH</td></tr></table></div>"
        },
        "status": "final",
        "subject": {
          "reference": "urn:uuid:28b5f5ce-8734-4d8f-9eb9-6dffa255ad03",
          "display": "Meaghan Neary"
        },
        "effectiveDateTime": "2016-09-12T22:11:04Z",
        "specimen": {
          "reference": "urn:uuid:aad9bf4b-74c6-49ef-af27-7154eebf331f"
        }
      }
    },
    {
      "fullUrl": "urn:uuid:4b58166e-37f9-4a10-a0d1-ee93b862e4c5",
      "resource": {
        "resourceType": "Observation",
        "id": "4b58166e-37f9-4a10-a0d1-ee93b862e4c5",
        "meta": {
          "profile": [
            "http://hl7.eu/fhir/laboratory/StructureDefinition/Observation-resultslab-eu-lab"
          ]
        },
        "performer": [
          {
            "display": "The Central European Lab"
          }
        ],
        "category": [
          {
            "coding": [
              {
                "system": "http://terminology.hl7.org/CodeSystem/observation-category",
                "code": "laboratory"
              }
            ]
          }
        ],
        "code": {
          "coding": [
            {
              "code": "5804-0",
              "system": "http://loinc.org",
              "display": "Protein [Mass/volume] in Urine by Test strip"
            }
          ],
          "text": "Protein [Mass/volume] in Urine by Test strip"
        },
        "valueQuantity": {
          "system": "http://unitsofmeasure.org",
          "value": 154.7,
          "unit": "mg/dL",
          "code": "mg/dL"
        },
        "referenceRange": [
          {
            "low": {
              "value": 0,
              "code": "mg/dL",
              "system": "http://unitsofmeasure.org"
            }
          },
          {
            "high": {
              "value": 14,
              "code": "mg/dL",
              "system": "http://unitsofmeasure.org"
            }
          }
        ],
        "interpretation": [
          {
            "coding": [
              {
                "code": "H",
                "system": "http://terminology.hl7.org/CodeSystem/v3-ObservationInterpretation",
                "display": "High"
              }
            ]
          }
        ],
        "text": {
          "status": "generated",
          "div": "<div xmlns=\"http://www.w3.org/1999/xhtml\"><table class=\"hl7__eu__lab__report\"><tr><th>Test</th><th>13-Sep-2016</th><th>Reference&#xA0;Range</th><th>Unit</th></tr><tr><td>Protein [Mass/volume] in Urine by Test strip</td><td>154.7</td><td>0 - 14</td><td>H</td><td>mg/dL</td></tr></table></div>"
        },
        "status": "final",
        "subject": {
          "reference": "urn:uuid:28b5f5ce-8734-4d8f-9eb9-6dffa255ad03",
          "display": "Meaghan Neary"
        },
        "effectiveDateTime": "2016-09-12T22:11:04Z",
        "specimen": {
          "reference": "urn:uuid:aad9bf4b-74c6-49ef-af27-7154eebf331f"
        }
      }
    },
    {
      "fullUrl": "urn:uuid:d5138b41-440e-4315-b328-dedfeb268577",
      "resource": {
        "resourceType": "Observation",
        "id": "d5138b41-440e-4315-b328-dedfeb268577",
        "meta": {
          "profile": [
            "http://hl7.eu/fhir/laboratory/StructureDefinition/Observation-resultslab-eu-lab"
          ]
        },
        "performer": [
          {
            "display": "The Central European Lab"
          }
        ],
        "category": [
          {
            "coding": [
              {
                "system": "http://terminology.hl7.org/CodeSystem/observation-category",
                "code": "laboratory"
              }
            ]
          }
        ],
        "code": {
          "coding": [
            {
              "code": "20454-5",
              "system": "http://loinc.org",
              "display": "Protein [Presence] in Urine by Test strip"
            }
          ],
          "text": "Protein [Presence] in Urine by Test strip"
        },
        "text": {
          "status": "generated",
          "div": "<div xmlns=\"http://www.w3.org/1999/xhtml\"><table class=\"hl7__eu__lab__report\"><tr><th>Test</th><th>13-Sep-2016</th><th>Reference&#xA0;Range</th><th>Unit</th></tr><tr><td>Protein [Presence] in Urine by Test strip</td></tr></table></div>"
        },
        "status": "final",
        "subject": {
          "reference": "urn:uuid:28b5f5ce-8734-4d8f-9eb9-6dffa255ad03",
          "display": "Meaghan Neary"
        },
        "effectiveDateTime": "2016-09-12T22:11:04Z",
        "specimen": {
          "reference": "urn:uuid:aad9bf4b-74c6-49ef-af27-7154eebf331f"
        }
      }
    },
    {
      "fullUrl": "urn:uuid:af0440b5-4fd6-478a-8157-0d67cc2c6202",
      "resource": {
        "resourceType": "Observation",
        "id": "af0440b5-4fd6-478a-8157-0d67cc2c6202",
        "meta": {
          "profile": [
            "http://hl7.eu/fhir/laboratory/StructureDefinition/Observation-resultslab-eu-lab"
          ]
        },
        "performer": [
          {
            "display": "The Central European Lab"
          }
        ],
        "category": [
          {
            "coding": [
              {
                "system": "http://terminology.hl7.org/CodeSystem/observation-category",
                "code": "laboratory"
              }
            ]
          }
        ],
        "code": {
          "coding": [
            {
              "code": "5802-4",
              "system": "http://loinc.org",
              "display": "Nitrite [Presence] in Urine by Test strip"
            }
          ],
          "text": "Nitrite [Presence] in Urine by Test strip"
        },
        "text": {
          "status": "generated",
          "div": "<div xmlns=\"http://www.w3.org/1999/xhtml\"><table class=\"hl7__eu__lab__report\"><tr><th>Test</th><th>13-Sep-2016</th><th>Reference&#xA0;Range</th><th>Unit</th></tr><tr><td>Nitrite [Presence] in Urine by Test strip</td></tr></table></div>"
        },
        "status": "final",
        "subject": {
          "reference": "urn:uuid:28b5f5ce-8734-4d8f-9eb9-6dffa255ad03",
          "display": "Meaghan Neary"
        },
        "effectiveDateTime": "2016-09-12T22:11:04Z",
        "specimen": {
          "reference": "urn:uuid:aad9bf4b-74c6-49ef-af27-7154eebf331f"
        }
      }
    },
    {
      "fullUrl": "urn:uuid:1a45e5aa-94a7-4bc7-9f1a-3a0da8ff7b94",
      "resource": {
        "resourceType": "Observation",
        "id": "1a45e5aa-94a7-4bc7-9f1a-3a0da8ff7b94",
        "meta": {
          "profile": [
            "http://hl7.eu/fhir/laboratory/StructureDefinition/Observation-resultslab-eu-lab"
          ]
        },
        "performer": [
          {
            "display": "The Central European Lab"
          }
        ],
        "category": [
          {
            "coding": [
              {
                "system": "http://terminology.hl7.org/CodeSystem/observation-category",
                "code": "laboratory"
              }
            ]
          }
        ],
        "code": {
          "coding": [
            {
              "code": "5794-3",
              "system": "http://loinc.org",
              "display": "Hemoglobin [Presence] in Urine by Test strip"
            }
          ],
          "text": "Hemoglobin [Presence] in Urine by Test strip"
        },
        "text": {
          "status": "generated",
          "div": "<div xmlns=\"http://www.w3.org/1999/xhtml\"><table class=\"hl7__eu__lab__report\"><tr><th>Test</th><th>13-Sep-2016</th><th>Reference&#xA0;Range</th><th>Unit</th></tr><tr><td>Hemoglobin [Presence] in Urine by Test strip</td></tr></table></div>"
        },
        "status": "final",
        "subject": {
          "reference": "urn:uuid:28b5f5ce-8734-4d8f-9eb9-6dffa255ad03",
          "display": "Meaghan Neary"
        },
        "effectiveDateTime": "2016-09-12T22:11:04Z",
        "specimen": {
          "reference": "urn:uuid:aad9bf4b-74c6-49ef-af27-7154eebf331f"
        }
      }
    },
    {
      "fullUrl": "urn:uuid:f093107c-6a56-4ab5-9d66-b22d6ba4b507",
      "resource": {
        "resourceType": "Observation",
        "id": "f093107c-6a56-4ab5-9d66-b22d6ba4b507",
        "meta": {
          "profile": [
            "http://hl7.eu/fhir/laboratory/StructureDefinition/Observation-resultslab-eu-lab"
          ]
        },
        "performer": [
          {
            "display": "The Central European Lab"
          }
        ],
        "category": [
          {
            "coding": [
              {
                "system": "http://terminology.hl7.org/CodeSystem/observation-category",
                "code": "laboratory"
              }
            ]
          }
        ],
        "code": {
          "coding": [
            {
              "code": "5799-2",
              "system": "http://loinc.org",
              "display": "Leukocyte esterase [Presence] in Urine by Test strip"
            }
          ],
          "text": "Leukocyte esterase [Presence] in Urine by Test strip"
        },
        "text": {
          "status": "generated",
          "div": "<div xmlns=\"http://www.w3.org/1999/xhtml\"><table class=\"hl7__eu__lab__report\"><tr><th>Test</th><th>13-Sep-2016</th><th>Reference&#xA0;Range</th><th>Unit</th></tr><tr><td>Leukocyte esterase [Presence] in Urine by Test strip</td></tr></table></div>"
        },
        "status": "final",
        "subject": {
          "reference": "urn:uuid:28b5f5ce-8734-4d8f-9eb9-6dffa255ad03",
          "display": "Meaghan Neary"
        },
        "effectiveDateTime": "2016-09-12T22:11:04Z",
        "specimen": {
          "reference": "urn:uuid:aad9bf4b-74c6-49ef-af27-7154eebf331f"
        }
      }
    },
    {
      "fullUrl": "urn:uuid:32fbea74-8967-4b04-8cd2-5d786eb08cdf",
      "resource": {
        "resourceType": "Observation",
        "id": "32fbea74-8967-4b04-8cd2-5d786eb08cdf",
        "meta": {
          "profile": [
            "http://hl7.eu/fhir/laboratory/StructureDefinition/Observation-resultslab-eu-lab"
          ]
        },
        "performer": [
          {
            "display": "The Central European Lab"
          }
        ],
        "category": [
          {
            "coding": [
              {
                "system": "http://terminology.hl7.org/CodeSystem/observation-category",
                "code": "laboratory"
              }
            ]
          }
        ],
        "code": {
          "coding": [
            {
              "code": "4548-4",
              "system": "http://loinc.org",
              "display": "Hemoglobin A1c/Hemoglobin.total in Blood"
            }
          ],
          "text": "Hemoglobin A1c/Hemoglobin.total in Blood"
        },
        "valueQuantity": {
          "system": "http://unitsofmeasure.org",
          "value": 3,
          "unit": "%",
          "code": "%"
        },
        "referenceRange": [
          {
            "low": {
              "value": 4,
              "code": "%",
              "system": "http://unitsofmeasure.org"
            }
          },
          {
            "high": {
              "value": 6.4,
              "code": "%",
              "system": "http://unitsofmeasure.org"
            }
          }
        ],
        "interpretation": [
          {
            "coding": [
              {
                "code": "L",
                "system": "http://terminology.hl7.org/CodeSystem/v3-ObservationInterpretation",
                "display": "Low"
              }
            ]
          }
        ],
        "text": {
          "status": "generated",
          "div": "<div xmlns=\"http://www.w3.org/1999/xhtml\"><table class=\"hl7__eu__lab__report\"><tr><th>Test</th><th>13-Sep-2016</th><th>Reference&#xA0;Range</th><th>Unit</th></tr><tr><td>Hemoglobin A1c/Hemoglobin.total in Blood</td><td>3.0</td><td>4 - 6.4</td><td>L</td><td>%</td></tr></table></div>"
        },
        "status": "final",
        "subject": {
          "reference": "urn:uuid:28b5f5ce-8734-4d8f-9eb9-6dffa255ad03",
          "display": "Meaghan Neary"
        },
        "effectiveDateTime": "2016-09-12T22:11:04Z",
        "specimen": {
          "reference": "urn:uuid:dbeb8fe9-5548-4a46-9cc0-190da9f59314"
        }
      }
    },
    {
      "fullUrl": "urn:uuid:62e40ab7-32cd-4e8c-bbd0-fdf6b7ec3d8d",
      "resource": {
        "resourceType": "Observation",
        "id": "62e40ab7-32cd-4e8c-bbd0-fdf6b7ec3d8d",
        "meta": {
          "profile": [
            "http://hl7.eu/fhir/laboratory/StructureDefinition/Observation-resultslab-eu-lab"
          ]
        },
        "performer": [
          {
            "display": "The Central European Lab"
          }
        ],
        "category": [
          {
            "coding": [
              {
                "system": "http://terminology.hl7.org/CodeSystem/observation-category",
                "code": "laboratory"
              }
            ]
          }
        ],
        "code": {
          "coding": [
            {
              "code": "2339-0",
              "system": "http://loinc.org",
              "display": "Glucose [Mass/volume] in Blood"
            }
          ],
          "text": "Glucose [Mass/volume] in Blood"
        },
        "valueQuantity": {
          "system": "http://unitsofmeasure.org",
          "value": 77.9,
          "unit": "mg/dL",
          "code": "mg/dL"
        },
        "referenceRange": [
          {
            "low": {
              "value": 70,
              "code": "mg/dL",
              "system": "http://unitsofmeasure.org"
            }
          },
          {
            "high": {
              "value": 100,
              "code": "mg/dL",
              "system": "http://unitsofmeasure.org"
            }
          }
        ],
        "text": {
          "status": "generated",
          "div": "<div xmlns=\"http://www.w3.org/1999/xhtml\"><table class=\"hl7__eu__lab__report\"><tr><th>Test</th><th>13-Sep-2016</th><th>Reference&#xA0;Range</th><th>Unit</th></tr><tr><td>Glucose [Mass/volume] in Blood</td><td>77.9</td><td>70 - 100</td><td></td><td>mg/dL</td></tr></table></div>"
        },
        "status": "final",
        "subject": {
          "reference": "urn:uuid:28b5f5ce-8734-4d8f-9eb9-6dffa255ad03",
          "display": "Meaghan Neary"
        },
        "effectiveDateTime": "2016-09-12T22:11:04Z",
        "specimen": {
          "reference": "urn:uuid:dbeb8fe9-5548-4a46-9cc0-190da9f59314"
        }
      }
    },
    {
      "fullUrl": "urn:uuid:0f7307bb-0a9b-466e-a6e1-b8fd4b7d83ce",
      "resource": {
        "resourceType": "Observation",
        "id": "0f7307bb-0a9b-466e-a6e1-b8fd4b7d83ce",
        "meta": {
          "profile": [
            "http://hl7.eu/fhir/laboratory/StructureDefinition/Observation-resultslab-eu-lab"
          ]
        },
        "performer": [
          {
            "display": "The Central European Lab"
          }
        ],
        "category": [
          {
            "coding": [
              {
                "system": "http://terminology.hl7.org/CodeSystem/observation-category",
                "code": "laboratory"
              }
            ]
          }
        ],
        "code": {
          "coding": [
            {
              "code": "6299-2",
              "system": "http://loinc.org",
              "display": "Urea nitrogen [Mass/volume] in Blood"
            }
          ],
          "text": "Urea nitrogen [Mass/volume] in Blood"
        },
        "valueQuantity": {
          "system": "http://unitsofmeasure.org",
          "value": 18.2,
          "unit": "mg/dL",
          "code": "mg/dL"
        },
        "referenceRange": [
          {
            "low": {
              "value": 7,
              "code": "mg/dL",
              "system": "http://unitsofmeasure.org"
            }
          },
          {
            "high": {
              "value": 43,
              "code": "mg/dL",
              "system": "http://unitsofmeasure.org"
            }
          }
        ],
        "text": {
          "status": "generated",
          "div": "<div xmlns=\"http://www.w3.org/1999/xhtml\"><table class=\"hl7__eu__lab__report\"><tr><th>Test</th><th>13-Sep-2016</th><th>Reference&#xA0;Range</th><th>Unit</th></tr><tr><td>Urea nitrogen [Mass/volume] in Blood</td><td>18.2</td><td>7 - 43</td><td></td><td>mg/dL</td></tr></table></div>"
        },
        "status": "final",
        "subject": {
          "reference": "urn:uuid:28b5f5ce-8734-4d8f-9eb9-6dffa255ad03",
          "display": "Meaghan Neary"
        },
        "effectiveDateTime": "2016-09-12T22:11:04Z",
        "specimen": {
          "reference": "urn:uuid:dbeb8fe9-5548-4a46-9cc0-190da9f59314"
        }
      }
    },
    {
      "fullUrl": "urn:uuid:fd729d47-dc5c-47f7-a6a5-f48b61d73ce6",
      "resource": {
        "resourceType": "Observation",
        "id": "fd729d47-dc5c-47f7-a6a5-f48b61d73ce6",
        "meta": {
          "profile": [
            "http://hl7.eu/fhir/laboratory/StructureDefinition/Observation-resultslab-eu-lab"
          ]
        },
        "performer": [
          {
            "display": "The Central European Lab"
          }
        ],
        "category": [
          {
            "coding": [
              {
                "system": "http://terminology.hl7.org/CodeSystem/observation-category",
                "code": "laboratory"
              }
            ]
          }
        ],
        "code": {
          "coding": [
            {
              "code": "38483-4",
              "system": "http://loinc.org",
              "display": "Creatinine [Mass/volume] in Blood"
            }
          ],
          "text": "Creatinine [Mass/volume] in Blood"
        },
        "valueQuantity": {
          "system": "http://unitsofmeasure.org",
          "value": 1.8,
          "unit": "mg/dL",
          "code": "mg/dL"
        },
        "referenceRange": [
          {
            "low": {
              "value": 0.6,
              "code": "mg/dL",
              "system": "http://unitsofmeasure.org"
            }
          },
          {
            "high": {
              "value": 1.1,
              "code": "mg/dL",
              "system": "http://unitsofmeasure.org"
            }
          }
        ],
        "interpretation": [
          {
            "coding": [
              {
                "code": "H",
                "system": "http://terminology.hl7.org/CodeSystem/v3-ObservationInterpretation",
                "display": "High"
              }
            ]
          }
        ],
        "text": {
          "status": "generated",
          "div": "<div xmlns=\"http://www.w3.org/1999/xhtml\"><table class=\"hl7__eu__lab__report\"><tr><th>Test</th><th>13-Sep-2016</th><th>Reference&#xA0;Range</th><th>Unit</th></tr><tr><td>Creatinine [Mass/volume] in Blood</td><td>1.8</td><td>0.6 - 1.1</td><td>H</td><td>mg/dL</td></tr></table></div>"
        },
        "status": "final",
        "subject": {
          "reference": "urn:uuid:28b5f5ce-8734-4d8f-9eb9-6dffa255ad03",
          "display": "Meaghan Neary"
        },
        "effectiveDateTime": "2016-09-12T22:11:04Z",
        "specimen": {
          "reference": "urn:uuid:dbeb8fe9-5548-4a46-9cc0-190da9f59314"
        }
      }
    },
    {
      "fullUrl": "urn:uuid:d0c98982-924a-4547-b0b6-61c689148086",
      "resource": {
        "resourceType": "Observation",
        "id": "d0c98982-924a-4547-b0b6-61c689148086",
        "meta": {
          "profile": [
            "http://hl7.eu/fhir/laboratory/StructureDefinition/Observation-resultslab-eu-lab"
          ]
        },
        "performer": [
          {
            "display": "The Central European Lab"
          }
        ],
        "category": [
          {
            "coding": [
              {
                "system": "http://terminology.hl7.org/CodeSystem/observation-category",
                "code": "laboratory"
              }
            ]
          }
        ],
        "code": {
          "coding": [
            {
              "code": "49765-1",
              "system": "http://loinc.org",
              "display": "Calcium [Mass/volume] in Blood"
            }
          ],
          "text": "Calcium [Mass/volume] in Blood"
        },
        "valueQuantity": {
          "system": "http://unitsofmeasure.org",
          "value": 9.6,
          "unit": "mg/dL",
          "code": "mg/dL"
        },
        "referenceRange": [
          {
            "low": {
              "value": 8.5,
              "code": "mg/dL",
              "system": "http://unitsofmeasure.org"
            }
          },
          {
            "high": {
              "value": 10.5,
              "code": "mg/dL",
              "system": "http://unitsofmeasure.org"
            }
          }
        ],
        "text": {
          "status": "generated",
          "div": "<div xmlns=\"http://www.w3.org/1999/xhtml\"><table class=\"hl7__eu__lab__report\"><tr><th>Test</th><th>13-Sep-2016</th><th>Reference&#xA0;Range</th><th>Unit</th></tr><tr><td>Calcium [Mass/volume] in Blood</td><td>9.6</td><td>8.5 - 10.5</td><td></td><td>mg/dL</td></tr></table></div>"
        },
        "status": "final",
        "subject": {
          "reference": "urn:uuid:28b5f5ce-8734-4d8f-9eb9-6dffa255ad03",
          "display": "Meaghan Neary"
        },
        "effectiveDateTime": "2016-09-12T22:11:04Z",
        "specimen": {
          "reference": "urn:uuid:dbeb8fe9-5548-4a46-9cc0-190da9f59314"
        }
      }
    },
    {
      "fullUrl": "urn:uuid:41599feb-3a8c-44b0-bf34-2814a8bd05bb",
      "resource": {
        "resourceType": "Observation",
        "id": "41599feb-3a8c-44b0-bf34-2814a8bd05bb",
        "meta": {
          "profile": [
            "http://hl7.eu/fhir/laboratory/StructureDefinition/Observation-resultslab-eu-lab"
          ]
        },
        "performer": [
          {
            "display": "The Central European Lab"
          }
        ],
        "category": [
          {
            "coding": [
              {
                "system": "http://terminology.hl7.org/CodeSystem/observation-category",
                "code": "laboratory"
              }
            ]
          }
        ],
        "code": {
          "coding": [
            {
              "code": "2947-0",
              "system": "http://loinc.org",
              "display": "Sodium [Moles/volume] in Blood"
            }
          ],
          "text": "Sodium [Moles/volume] in Blood"
        },
        "valueQuantity": {
          "system": "http://unitsofmeasure.org",
          "value": 141.5,
          "unit": "mmol/L",
          "code": "mmol/L"
        },
        "referenceRange": [
          {
            "low": {
              "value": 135,
              "code": "mmol/L",
              "system": "http://unitsofmeasure.org"
            }
          },
          {
            "high": {
              "value": 145,
              "code": "mmol/L",
              "system": "http://unitsofmeasure.org"
            }
          }
        ],
        "text": {
          "status": "generated",
          "div": "<div xmlns=\"http://www.w3.org/1999/xhtml\"><table class=\"hl7__eu__lab__report\"><tr><th>Test</th><th>13-Sep-2016</th><th>Reference&#xA0;Range</th><th>Unit</th></tr><tr><td>Sodium [Moles/volume] in Blood</td><td>141.5</td><td>135 - 145</td><td></td><td>mmol/L</td></tr></table></div>"
        },
        "status": "final",
        "subject": {
          "reference": "urn:uuid:28b5f5ce-8734-4d8f-9eb9-6dffa255ad03",
          "display": "Meaghan Neary"
        },
        "effectiveDateTime": "2016-09-12T22:11:04Z",
        "specimen": {
          "reference": "urn:uuid:dbeb8fe9-5548-4a46-9cc0-190da9f59314"
        }
      }
    },
    {
      "fullUrl": "urn:uuid:d6a308b3-829b-44f3-9a67-94c29314b152",
      "resource": {
        "resourceType": "Observation",
        "id": "d6a308b3-829b-44f3-9a67-94c29314b152",
        "meta": {
          "profile": [
            "http://hl7.eu/fhir/laboratory/StructureDefinition/Observation-resultslab-eu-lab"
          ]
        },
        "performer": [
          {
            "display": "The Central European Lab"
          }
        ],
        "category": [
          {
            "coding": [
              {
                "system": "http://terminology.hl7.org/CodeSystem/observation-category",
                "code": "laboratory"
              }
            ]
          }
        ],
        "code": {
          "coding": [
            {
              "code": "6298-4",
              "system": "http://loinc.org",
              "display": "Potassium [Moles/volume] in Blood"
            }
          ],
          "text": "Potassium [Moles/volume] in Blood"
        },
        "valueQuantity": {
          "system": "http://unitsofmeasure.org",
          "value": 4.4,
          "unit": "mmol/L",
          "code": "mmol/L"
        },
        "referenceRange": [
          {
            "low": {
              "value": 3.5,
              "code": "mmol/L",
              "system": "http://unitsofmeasure.org"
            }
          },
          {
            "high": {
              "value": 5.1,
              "code": "mmol/L",
              "system": "http://unitsofmeasure.org"
            }
          }
        ],
        "text": {
          "status": "generated",
          "div": "<div xmlns=\"http://www.w3.org/1999/xhtml\"><table class=\"hl7__eu__lab__report\"><tr><th>Test</th><th>13-Sep-2016</th><th>Reference&#xA0;Range</th><th>Unit</th></tr><tr><td>Potassium [Moles/volume] in Blood</td><td>4.4</td><td>3.5 - 5.1</td><td></td><td>mmol/L</td></tr></table></div>"
        },
        "status": "final",
        "subject": {
          "reference": "urn:uuid:28b5f5ce-8734-4d8f-9eb9-6dffa255ad03",
          "display": "Meaghan Neary"
        },
        "effectiveDateTime": "2016-09-12T22:11:04Z",
        "specimen": {
          "reference": "urn:uuid:dbeb8fe9-5548-4a46-9cc0-190da9f59314"
        }
      }
    },
    {
      "fullUrl": "urn:uuid:bdec6a4c-abc7-491f-8e25-5c576c09281b",
      "resource": {
        "resourceType": "Observation",
        "id": "bdec6a4c-abc7-491f-8e25-5c576c09281b",
        "meta": {
          "profile": [
            "http://hl7.eu/fhir/laboratory/StructureDefinition/Observation-resultslab-eu-lab"
          ]
        },
        "performer": [
          {
            "display": "The Central European Lab"
          }
        ],
        "category": [
          {
            "coding": [
              {
                "system": "http://terminology.hl7.org/CodeSystem/observation-category",
                "code": "laboratory"
              }
            ]
          }
        ],
        "code": {
          "coding": [
            {
              "code": "2069-3",
              "system": "http://loinc.org",
              "display": "Chloride [Moles/volume] in Blood"
            }
          ],
          "text": "Chloride [Moles/volume] in Blood"
        },
        "valueQuantity": {
          "system": "http://unitsofmeasure.org",
          "value": 109.2,
          "unit": "mmol/L",
          "code": "mmol/L"
        },
        "referenceRange": [
          {
            "low": {
              "value": 98,
              "code": "mmol/L",
              "system": "http://unitsofmeasure.org"
            }
          },
          {
            "high": {
              "value": 108,
              "code": "mmol/L",
              "system": "http://unitsofmeasure.org"
            }
          }
        ],
        "interpretation": [
          {
            "coding": [
              {
                "code": "H",
                "system": "http://terminology.hl7.org/CodeSystem/v3-ObservationInterpretation",
                "display": "High"
              }
            ]
          }
        ],
        "text": {
          "status": "generated",
          "div": "<div xmlns=\"http://www.w3.org/1999/xhtml\"><table class=\"hl7__eu__lab__report\"><tr><th>Test</th><th>13-Sep-2016</th><th>Reference&#xA0;Range</th><th>Unit</th></tr><tr><td>Chloride [Moles/volume] in Blood</td><td>109.2</td><td>98 - 108</td><td>H</td><td>mmol/L</td></tr></table></div>"
        },
        "status": "final",
        "subject": {
          "reference": "urn:uuid:28b5f5ce-8734-4d8f-9eb9-6dffa255ad03",
          "display": "Meaghan Neary"
        },
        "effectiveDateTime": "2016-09-12T22:11:04Z",
        "specimen": {
          "reference": "urn:uuid:dbeb8fe9-5548-4a46-9cc0-190da9f59314"
        }
      }
    },
    {
      "fullUrl": "urn:uuid:34a4c9bc-2bd0-4056-93dd-9d9711427b89",
      "resource": {
        "resourceType": "Observation",
        "id": "34a4c9bc-2bd0-4056-93dd-9d9711427b89",
        "meta": {
          "profile": [
            "http://hl7.eu/fhir/laboratory/StructureDefinition/Observation-resultslab-eu-lab"
          ]
        },
        "performer": [
          {
            "display": "The Central European Lab"
          }
        ],
        "category": [
          {
            "coding": [
              {
                "system": "http://terminology.hl7.org/CodeSystem/observation-category",
                "code": "laboratory"
              }
            ]
          }
        ],
        "code": {
          "coding": [
            {
              "code": "20565-8",
              "system": "http://loinc.org",
              "display": "Carbon dioxide, total [Moles/volume] in Blood"
            }
          ],
          "text": "Carbon dioxide, total [Moles/volume] in Blood"
        },
        "valueQuantity": {
          "system": "http://unitsofmeasure.org",
          "value": 20.6,
          "unit": "mmol/L",
          "code": "mmol/L"
        },
        "referenceRange": [
          {
            "low": {
              "value": 22,
              "code": "mmol/L",
              "system": "http://unitsofmeasure.org"
            }
          },
          {
            "high": {
              "value": 29,
              "code": "mmol/L",
              "system": "http://unitsofmeasure.org"
            }
          }
        ],
        "interpretation": [
          {
            "coding": [
              {
                "code": "L",
                "system": "http://terminology.hl7.org/CodeSystem/v3-ObservationInterpretation",
                "display": "Low"
              }
            ]
          }
        ],
        "text": {
          "status": "generated",
          "div": "<div xmlns=\"http://www.w3.org/1999/xhtml\"><table class=\"hl7__eu__lab__report\"><tr><th>Test</th><th>13-Sep-2016</th><th>Reference&#xA0;Range</th><th>Unit</th></tr><tr><td>Carbon dioxide, total [Moles/volume] in Blood</td><td>20.6</td><td>22 - 29</td><td>L</td><td>mmol/L</td></tr></table></div>"
        },
        "status": "final",
        "subject": {
          "reference": "urn:uuid:28b5f5ce-8734-4d8f-9eb9-6dffa255ad03",
          "display": "Meaghan Neary"
        },
        "effectiveDateTime": "2016-09-12T22:11:04Z",
        "specimen": {
          "reference": "urn:uuid:dbeb8fe9-5548-4a46-9cc0-190da9f59314"
        }
      }
    },
    {
      "fullUrl": "urn:uuid:fcc005cf-866b-45bd-b164-8e04dad363a0",
      "resource": {
        "resourceType": "Device",
        "id": "fcc005cf-866b-45bd-b164-8e04dad363a0",
        "deviceName": [
          {
            "name": "SYNDERAI Synthetic Generator",
            "type": "manufacturer-name"
          }
        ],
        "version": [
          {
            "value": "5.0"
          }
        ],
        "text": {
          "status": "generated",
          "div": "<div xmlns=\"http://www.w3.org/1999/xhtml\">SYNDERAI Synthetic Generator v5.0</div>"
        },
        "status": "active\"",
        "distinctIdentifier": "synderai-generator-50",
        "manufacturer": "SYNDERAI Project"
      }
    },
    {
      "fullUrl": "urn:uuid:3babe740-9553-4d8b-8a39-7e7ee905f518",
      "resource": {
        "resourceType": "Provenance",
        "id": "3babe740-9553-4d8b-8a39-7e7ee905f518",
        "target": [
          {
            "reference": "Patient/28b5f5ce-8734-4d8f-9eb9-6dffa255ad03"
          },
          {
            "reference": "Bundle/04345293-ce82-4d58-b95c-7f76667e717a"
          },
          {
            "reference": "Composition/f49c75c2-ac3a-4c45-afe4-20f432e273e2"
          },
          {
            "reference": "PractitionerRole/ece34a16-29ff-4eee-a5c9-f98ae8cf8bf0"
          },
          {
            "reference": "Practitioner/237764b5-0694-4e82-ac7b-4981a8e9b869"
          },
          {
            "reference": "PractitionerRole/1d434902-3729-45a7-908f-69d726114fee"
          },
          {
            "reference": "Organization/ff050a36-3a37-479d-b373-ee45cfdb666a"
          }
        ],
        "activity": {
          "text": "Synthetic Example Data Generation"
        },
        "policy": [
          "https://synderai.net/synderai-synthetic-data-policy"
        ],
        "agent": [
          {
            "type": {
              "text": "author"
            },
            "who": {
              "reference": "Device/fcc005cf-866b-45bd-b164-8e04dad363a0"
            }
          }
        ],
        "reason": [
          {
            "text": "Interoperability Testing and Training (non-clinical use)"
          }
        ],
        "text": {
          "status": "generated",
          "div": "<div xmlns=\"http://www.w3.org/1999/xhtml\">Provenance for SYNDERAI Synthetic Example Data Resource</div>"
        },
        "recorded": "2016-09-13T00:11:04Z"
      }
    },
    {
      "fullUrl": "urn:uuid:ece34a16-29ff-4eee-a5c9-f98ae8cf8bf0",
      "resource": {
        "resourceType": "PractitionerRole",
        "id": "ece34a16-29ff-4eee-a5c9-f98ae8cf8bf0",
        "meta": {
          "profile": [
            "http://hl7.eu/fhir/base/StructureDefinition/practitionerRole-eu"
          ]
        },
        "text": {
          "status": "generated",
          "div": "<div xmlns=\"http://www.w3.org/1999/xhtml\">Laboratory Role Id: ece34a16-29ff-4eee-a5c9-f98ae8cf8bf0</div>"
        },
        "practitioner": {
          "reference": "urn:uuid:237764b5-0694-4e82-ac7b-4981a8e9b869"
        }
      }
    },
    {
      "fullUrl": "urn:uuid:237764b5-0694-4e82-ac7b-4981a8e9b869",
      "resource": {
        "resourceType": "Practitioner",
        "id": "237764b5-0694-4e82-ac7b-4981a8e9b869",
        "meta": {
          "profile": [
            "http://hl7.eu/fhir/base/StructureDefinition/practitioner-eu"
          ]
        },
        "identifier": [
          {
            "assigner": {
              "display": "HL7 Europe"
            },
            "system": "urn:oid:2.16.840.1.113883.2.51.999",
            "value": "91f1b7bd-a329-4742-9e2f-90835427b143"
          }
        ],
        "name": [
          {
            "prefix": [
              "dr"
            ],
            "given": [
              "Ex"
            ],
            "family": "Ample"
          }
        ],
        "address": [
          {
            "line": [
              "Laboratoire Central Européenne",
              "Boulevard du Jardin Botanique 32"
            ],
            "postalCode": "1000",
            "city": "Brussels",
            "country": "Belgium"
          }
        ],
        "text": {
          "status": "generated",
          "div": "<div xmlns=\"http://www.w3.org/1999/xhtml\">Laboratory: Laboratoire Central Européenne, 1000 Brussels, Belgium</div>"
        }
      }
    }
  ],
  "type": "document",
  "timestamp": "2016-09-13T00:11:04Z"
}
