{
  "resourceType": "Bundle",
  "id": "c41e5027-f2ba-42e5-9f34-29635c0e3fd2",
  "meta": {
    "profile": [
      "http://hl7.eu/fhir/laboratory/StructureDefinition/Bundle-eu-lab"
    ]
  },
  "identifier": {
    "assigner": {
      "display": "HL7 Europe"
    },
    "system": "urn:oid:2.16.840.1.113883.2.51.999",
    "value": "7dd881f0-2115-46fb-9032-224c110a6e2d"
  },
  "entry": [
    {
      "fullUrl": "urn:uuid:2ba37510-0fa8-4dd9-871c-ffdd1f64efc6",
      "resource": {
        "resourceType": "Composition",
        "id": "2ba37510-0fa8-4dd9-871c-ffdd1f64efc6",
        "meta": {
          "profile": [
            "http://hl7.eu/fhir/laboratory/StructureDefinition/Composition-eu-lab"
          ]
        },
        "identifier": {
          "assigner": {
            "display": "HL7 Europe"
          },
          "system": "urn:oid:2.16.840.1.113883.2.51.999",
          "value": "7da9ac51-526f-45fe-be9b-329f40c5da9d"
        },
        "author": [
          {
            "reference": "urn:uuid:176d0836-b665-4727-839a-4e59f3d3813c"
          }
        ],
        "category": [
          {
            "coding": [
              {
                "code": "26436-6",
                "system": "http://loinc.org",
                "display": "Laboratory studies (set)"
              }
            ]
          }
        ],
        "type": {
          "coding": [
            {
              "code": "11502-2",
              "system": "http://loinc.org",
              "display": "Laboratory report"
            }
          ],
          "text": "Laboratory Report"
        },
        "section": [
          {
            "code": {
              "coding": [
                {
                  "code": "26436-6",
                  "system": "http://loinc.org",
                  "display": "Laboratory studies (set)"
                }
              ],
              "text": "Laboratory studies"
            },
            "section": [
              {
                "code": {
                  "coding": [
                    {
                      "code": "$18719-5",
                      "system": "http://loinc.org",
                      "display": "Chemistry studies (set)"
                    }
                  ],
                  "text": "Chemistry"
                },
                "entry": [
                  {
                    "reference": "urn:uuid:27ae2aca-b522-4275-84f2-575bc059b25d"
                  },
                  {
                    "reference": "urn:uuid:f24a3d7e-64b4-44f8-826c-28ad52f6808d"
                  },
                  {
                    "reference": "urn:uuid:5d0a3018-c96d-4020-a257-d27bd46e5a44"
                  },
                  {
                    "reference": "urn:uuid:bd356ab4-7e13-432a-be50-59984b88b834"
                  },
                  {
                    "reference": "urn:uuid:782ef91e-7429-4c6d-9d78-e9974c713ada"
                  },
                  {
                    "reference": "urn:uuid:98239c62-5cff-4659-9052-0872b7fa9157"
                  },
                  {
                    "reference": "urn:uuid:4253635c-6b6f-4a24-83f3-b8f5671a5eae"
                  },
                  {
                    "reference": "urn:uuid:d3781532-0790-4270-b42b-a0066bfa9fe3"
                  },
                  {
                    "reference": "urn:uuid:b0088743-6cfb-48c6-8960-8c1a125f6f8f"
                  },
                  {
                    "reference": "urn:uuid:96af5f81-f015-4599-9ec1-d9e5232bddb0"
                  },
                  {
                    "reference": "urn:uuid:b12b3033-4dda-4540-8b03-7ef4c1a11dc6"
                  },
                  {
                    "reference": "urn:uuid:8f46aabb-ba97-4beb-afa7-e238ad83150b"
                  },
                  {
                    "reference": "urn:uuid:2b917f84-d2c6-4be6-985f-d181549836ef"
                  }
                ],
                "text": {
                  "status": "generated",
                  "div": "<div xmlns=\"http://www.w3.org/1999/xhtml\"><h3>Chemistry</h3><table class=\"hl7__eu__lab__report\"><thead><tr><th>Test</th><th>21-OCT-2018</th><th>Reference&#xA0;Range</th><th>Unit</th></tr></thead><tbody><tr><td>Hemoglobin A1c/Hemoglobin.total in Blood</td><td>6.1</td><td>4.5 - 6.4</td><td>%</td></tr><tr><td>Glucose [Mass/volume] in Blood</td><td>81.7</td><td>70 - 140</td><td>mg/dL</td></tr><tr><td>Urea nitrogen [Mass/volume] in Blood</td><td>14.2</td><td>7 - 25</td><td>mg/dL</td></tr><tr><td>Creatinine [Mass/volume] in Blood</td><td><strong>0.5 L</strong></td><td>0.6 - 1.1</td><td>mg/dL</td></tr><tr><td>Calcium [Mass/volume] in Blood</td><td>9.5</td><td>8.6 - 10.4</td><td>mg/dL</td></tr><tr><td>Sodium [Moles/volume] in Blood</td><td>139.5</td><td>135 - 145</td><td>mmol/L</td></tr><tr><td>Potassium [Moles/volume] in Blood</td><td>5.1</td><td>3.5 - 5.3</td><td>mmol/L</td></tr><tr><td>Chloride [Moles/volume] in Blood</td><td>105.1</td><td>98 - 108</td><td>mmol/L</td></tr><tr><td>Carbon dioxide, total [Moles/volume] in Blood</td><td>27.1</td><td>22 - 32</td><td>mmol/L</td></tr><tr><td>Cholesterol [Mass/volume] in Serum or Plasma</td><td>191.5</td><td>125 - 200</td><td>mg/dL</td></tr><tr><td>Triglyceride [Mass/volume] in Serum or Plasma</td><td>147.1</td><td>10 - 175</td><td>mg/dL</td></tr><tr><td>Cholesterol in LDL [Mass/volume] in Serum or Plasma by Direct assay</td><td>109.6</td><td>0 - 130</td><td>mg/dL</td></tr><tr><td>Cholesterol in HDL [Mass/volume] in Serum or Plasma</td><td>52.5</td><td>50 - 100</td><td>mg/dL</td></tr></tbody></table></div>"
                },
                "title": "Chemistry"
              }
            ],
            "title": "Laboratory Report"
          },
          {
            "text": {
              "status": "generated",
              "div": "<div xmlns=\"http://www.w3.org/1999/xhtml\"><h3>Annotation</h3><table class=\"hl7__eu__lab__report\"><tr><th>Conclusion and Recommendations based on this report and previous findings known to us</th></tr><tr><td>All measured values are within or close to normal ranges, except for a mildly decreased creatinine, which is not clinically concerning in elderly females with low muscle mass. Glucose control (HbA1c) is acceptable, and lipid profile is within target. No acute metabolic or renal abnormalities are evident. Overall, results are unremarkable from a laboratory perspective.</td></tr></table></div>"
            },
            "code": {
              "coding": [
                {
                  "system": "http://loinc.org",
                  "code": "48767-8",
                  "display": "Annotation comment"
                }
              ]
            },
            "title": "Annotation comment"
          }
        ],
        "status": "final",
        "subject": {
          "reference": "urn:uuid:25da5fae-3b25-4de1-bc5b-6c5afe5292ee",
          "display": "Helene Andresen"
        },
        "date": "2018-10-21T00:53:36Z",
        "title": "Laboratory Report",
        "confidentiality": "N"
      }
    },
    {
      "fullUrl": "urn:uuid:7ceb89f9-de06-45fd-9cb6-d5dbbd88c3d7",
      "resource": {
        "resourceType": "DiagnosticReport",
        "id": "7ceb89f9-de06-45fd-9cb6-d5dbbd88c3d7",
        "meta": {
          "profile": [
            "http://hl7.eu/fhir/laboratory/StructureDefinition/DiagnosticReport-eu-lab"
          ]
        },
        "identifier": [
          {
            "assigner": {
              "display": "HL7 Europe"
            },
            "system": "urn:oid:2.16.840.1.113883.2.51.999",
            "value": "7e99a1b8-4ec4-4ce4-b8a3-ce730857441f"
          }
        ],
        "extension": [
          {
            "url": "http://hl7.org/fhir/5.0/StructureDefinition/extension-DiagnosticReport.composition",
            "valueReference": {
              "reference": "urn:uuid:7da9ac51-526f-45fe-be9b-329f40c5da9d"
            }
          }
        ],
        "category": [
          {
            "coding": [
              {
                "code": "26436-6",
                "system": "http://loinc.org",
                "display": "Laboratory studies (set)"
              }
            ]
          }
        ],
        "specimen": [
          {
            "reference": "urn:uuid:d2486d91-4c90-4e3e-a7f1-2cccd36577ab"
          },
          {
            "reference": "urn:uuid:5b0fdd66-9203-4f2d-9872-76b9d0420abd"
          }
        ],
        "result": [
          {
            "reference": "urn:uuid:27ae2aca-b522-4275-84f2-575bc059b25d"
          },
          {
            "reference": "urn:uuid:f24a3d7e-64b4-44f8-826c-28ad52f6808d"
          },
          {
            "reference": "urn:uuid:5d0a3018-c96d-4020-a257-d27bd46e5a44"
          },
          {
            "reference": "urn:uuid:bd356ab4-7e13-432a-be50-59984b88b834"
          },
          {
            "reference": "urn:uuid:782ef91e-7429-4c6d-9d78-e9974c713ada"
          },
          {
            "reference": "urn:uuid:98239c62-5cff-4659-9052-0872b7fa9157"
          },
          {
            "reference": "urn:uuid:4253635c-6b6f-4a24-83f3-b8f5671a5eae"
          },
          {
            "reference": "urn:uuid:d3781532-0790-4270-b42b-a0066bfa9fe3"
          },
          {
            "reference": "urn:uuid:b0088743-6cfb-48c6-8960-8c1a125f6f8f"
          },
          {
            "reference": "urn:uuid:96af5f81-f015-4599-9ec1-d9e5232bddb0"
          },
          {
            "reference": "urn:uuid:b12b3033-4dda-4540-8b03-7ef4c1a11dc6"
          },
          {
            "reference": "urn:uuid:8f46aabb-ba97-4beb-afa7-e238ad83150b"
          },
          {
            "reference": "urn:uuid:2b917f84-d2c6-4be6-985f-d181549836ef"
          }
        ],
        "status": "registered",
        "code": {
          "coding": [
            {
              "code": "11502-2",
              "system": "http://loinc.org",
              "display": "Laboratory report"
            }
          ]
        },
        "subject": {
          "reference": "urn:uuid:25da5fae-3b25-4de1-bc5b-6c5afe5292ee",
          "display": "Helene Andresen"
        }
      }
    },
    {
      "fullUrl": "urn:uuid:25da5fae-3b25-4de1-bc5b-6c5afe5292ee",
      "resource": {
        "resourceType": "Patient",
        "id": "25da5fae-3b25-4de1-bc5b-6c5afe5292ee",
        "meta": {
          "security": [
            {
              "system": "http://terminology.hl7.org/CodeSystem/v3-ActReason",
              "code": "HTEST"
            },
            {
              "system": "http://terminology.hl7.org/CodeSystem/v3-ActReason",
              "code": "TRAIN"
            }
          ],
          "tag": [
            {
              "system": "https://synderai.net/fhir/CodeSystem/tags",
              "code": "synthetic",
              "display": "SYNDERAI Synthetic data"
            }
          ],
          "profile": [
            "http://hl7.eu/fhir/base/StructureDefinition/patient-eu-core"
          ]
        },
        "identifier": [
          {
            "type": {
              "coding": [
                {
                  "code": "PT",
                  "system": "http://terminology.hl7.org/CodeSystem/v2-0203"
                }
              ]
            },
            "system": "http://ec.europa.eu/identifier/eci",
            "value": "3450-170343-2"
          },
          {
            "type": {
              "coding": [
                {
                  "code": "MR",
                  "system": "http://terminology.hl7.org/CodeSystem/v2-0203"
                }
              ]
            },
            "system": "http://local.setting.eu/identifier",
            "value": "72e91c9c-0b01-42b0-a6a0-6dcc70aeec49"
          }
        ],
        "name": [
          {
            "family": "Andresen"
          },
          {
            "given": [
              "Helene"
            ]
          },
          {
            "text": "Helene Andresen"
          }
        ],
        "address": [
          {
            "line": [
              "Kristiansenberget 2"
            ],
            "use": "home",
            "type": "physical",
            "postalCode": "0172",
            "city": "Sørensen",
            "country": "Norway"
          }
        ],
        "telecom": [
          {
            "system": "phone",
            "value": "53 98 86 24"
          }
        ],
        "extension": [
          {
            "url": "http://hl7.org/fhir/StructureDefinition/patient-nationality",
            "valueCodeableConcept": {
              "coding": [
                {
                  "code": "NO",
                  "system": "http://hl7.org/fhir/ValueSet/country"
                }
              ]
            }
          }
        ],
        "text": {
          "status": "generated",
          "div": "<div xmlns=\"http://www.w3.org/1999/xhtml\"><table class=\"hl7__ips\"><tr><td>Helene Andresen</td><td>female</td><td>17-Oct-1939</td></tr></table></div>"
        },
        "gender": "female",
        "birthDate": "1939-10-17"
      }
    },
    {
      "fullUrl": "urn:uuid:8112b1e1-d3e8-4524-b411-7c3487cc8b6c",
      "resource": {
        "resourceType": "ServiceRequest",
        "id": "8112b1e1-d3e8-4524-b411-7c3487cc8b6c",
        "meta": {
          "profile": [
            "http://hl7.eu/fhir/laboratory/StructureDefinition/ServiceRequest-eu-lab"
          ]
        },
        "identifier": [
          {
            "system": "http://example.org",
            "value": "9424268e-a496-4c59-be32-d4e26ecf1ce1"
          }
        ],
        "specimen": [
          {
            "reference": "urn:uuid:d2486d91-4c90-4e3e-a7f1-2cccd36577ab"
          },
          {
            "reference": "urn:uuid:5b0fdd66-9203-4f2d-9872-76b9d0420abd"
          }
        ],
        "reasonCode": [
          {
            "coding": [
              {
                "code": "64859006",
                "system": "http://snomed.info/sct",
                "display": "Osteoporosis"
              }
            ]
          },
          {
            "coding": [
              {
                "code": "40055000",
                "system": "http://snomed.info/sct",
                "display": "Chronic sinusitis"
              }
            ]
          },
          {
            "coding": [
              {
                "code": "55822004",
                "system": "http://snomed.info/sct",
                "display": "Hyperlipidemia"
              }
            ]
          },
          {
            "coding": [
              {
                "code": "271737000",
                "system": "http://snomed.info/sct",
                "display": "Anemia"
              }
            ]
          },
          {
            "coding": [
              {
                "code": "15777000",
                "system": "http://snomed.info/sct",
                "display": "Prediabetes"
              }
            ]
          },
          {
            "coding": [
              {
                "code": "128613002",
                "system": "http://snomed.info/sct",
                "display": "Seizure disorder"
              }
            ]
          }
        ],
        "status": "active",
        "intent": "order",
        "code": {
          "coding": [
            {
              "code": "108252007",
              "system": "http://snomed.info/sct",
              "display": "Laboratory procedure"
            }
          ]
        },
        "subject": {
          "reference": "urn:uuid:25da5fae-3b25-4de1-bc5b-6c5afe5292ee",
          "display": "Helene Andresen"
        },
        "requester": {
          "reference": "urn:uuid:ba50e0c8-e6a6-42ba-b4bc-43308ddbd079"
        }
      }
    },
    {
      "fullUrl": "urn:uuid:ba50e0c8-e6a6-42ba-b4bc-43308ddbd079",
      "resource": {
        "resourceType": "PractitionerRole",
        "id": "ba50e0c8-e6a6-42ba-b4bc-43308ddbd079",
        "meta": {
          "profile": [
            "http://hl7.eu/fhir/base/StructureDefinition/practitionerRole-eu"
          ]
        },
        "text": {
          "status": "generated",
          "div": "<div xmlns=\"http://www.w3.org/1999/xhtml\">Provider Role Id: ba50e0c8-e6a6-42ba-b4bc-43308ddbd079</div>"
        },
        "organization": {
          "reference": "urn:uuid:e5d5ac09-7661-4d3f-87e8-b46bf8960179"
        }
      }
    },
    {
      "fullUrl": "urn:uuid:e5d5ac09-7661-4d3f-87e8-b46bf8960179",
      "resource": {
        "resourceType": "Organization",
        "id": "e5d5ac09-7661-4d3f-87e8-b46bf8960179",
        "meta": {
          "profile": [
            "http://hl7.eu/fhir/base/StructureDefinition/organization-eu"
          ]
        },
        "identifier": [
          {
            "assigner": {
              "display": "HL7 Europe"
            },
            "system": "urn:oid:2.16.840.1.113883.2.51.999",
            "value": "17484622-e0bf-4765-95bf-aa10d8f6e30f"
          }
        ],
        "address": [
          {
            "city": "Oslo",
            "postalCode": "0155",
            "country": "Norway"
          }
        ],
        "text": {
          "status": "generated",
          "div": "<div xmlns=\"http://www.w3.org/1999/xhtml\">Provider Organization: Oslo universitetssykehus (Ullevål)</div>"
        },
        "name": "Oslo universitetssykehus (Ullevål)"
      }
    },
    {
      "fullUrl": "urn:uuid:d2486d91-4c90-4e3e-a7f1-2cccd36577ab",
      "resource": {
        "resourceType": "Specimen",
        "id": "d2486d91-4c90-4e3e-a7f1-2cccd36577ab",
        "meta": {
          "profile": [
            "http://hl7.eu/fhir/laboratory/StructureDefinition/Specimen-eu-lab"
          ]
        },
        "collection": {
          "collectedDateTime": "2018-10-20"
        },
        "text": {
          "status": "generated",
          "div": "<div xmlns=\"http://www.w3.org/1999/xhtml\"><table class=\"hl7__eu__lab__report\"><tr><th>Specimen</th><th>Collection Date</th></tr><tr><td>Whole blood specimen (specimen)</td><td><span class=\"nb\">20-Oct-2018</span></td></tr></table></div>"
        },
        "type": {
          "coding": [
            {
              "code": "258580003",
              "system": "http://snomed.info/sct",
              "display": "Whole blood specimen (specimen)"
            }
          ]
        }
      }
    },
    {
      "fullUrl": "urn:uuid:5b0fdd66-9203-4f2d-9872-76b9d0420abd",
      "resource": {
        "resourceType": "Specimen",
        "id": "5b0fdd66-9203-4f2d-9872-76b9d0420abd",
        "meta": {
          "profile": [
            "http://hl7.eu/fhir/laboratory/StructureDefinition/Specimen-eu-lab"
          ]
        },
        "collection": {
          "collectedDateTime": "2018-10-20"
        },
        "text": {
          "status": "generated",
          "div": "<div xmlns=\"http://www.w3.org/1999/xhtml\"><table class=\"hl7__eu__lab__report\"><tr><th>Specimen</th><th>Collection Date</th></tr><tr><td>Acellular blood (serum or plasma) specimen</td><td><span class=\"nb\">20-Oct-2018</span></td></tr></table></div>"
        },
        "type": {
          "coding": [
            {
              "code": "122592007",
              "system": "http://snomed.info/sct",
              "display": "Acellular blood (serum or plasma) specimen"
            }
          ]
        }
      }
    },
    {
      "fullUrl": "urn:uuid:27ae2aca-b522-4275-84f2-575bc059b25d",
      "resource": {
        "resourceType": "Observation",
        "id": "27ae2aca-b522-4275-84f2-575bc059b25d",
        "meta": {
          "profile": [
            "http://hl7.eu/fhir/laboratory/StructureDefinition/Observation-resultslab-eu-lab"
          ]
        },
        "performer": [
          {
            "display": "The Central European Lab"
          }
        ],
        "category": [
          {
            "coding": [
              {
                "system": "http://terminology.hl7.org/CodeSystem/observation-category",
                "code": "laboratory"
              }
            ]
          }
        ],
        "code": {
          "coding": [
            {
              "code": "4548-4",
              "system": "http://loinc.org",
              "display": "Hemoglobin A1c/Hemoglobin.total in Blood"
            }
          ],
          "text": "Hemoglobin A1c/Hemoglobin.total in Blood"
        },
        "valueQuantity": {
          "system": "http://unitsofmeasure.org",
          "value": 6.1,
          "unit": "%",
          "code": "%"
        },
        "referenceRange": [
          {
            "low": {
              "value": 4.5,
              "code": "%",
              "system": "http://unitsofmeasure.org"
            }
          },
          {
            "high": {
              "value": 6.4,
              "code": "%",
              "system": "http://unitsofmeasure.org"
            }
          }
        ],
        "text": {
          "status": "generated",
          "div": "<div xmlns=\"http://www.w3.org/1999/xhtml\"><table class=\"hl7__eu__lab__report\"><tr><th>Test</th><th>21-Oct-2018</th><th>Reference&#xA0;Range</th><th>Unit</th></tr><tr><td>Hemoglobin A1c/Hemoglobin.total in Blood</td><td>6.1</td><td>4.5 - 6.4</td><td></td><td>%</td></tr></table></div>"
        },
        "status": "final",
        "subject": {
          "reference": "urn:uuid:25da5fae-3b25-4de1-bc5b-6c5afe5292ee",
          "display": "Helene Andresen"
        },
        "effectiveDateTime": "2018-10-20T22:53:36Z",
        "specimen": {
          "reference": "urn:uuid:d2486d91-4c90-4e3e-a7f1-2cccd36577ab"
        }
      }
    },
    {
      "fullUrl": "urn:uuid:f24a3d7e-64b4-44f8-826c-28ad52f6808d",
      "resource": {
        "resourceType": "Observation",
        "id": "f24a3d7e-64b4-44f8-826c-28ad52f6808d",
        "meta": {
          "profile": [
            "http://hl7.eu/fhir/laboratory/StructureDefinition/Observation-resultslab-eu-lab"
          ]
        },
        "performer": [
          {
            "display": "The Central European Lab"
          }
        ],
        "category": [
          {
            "coding": [
              {
                "system": "http://terminology.hl7.org/CodeSystem/observation-category",
                "code": "laboratory"
              }
            ]
          }
        ],
        "code": {
          "coding": [
            {
              "code": "2339-0",
              "system": "http://loinc.org",
              "display": "Glucose [Mass/volume] in Blood"
            }
          ],
          "text": "Glucose [Mass/volume] in Blood"
        },
        "valueQuantity": {
          "system": "http://unitsofmeasure.org",
          "value": 81.7,
          "unit": "mg/dL",
          "code": "mg/dL"
        },
        "referenceRange": [
          {
            "low": {
              "value": 70,
              "code": "mg/dL",
              "system": "http://unitsofmeasure.org"
            }
          },
          {
            "high": {
              "value": 140,
              "code": "mg/dL",
              "system": "http://unitsofmeasure.org"
            }
          }
        ],
        "text": {
          "status": "generated",
          "div": "<div xmlns=\"http://www.w3.org/1999/xhtml\"><table class=\"hl7__eu__lab__report\"><tr><th>Test</th><th>21-Oct-2018</th><th>Reference&#xA0;Range</th><th>Unit</th></tr><tr><td>Glucose [Mass/volume] in Blood</td><td>81.7</td><td>70 - 140</td><td></td><td>mg/dL</td></tr></table></div>"
        },
        "status": "final",
        "subject": {
          "reference": "urn:uuid:25da5fae-3b25-4de1-bc5b-6c5afe5292ee",
          "display": "Helene Andresen"
        },
        "effectiveDateTime": "2018-10-20T22:53:36Z",
        "specimen": {
          "reference": "urn:uuid:d2486d91-4c90-4e3e-a7f1-2cccd36577ab"
        }
      }
    },
    {
      "fullUrl": "urn:uuid:5d0a3018-c96d-4020-a257-d27bd46e5a44",
      "resource": {
        "resourceType": "Observation",
        "id": "5d0a3018-c96d-4020-a257-d27bd46e5a44",
        "meta": {
          "profile": [
            "http://hl7.eu/fhir/laboratory/StructureDefinition/Observation-resultslab-eu-lab"
          ]
        },
        "performer": [
          {
            "display": "The Central European Lab"
          }
        ],
        "category": [
          {
            "coding": [
              {
                "system": "http://terminology.hl7.org/CodeSystem/observation-category",
                "code": "laboratory"
              }
            ]
          }
        ],
        "code": {
          "coding": [
            {
              "code": "6299-2",
              "system": "http://loinc.org",
              "display": "Urea nitrogen [Mass/volume] in Blood"
            }
          ],
          "text": "Urea nitrogen [Mass/volume] in Blood"
        },
        "valueQuantity": {
          "system": "http://unitsofmeasure.org",
          "value": 14.2,
          "unit": "mg/dL",
          "code": "mg/dL"
        },
        "referenceRange": [
          {
            "low": {
              "value": 7,
              "code": "mg/dL",
              "system": "http://unitsofmeasure.org"
            }
          },
          {
            "high": {
              "value": 25,
              "code": "mg/dL",
              "system": "http://unitsofmeasure.org"
            }
          }
        ],
        "text": {
          "status": "generated",
          "div": "<div xmlns=\"http://www.w3.org/1999/xhtml\"><table class=\"hl7__eu__lab__report\"><tr><th>Test</th><th>21-Oct-2018</th><th>Reference&#xA0;Range</th><th>Unit</th></tr><tr><td>Urea nitrogen [Mass/volume] in Blood</td><td>14.2</td><td>7 - 25</td><td></td><td>mg/dL</td></tr></table></div>"
        },
        "status": "final",
        "subject": {
          "reference": "urn:uuid:25da5fae-3b25-4de1-bc5b-6c5afe5292ee",
          "display": "Helene Andresen"
        },
        "effectiveDateTime": "2018-10-20T22:53:36Z",
        "specimen": {
          "reference": "urn:uuid:d2486d91-4c90-4e3e-a7f1-2cccd36577ab"
        }
      }
    },
    {
      "fullUrl": "urn:uuid:bd356ab4-7e13-432a-be50-59984b88b834",
      "resource": {
        "resourceType": "Observation",
        "id": "bd356ab4-7e13-432a-be50-59984b88b834",
        "meta": {
          "profile": [
            "http://hl7.eu/fhir/laboratory/StructureDefinition/Observation-resultslab-eu-lab"
          ]
        },
        "performer": [
          {
            "display": "The Central European Lab"
          }
        ],
        "category": [
          {
            "coding": [
              {
                "system": "http://terminology.hl7.org/CodeSystem/observation-category",
                "code": "laboratory"
              }
            ]
          }
        ],
        "code": {
          "coding": [
            {
              "code": "38483-4",
              "system": "http://loinc.org",
              "display": "Creatinine [Mass/volume] in Blood"
            }
          ],
          "text": "Creatinine [Mass/volume] in Blood"
        },
        "valueQuantity": {
          "system": "http://unitsofmeasure.org",
          "value": 0.5,
          "unit": "mg/dL",
          "code": "mg/dL"
        },
        "referenceRange": [
          {
            "low": {
              "value": 0.6,
              "code": "mg/dL",
              "system": "http://unitsofmeasure.org"
            }
          },
          {
            "high": {
              "value": 1.1,
              "code": "mg/dL",
              "system": "http://unitsofmeasure.org"
            }
          }
        ],
        "interpretation": [
          {
            "coding": [
              {
                "code": "L",
                "system": "http://terminology.hl7.org/CodeSystem/v3-ObservationInterpretation",
                "display": "Low"
              }
            ]
          }
        ],
        "text": {
          "status": "generated",
          "div": "<div xmlns=\"http://www.w3.org/1999/xhtml\"><table class=\"hl7__eu__lab__report\"><tr><th>Test</th><th>21-Oct-2018</th><th>Reference&#xA0;Range</th><th>Unit</th></tr><tr><td>Creatinine [Mass/volume] in Blood</td><td>0.5</td><td>0.6 - 1.1</td><td>L</td><td>mg/dL</td></tr></table></div>"
        },
        "status": "final",
        "subject": {
          "reference": "urn:uuid:25da5fae-3b25-4de1-bc5b-6c5afe5292ee",
          "display": "Helene Andresen"
        },
        "effectiveDateTime": "2018-10-20T22:53:36Z",
        "specimen": {
          "reference": "urn:uuid:d2486d91-4c90-4e3e-a7f1-2cccd36577ab"
        }
      }
    },
    {
      "fullUrl": "urn:uuid:782ef91e-7429-4c6d-9d78-e9974c713ada",
      "resource": {
        "resourceType": "Observation",
        "id": "782ef91e-7429-4c6d-9d78-e9974c713ada",
        "meta": {
          "profile": [
            "http://hl7.eu/fhir/laboratory/StructureDefinition/Observation-resultslab-eu-lab"
          ]
        },
        "performer": [
          {
            "display": "The Central European Lab"
          }
        ],
        "category": [
          {
            "coding": [
              {
                "system": "http://terminology.hl7.org/CodeSystem/observation-category",
                "code": "laboratory"
              }
            ]
          }
        ],
        "code": {
          "coding": [
            {
              "code": "49765-1",
              "system": "http://loinc.org",
              "display": "Calcium [Mass/volume] in Blood"
            }
          ],
          "text": "Calcium [Mass/volume] in Blood"
        },
        "valueQuantity": {
          "system": "http://unitsofmeasure.org",
          "value": 9.5,
          "unit": "mg/dL",
          "code": "mg/dL"
        },
        "referenceRange": [
          {
            "low": {
              "value": 8.6,
              "code": "mg/dL",
              "system": "http://unitsofmeasure.org"
            }
          },
          {
            "high": {
              "value": 10.4,
              "code": "mg/dL",
              "system": "http://unitsofmeasure.org"
            }
          }
        ],
        "text": {
          "status": "generated",
          "div": "<div xmlns=\"http://www.w3.org/1999/xhtml\"><table class=\"hl7__eu__lab__report\"><tr><th>Test</th><th>21-Oct-2018</th><th>Reference&#xA0;Range</th><th>Unit</th></tr><tr><td>Calcium [Mass/volume] in Blood</td><td>9.5</td><td>8.6 - 10.4</td><td></td><td>mg/dL</td></tr></table></div>"
        },
        "status": "final",
        "subject": {
          "reference": "urn:uuid:25da5fae-3b25-4de1-bc5b-6c5afe5292ee",
          "display": "Helene Andresen"
        },
        "effectiveDateTime": "2018-10-20T22:53:36Z",
        "specimen": {
          "reference": "urn:uuid:d2486d91-4c90-4e3e-a7f1-2cccd36577ab"
        }
      }
    },
    {
      "fullUrl": "urn:uuid:98239c62-5cff-4659-9052-0872b7fa9157",
      "resource": {
        "resourceType": "Observation",
        "id": "98239c62-5cff-4659-9052-0872b7fa9157",
        "meta": {
          "profile": [
            "http://hl7.eu/fhir/laboratory/StructureDefinition/Observation-resultslab-eu-lab"
          ]
        },
        "performer": [
          {
            "display": "The Central European Lab"
          }
        ],
        "category": [
          {
            "coding": [
              {
                "system": "http://terminology.hl7.org/CodeSystem/observation-category",
                "code": "laboratory"
              }
            ]
          }
        ],
        "code": {
          "coding": [
            {
              "code": "2947-0",
              "system": "http://loinc.org",
              "display": "Sodium [Moles/volume] in Blood"
            }
          ],
          "text": "Sodium [Moles/volume] in Blood"
        },
        "valueQuantity": {
          "system": "http://unitsofmeasure.org",
          "value": 139.5,
          "unit": "mmol/L",
          "code": "mmol/L"
        },
        "referenceRange": [
          {
            "low": {
              "value": 135,
              "code": "mmol/L",
              "system": "http://unitsofmeasure.org"
            }
          },
          {
            "high": {
              "value": 145,
              "code": "mmol/L",
              "system": "http://unitsofmeasure.org"
            }
          }
        ],
        "text": {
          "status": "generated",
          "div": "<div xmlns=\"http://www.w3.org/1999/xhtml\"><table class=\"hl7__eu__lab__report\"><tr><th>Test</th><th>21-Oct-2018</th><th>Reference&#xA0;Range</th><th>Unit</th></tr><tr><td>Sodium [Moles/volume] in Blood</td><td>139.5</td><td>135 - 145</td><td></td><td>mmol/L</td></tr></table></div>"
        },
        "status": "final",
        "subject": {
          "reference": "urn:uuid:25da5fae-3b25-4de1-bc5b-6c5afe5292ee",
          "display": "Helene Andresen"
        },
        "effectiveDateTime": "2018-10-20T22:53:36Z",
        "specimen": {
          "reference": "urn:uuid:d2486d91-4c90-4e3e-a7f1-2cccd36577ab"
        }
      }
    },
    {
      "fullUrl": "urn:uuid:4253635c-6b6f-4a24-83f3-b8f5671a5eae",
      "resource": {
        "resourceType": "Observation",
        "id": "4253635c-6b6f-4a24-83f3-b8f5671a5eae",
        "meta": {
          "profile": [
            "http://hl7.eu/fhir/laboratory/StructureDefinition/Observation-resultslab-eu-lab"
          ]
        },
        "performer": [
          {
            "display": "The Central European Lab"
          }
        ],
        "category": [
          {
            "coding": [
              {
                "system": "http://terminology.hl7.org/CodeSystem/observation-category",
                "code": "laboratory"
              }
            ]
          }
        ],
        "code": {
          "coding": [
            {
              "code": "6298-4",
              "system": "http://loinc.org",
              "display": "Potassium [Moles/volume] in Blood"
            }
          ],
          "text": "Potassium [Moles/volume] in Blood"
        },
        "valueQuantity": {
          "system": "http://unitsofmeasure.org",
          "value": 5.1,
          "unit": "mmol/L",
          "code": "mmol/L"
        },
        "referenceRange": [
          {
            "low": {
              "value": 3.5,
              "code": "mmol/L",
              "system": "http://unitsofmeasure.org"
            }
          },
          {
            "high": {
              "value": 5.3,
              "code": "mmol/L",
              "system": "http://unitsofmeasure.org"
            }
          }
        ],
        "text": {
          "status": "generated",
          "div": "<div xmlns=\"http://www.w3.org/1999/xhtml\"><table class=\"hl7__eu__lab__report\"><tr><th>Test</th><th>21-Oct-2018</th><th>Reference&#xA0;Range</th><th>Unit</th></tr><tr><td>Potassium [Moles/volume] in Blood</td><td>5.1</td><td>3.5 - 5.3</td><td></td><td>mmol/L</td></tr></table></div>"
        },
        "status": "final",
        "subject": {
          "reference": "urn:uuid:25da5fae-3b25-4de1-bc5b-6c5afe5292ee",
          "display": "Helene Andresen"
        },
        "effectiveDateTime": "2018-10-20T22:53:36Z",
        "specimen": {
          "reference": "urn:uuid:d2486d91-4c90-4e3e-a7f1-2cccd36577ab"
        }
      }
    },
    {
      "fullUrl": "urn:uuid:d3781532-0790-4270-b42b-a0066bfa9fe3",
      "resource": {
        "resourceType": "Observation",
        "id": "d3781532-0790-4270-b42b-a0066bfa9fe3",
        "meta": {
          "profile": [
            "http://hl7.eu/fhir/laboratory/StructureDefinition/Observation-resultslab-eu-lab"
          ]
        },
        "performer": [
          {
            "display": "The Central European Lab"
          }
        ],
        "category": [
          {
            "coding": [
              {
                "system": "http://terminology.hl7.org/CodeSystem/observation-category",
                "code": "laboratory"
              }
            ]
          }
        ],
        "code": {
          "coding": [
            {
              "code": "2069-3",
              "system": "http://loinc.org",
              "display": "Chloride [Moles/volume] in Blood"
            }
          ],
          "text": "Chloride [Moles/volume] in Blood"
        },
        "valueQuantity": {
          "system": "http://unitsofmeasure.org",
          "value": 105.1,
          "unit": "mmol/L",
          "code": "mmol/L"
        },
        "referenceRange": [
          {
            "low": {
              "value": 98,
              "code": "mmol/L",
              "system": "http://unitsofmeasure.org"
            }
          },
          {
            "high": {
              "value": 108,
              "code": "mmol/L",
              "system": "http://unitsofmeasure.org"
            }
          }
        ],
        "text": {
          "status": "generated",
          "div": "<div xmlns=\"http://www.w3.org/1999/xhtml\"><table class=\"hl7__eu__lab__report\"><tr><th>Test</th><th>21-Oct-2018</th><th>Reference&#xA0;Range</th><th>Unit</th></tr><tr><td>Chloride [Moles/volume] in Blood</td><td>105.1</td><td>98 - 108</td><td></td><td>mmol/L</td></tr></table></div>"
        },
        "status": "final",
        "subject": {
          "reference": "urn:uuid:25da5fae-3b25-4de1-bc5b-6c5afe5292ee",
          "display": "Helene Andresen"
        },
        "effectiveDateTime": "2018-10-20T22:53:36Z",
        "specimen": {
          "reference": "urn:uuid:d2486d91-4c90-4e3e-a7f1-2cccd36577ab"
        }
      }
    },
    {
      "fullUrl": "urn:uuid:b0088743-6cfb-48c6-8960-8c1a125f6f8f",
      "resource": {
        "resourceType": "Observation",
        "id": "b0088743-6cfb-48c6-8960-8c1a125f6f8f",
        "meta": {
          "profile": [
            "http://hl7.eu/fhir/laboratory/StructureDefinition/Observation-resultslab-eu-lab"
          ]
        },
        "performer": [
          {
            "display": "The Central European Lab"
          }
        ],
        "category": [
          {
            "coding": [
              {
                "system": "http://terminology.hl7.org/CodeSystem/observation-category",
                "code": "laboratory"
              }
            ]
          }
        ],
        "code": {
          "coding": [
            {
              "code": "20565-8",
              "system": "http://loinc.org",
              "display": "Carbon dioxide, total [Moles/volume] in Blood"
            }
          ],
          "text": "Carbon dioxide, total [Moles/volume] in Blood"
        },
        "valueQuantity": {
          "system": "http://unitsofmeasure.org",
          "value": 27.1,
          "unit": "mmol/L",
          "code": "mmol/L"
        },
        "referenceRange": [
          {
            "low": {
              "value": 22,
              "code": "mmol/L",
              "system": "http://unitsofmeasure.org"
            }
          },
          {
            "high": {
              "value": 32,
              "code": "mmol/L",
              "system": "http://unitsofmeasure.org"
            }
          }
        ],
        "text": {
          "status": "generated",
          "div": "<div xmlns=\"http://www.w3.org/1999/xhtml\"><table class=\"hl7__eu__lab__report\"><tr><th>Test</th><th>21-Oct-2018</th><th>Reference&#xA0;Range</th><th>Unit</th></tr><tr><td>Carbon dioxide, total [Moles/volume] in Blood</td><td>27.1</td><td>22 - 32</td><td></td><td>mmol/L</td></tr></table></div>"
        },
        "status": "final",
        "subject": {
          "reference": "urn:uuid:25da5fae-3b25-4de1-bc5b-6c5afe5292ee",
          "display": "Helene Andresen"
        },
        "effectiveDateTime": "2018-10-20T22:53:36Z",
        "specimen": {
          "reference": "urn:uuid:d2486d91-4c90-4e3e-a7f1-2cccd36577ab"
        }
      }
    },
    {
      "fullUrl": "urn:uuid:96af5f81-f015-4599-9ec1-d9e5232bddb0",
      "resource": {
        "resourceType": "Observation",
        "id": "96af5f81-f015-4599-9ec1-d9e5232bddb0",
        "meta": {
          "profile": [
            "http://hl7.eu/fhir/laboratory/StructureDefinition/Observation-resultslab-eu-lab"
          ]
        },
        "performer": [
          {
            "display": "The Central European Lab"
          }
        ],
        "category": [
          {
            "coding": [
              {
                "system": "http://terminology.hl7.org/CodeSystem/observation-category",
                "code": "laboratory"
              }
            ]
          }
        ],
        "code": {
          "coding": [
            {
              "code": "2093-3",
              "system": "http://loinc.org",
              "display": "Cholesterol [Mass/volume] in Serum or Plasma"
            }
          ],
          "text": "Cholesterol [Mass/volume] in Serum or Plasma"
        },
        "valueQuantity": {
          "system": "http://unitsofmeasure.org",
          "value": 191.5,
          "unit": "mg/dL",
          "code": "mg/dL"
        },
        "referenceRange": [
          {
            "low": {
              "value": 125,
              "code": "mg/dL",
              "system": "http://unitsofmeasure.org"
            }
          },
          {
            "high": {
              "value": 200,
              "code": "mg/dL",
              "system": "http://unitsofmeasure.org"
            }
          }
        ],
        "text": {
          "status": "generated",
          "div": "<div xmlns=\"http://www.w3.org/1999/xhtml\"><table class=\"hl7__eu__lab__report\"><tr><th>Test</th><th>21-Oct-2018</th><th>Reference&#xA0;Range</th><th>Unit</th></tr><tr><td>Cholesterol [Mass/volume] in Serum or Plasma</td><td>191.5</td><td>125 - 200</td><td></td><td>mg/dL</td></tr></table></div>"
        },
        "status": "final",
        "subject": {
          "reference": "urn:uuid:25da5fae-3b25-4de1-bc5b-6c5afe5292ee",
          "display": "Helene Andresen"
        },
        "effectiveDateTime": "2018-10-20T22:53:36Z",
        "specimen": {
          "reference": "urn:uuid:5b0fdd66-9203-4f2d-9872-76b9d0420abd"
        }
      }
    },
    {
      "fullUrl": "urn:uuid:b12b3033-4dda-4540-8b03-7ef4c1a11dc6",
      "resource": {
        "resourceType": "Observation",
        "id": "b12b3033-4dda-4540-8b03-7ef4c1a11dc6",
        "meta": {
          "profile": [
            "http://hl7.eu/fhir/laboratory/StructureDefinition/Observation-resultslab-eu-lab"
          ]
        },
        "performer": [
          {
            "display": "The Central European Lab"
          }
        ],
        "category": [
          {
            "coding": [
              {
                "system": "http://terminology.hl7.org/CodeSystem/observation-category",
                "code": "laboratory"
              }
            ]
          }
        ],
        "code": {
          "coding": [
            {
              "code": "2571-8",
              "system": "http://loinc.org",
              "display": "Triglyceride [Mass/volume] in Serum or Plasma"
            }
          ],
          "text": "Triglyceride [Mass/volume] in Serum or Plasma"
        },
        "valueQuantity": {
          "system": "http://unitsofmeasure.org",
          "value": 147.1,
          "unit": "mg/dL",
          "code": "mg/dL"
        },
        "referenceRange": [
          {
            "low": {
              "value": 10,
              "code": "mg/dL",
              "system": "http://unitsofmeasure.org"
            }
          },
          {
            "high": {
              "value": 175,
              "code": "mg/dL",
              "system": "http://unitsofmeasure.org"
            }
          }
        ],
        "text": {
          "status": "generated",
          "div": "<div xmlns=\"http://www.w3.org/1999/xhtml\"><table class=\"hl7__eu__lab__report\"><tr><th>Test</th><th>21-Oct-2018</th><th>Reference&#xA0;Range</th><th>Unit</th></tr><tr><td>Triglyceride [Mass/volume] in Serum or Plasma</td><td>147.1</td><td>10 - 175</td><td></td><td>mg/dL</td></tr></table></div>"
        },
        "status": "final",
        "subject": {
          "reference": "urn:uuid:25da5fae-3b25-4de1-bc5b-6c5afe5292ee",
          "display": "Helene Andresen"
        },
        "effectiveDateTime": "2018-10-20T22:53:36Z",
        "specimen": {
          "reference": "urn:uuid:5b0fdd66-9203-4f2d-9872-76b9d0420abd"
        }
      }
    },
    {
      "fullUrl": "urn:uuid:8f46aabb-ba97-4beb-afa7-e238ad83150b",
      "resource": {
        "resourceType": "Observation",
        "id": "8f46aabb-ba97-4beb-afa7-e238ad83150b",
        "meta": {
          "profile": [
            "http://hl7.eu/fhir/laboratory/StructureDefinition/Observation-resultslab-eu-lab"
          ]
        },
        "performer": [
          {
            "display": "The Central European Lab"
          }
        ],
        "category": [
          {
            "coding": [
              {
                "system": "http://terminology.hl7.org/CodeSystem/observation-category",
                "code": "laboratory"
              }
            ]
          }
        ],
        "code": {
          "coding": [
            {
              "code": "18262-6",
              "system": "http://loinc.org",
              "display": "Cholesterol in LDL [Mass/volume] in Serum or Plasma by Direct assay"
            }
          ],
          "text": "Cholesterol in LDL [Mass/volume] in Serum or Plasma by Direct assay"
        },
        "valueQuantity": {
          "system": "http://unitsofmeasure.org",
          "value": 109.6,
          "unit": "mg/dL",
          "code": "mg/dL"
        },
        "referenceRange": [
          {
            "low": {
              "value": 0,
              "code": "mg/dL",
              "system": "http://unitsofmeasure.org"
            }
          },
          {
            "high": {
              "value": 130,
              "code": "mg/dL",
              "system": "http://unitsofmeasure.org"
            }
          }
        ],
        "text": {
          "status": "generated",
          "div": "<div xmlns=\"http://www.w3.org/1999/xhtml\"><table class=\"hl7__eu__lab__report\"><tr><th>Test</th><th>21-Oct-2018</th><th>Reference&#xA0;Range</th><th>Unit</th></tr><tr><td>Cholesterol in LDL [Mass/volume] in Serum or Plasma by Direct assay</td><td>109.6</td><td>0 - 130</td><td></td><td>mg/dL</td></tr></table></div>"
        },
        "status": "final",
        "subject": {
          "reference": "urn:uuid:25da5fae-3b25-4de1-bc5b-6c5afe5292ee",
          "display": "Helene Andresen"
        },
        "effectiveDateTime": "2018-10-20T22:53:36Z",
        "specimen": {
          "reference": "urn:uuid:5b0fdd66-9203-4f2d-9872-76b9d0420abd"
        }
      }
    },
    {
      "fullUrl": "urn:uuid:2b917f84-d2c6-4be6-985f-d181549836ef",
      "resource": {
        "resourceType": "Observation",
        "id": "2b917f84-d2c6-4be6-985f-d181549836ef",
        "meta": {
          "profile": [
            "http://hl7.eu/fhir/laboratory/StructureDefinition/Observation-resultslab-eu-lab"
          ]
        },
        "performer": [
          {
            "display": "The Central European Lab"
          }
        ],
        "category": [
          {
            "coding": [
              {
                "system": "http://terminology.hl7.org/CodeSystem/observation-category",
                "code": "laboratory"
              }
            ]
          }
        ],
        "code": {
          "coding": [
            {
              "code": "2085-9",
              "system": "http://loinc.org",
              "display": "Cholesterol in HDL [Mass/volume] in Serum or Plasma"
            }
          ],
          "text": "Cholesterol in HDL [Mass/volume] in Serum or Plasma"
        },
        "valueQuantity": {
          "system": "http://unitsofmeasure.org",
          "value": 52.5,
          "unit": "mg/dL",
          "code": "mg/dL"
        },
        "referenceRange": [
          {
            "low": {
              "value": 50,
              "code": "mg/dL",
              "system": "http://unitsofmeasure.org"
            }
          },
          {
            "high": {
              "value": 100,
              "code": "mg/dL",
              "system": "http://unitsofmeasure.org"
            }
          }
        ],
        "text": {
          "status": "generated",
          "div": "<div xmlns=\"http://www.w3.org/1999/xhtml\"><table class=\"hl7__eu__lab__report\"><tr><th>Test</th><th>21-Oct-2018</th><th>Reference&#xA0;Range</th><th>Unit</th></tr><tr><td>Cholesterol in HDL [Mass/volume] in Serum or Plasma</td><td>52.5</td><td>50 - 100</td><td></td><td>mg/dL</td></tr></table></div>"
        },
        "status": "final",
        "subject": {
          "reference": "urn:uuid:25da5fae-3b25-4de1-bc5b-6c5afe5292ee",
          "display": "Helene Andresen"
        },
        "effectiveDateTime": "2018-10-20T22:53:36Z",
        "specimen": {
          "reference": "urn:uuid:5b0fdd66-9203-4f2d-9872-76b9d0420abd"
        }
      }
    },
    {
      "fullUrl": "urn:uuid:a126e57c-82b8-44e2-bd12-d491b7f5c90b",
      "resource": {
        "resourceType": "Device",
        "id": "a126e57c-82b8-44e2-bd12-d491b7f5c90b",
        "deviceName": [
          {
            "name": "SYNDERAI Synthetic Generator",
            "type": "manufacturer-name"
          }
        ],
        "version": [
          {
            "value": "5.0"
          }
        ],
        "text": {
          "status": "generated",
          "div": "<div xmlns=\"http://www.w3.org/1999/xhtml\">SYNDERAI Synthetic Generator v5.0</div>"
        },
        "status": "active\"",
        "distinctIdentifier": "synderai-generator-50",
        "manufacturer": "SYNDERAI Project"
      }
    },
    {
      "fullUrl": "urn:uuid:410b05de-bd74-462a-91b8-30d292eabaef",
      "resource": {
        "resourceType": "Provenance",
        "id": "410b05de-bd74-462a-91b8-30d292eabaef",
        "target": [
          {
            "reference": "Patient/25da5fae-3b25-4de1-bc5b-6c5afe5292ee"
          },
          {
            "reference": "Bundle/c41e5027-f2ba-42e5-9f34-29635c0e3fd2"
          },
          {
            "reference": "Composition/2ba37510-0fa8-4dd9-871c-ffdd1f64efc6"
          },
          {
            "reference": "PractitionerRole/176d0836-b665-4727-839a-4e59f3d3813c"
          },
          {
            "reference": "Practitioner/654027ba-647f-48cc-9a81-d222d0c4590b"
          },
          {
            "reference": "PractitionerRole/ba50e0c8-e6a6-42ba-b4bc-43308ddbd079"
          },
          {
            "reference": "Organization/e5d5ac09-7661-4d3f-87e8-b46bf8960179"
          }
        ],
        "activity": {
          "text": "Synthetic Example Data Generation"
        },
        "policy": [
          "https://synderai.net/synderai-synthetic-data-policy"
        ],
        "agent": [
          {
            "type": {
              "text": "author"
            },
            "who": {
              "reference": "Device/a126e57c-82b8-44e2-bd12-d491b7f5c90b"
            }
          }
        ],
        "reason": [
          {
            "text": "Interoperability Testing and Training (non-clinical use)"
          }
        ],
        "text": {
          "status": "generated",
          "div": "<div xmlns=\"http://www.w3.org/1999/xhtml\">Provenance for SYNDERAI Synthetic Example Data Resource</div>"
        },
        "recorded": "2018-10-21T00:53:36Z"
      }
    },
    {
      "fullUrl": "urn:uuid:176d0836-b665-4727-839a-4e59f3d3813c",
      "resource": {
        "resourceType": "PractitionerRole",
        "id": "176d0836-b665-4727-839a-4e59f3d3813c",
        "meta": {
          "profile": [
            "http://hl7.eu/fhir/base/StructureDefinition/practitionerRole-eu"
          ]
        },
        "text": {
          "status": "generated",
          "div": "<div xmlns=\"http://www.w3.org/1999/xhtml\">Laboratory Role Id: 176d0836-b665-4727-839a-4e59f3d3813c</div>"
        },
        "practitioner": {
          "reference": "urn:uuid:654027ba-647f-48cc-9a81-d222d0c4590b"
        }
      }
    },
    {
      "fullUrl": "urn:uuid:654027ba-647f-48cc-9a81-d222d0c4590b",
      "resource": {
        "resourceType": "Practitioner",
        "id": "654027ba-647f-48cc-9a81-d222d0c4590b",
        "meta": {
          "profile": [
            "http://hl7.eu/fhir/base/StructureDefinition/practitioner-eu"
          ]
        },
        "identifier": [
          {
            "assigner": {
              "display": "HL7 Europe"
            },
            "system": "urn:oid:2.16.840.1.113883.2.51.999",
            "value": "f3db9d15-7746-470d-b450-0f7371165c81"
          }
        ],
        "name": [
          {
            "prefix": [
              "dr"
            ],
            "given": [
              "Ex"
            ],
            "family": "Ample"
          }
        ],
        "address": [
          {
            "line": [
              "Laboratoire Central Européenne",
              "Boulevard du Jardin Botanique 32"
            ],
            "postalCode": "1000",
            "city": "Brussels",
            "country": "Belgium"
          }
        ],
        "text": {
          "status": "generated",
          "div": "<div xmlns=\"http://www.w3.org/1999/xhtml\">Laboratory: Laboratoire Central Européenne, 1000 Brussels, Belgium</div>"
        }
      }
    }
  ],
  "type": "document",
  "timestamp": "2018-10-21T00:53:36Z"
}
