{
  "resourceType": "Bundle",
  "id": "278544d7-ea72-4349-ab72-653da34415ac",
  "meta": {
    "profile": [
      "http://hl7.eu/fhir/laboratory/StructureDefinition/Bundle-eu-lab"
    ]
  },
  "identifier": {
    "assigner": {
      "display": "HL7 Europe"
    },
    "system": "urn:oid:2.16.840.1.113883.2.51.999",
    "value": "20b6a527-1c96-4524-a743-c4876dea1825"
  },
  "entry": [
    {
      "fullUrl": "urn:uuid:354dcae3-7c1e-4c18-9797-bca528d9e3db",
      "resource": {
        "resourceType": "Composition",
        "id": "354dcae3-7c1e-4c18-9797-bca528d9e3db",
        "meta": {
          "profile": [
            "http://hl7.eu/fhir/laboratory/StructureDefinition/Composition-eu-lab"
          ]
        },
        "identifier": {
          "assigner": {
            "display": "HL7 Europe"
          },
          "system": "urn:oid:2.16.840.1.113883.2.51.999",
          "value": "af4c7aec-9c7c-430e-bd87-ed62c0941b35"
        },
        "author": [
          {
            "reference": "urn:uuid:78ea6b27-3253-459b-a4ea-a01bab345a1d"
          }
        ],
        "category": [
          {
            "coding": [
              {
                "code": "26436-6",
                "system": "http://loinc.org",
                "display": "Laboratory studies (set)"
              }
            ]
          }
        ],
        "type": {
          "coding": [
            {
              "code": "11502-2",
              "system": "http://loinc.org",
              "display": "Laboratory report"
            }
          ],
          "text": "Laboratory Report"
        },
        "section": [
          {
            "code": {
              "coding": [
                {
                  "code": "26436-6",
                  "system": "http://loinc.org",
                  "display": "Laboratory studies (set)"
                }
              ],
              "text": "Laboratory studies"
            },
            "section": [
              {
                "code": {
                  "coding": [
                    {
                      "code": "$18719-5",
                      "system": "http://loinc.org",
                      "display": "Chemistry studies (set)"
                    }
                  ],
                  "text": "Chemistry"
                },
                "entry": [
                  {
                    "reference": "urn:uuid:c3b38282-6450-41dc-98c6-92b5775c975b"
                  },
                  {
                    "reference": "urn:uuid:931aaf4d-7108-486a-9e01-661198ece527"
                  },
                  {
                    "reference": "urn:uuid:d47a9621-4a4f-46d5-acba-d76c53509018"
                  },
                  {
                    "reference": "urn:uuid:b8c95d39-7751-49d6-9e95-fce99c5c181b"
                  },
                  {
                    "reference": "urn:uuid:f192f912-4e61-4b52-8573-25dc75d3d5dc"
                  },
                  {
                    "reference": "urn:uuid:b61cfaff-e0fc-492b-86dc-0416488e3615"
                  },
                  {
                    "reference": "urn:uuid:4f5113f8-c523-4c0f-8430-cea7971a76c0"
                  },
                  {
                    "reference": "urn:uuid:b1f1cc8c-6a43-48c7-a874-829739dc4b21"
                  },
                  {
                    "reference": "urn:uuid:c0615f6b-56f2-477a-8d0d-809522fa0b3b"
                  },
                  {
                    "reference": "urn:uuid:d4a8e259-3361-45e9-83b4-17dbf90ba68a"
                  },
                  {
                    "reference": "urn:uuid:2f54f56b-059f-4b33-9c63-02e99aed43c1"
                  },
                  {
                    "reference": "urn:uuid:7233a717-14ca-4729-adff-8df5cf64577c"
                  },
                  {
                    "reference": "urn:uuid:844d277f-5262-4c63-ad9b-cc4b49b521e8"
                  }
                ],
                "text": {
                  "status": "generated",
                  "div": "<div xmlns=\"http://www.w3.org/1999/xhtml\"><h3>Chemistry</h3><table class=\"hl7__eu__lab__report\"><thead><tr><th>Test</th><th>22-FEB-2023</th><th>Reference&#xA0;Range</th><th>Unit</th></tr></thead><tbody><tr><td>Hemoglobin A1c/Hemoglobin.total in Blood</td><td><strong>6.4 H</strong></td><td>4 - 6</td><td>%</td></tr><tr><td>Glucose [Mass/volume] in Blood</td><td>93.6</td><td>70 - 140</td><td>mg/dL</td></tr><tr><td>Urea nitrogen [Mass/volume] in Blood</td><td>12.7</td><td>7 - 50</td><td>mg/dL</td></tr><tr><td>Creatinine [Mass/volume] in Blood</td><td>0.6</td><td>0.5 - 1.3</td><td>mg/dL</td></tr><tr><td>Calcium [Mass/volume] in Blood</td><td>10.2</td><td>8.5 - 10.4</td><td>mg/dL</td></tr><tr><td>Sodium [Moles/volume] in Blood</td><td>141.5</td><td>135 - 145</td><td>mmol/L</td></tr><tr><td>Potassium [Moles/volume] in Blood</td><td>5.0</td><td>3.5 - 5.3</td><td>mmol/L</td></tr><tr><td>Chloride [Moles/volume] in Blood</td><td>107.6</td><td>98 - 110</td><td>mmol/L</td></tr><tr><td>Carbon dioxide, total [Moles/volume] in Blood</td><td><strong>21.8 L</strong></td><td>22 - 32</td><td>mmol/L</td></tr><tr><td>Cholesterol [Mass/volume] in Serum or Plasma</td><td>158.4</td><td>125 - 200</td><td>mg/dL</td></tr><tr><td>Triglyceride [Mass/volume] in Serum or Plasma</td><td>101.2</td><td>0 - 199</td><td>mg/dL</td></tr><tr><td>Cholesterol in LDL [Mass/volume] in Serum or Plasma by Direct assay</td><td>105.4</td><td>0 - 130</td><td>mg/dL</td></tr><tr><td>Cholesterol in HDL [Mass/volume] in Serum or Plasma</td><td><strong>32.8 L</strong></td><td>50 - 100</td><td>mg/dL</td></tr></tbody></table></div>"
                },
                "title": "Chemistry"
              }
            ],
            "title": "Laboratory Report"
          },
          {
            "text": {
              "status": "generated",
              "div": "<div xmlns=\"http://www.w3.org/1999/xhtml\"><h3>Annotation</h3><table class=\"hl7__eu__lab__report\"><tr><th>Conclusion and Recommendations based on this report and previous findings known to us</th></tr><tr><td>The patient shows mildly elevated HbA1c, indicating prediabetes or suboptimal glycemic control. HDL cholesterol is low, which increases cardiovascular risk. Total CO₂ is slightly decreased, possibly reflecting mild metabolic acidosis or compensation. Other parameters, including renal function, electrolytes, and lipid profile, are within normal limits. Recommend further evaluation of glycemic control and cardiovascular risk management.</td></tr></table></div>"
            },
            "code": {
              "coding": [
                {
                  "system": "http://loinc.org",
                  "code": "48767-8",
                  "display": "Annotation comment"
                }
              ]
            },
            "title": "Annotation comment"
          }
        ],
        "status": "final",
        "subject": {
          "reference": "urn:uuid:4ef7d8a7-6373-417e-8196-5fc5f1d1fa2f",
          "display": "Jele Jurković"
        },
        "date": "2023-02-22T19:07:38Z",
        "title": "Laboratory Report",
        "confidentiality": "N"
      }
    },
    {
      "fullUrl": "urn:uuid:56bc5e31-457a-424d-b33c-cefdc03a7903",
      "resource": {
        "resourceType": "DiagnosticReport",
        "id": "56bc5e31-457a-424d-b33c-cefdc03a7903",
        "meta": {
          "profile": [
            "http://hl7.eu/fhir/laboratory/StructureDefinition/DiagnosticReport-eu-lab"
          ]
        },
        "identifier": [
          {
            "assigner": {
              "display": "HL7 Europe"
            },
            "system": "urn:oid:2.16.840.1.113883.2.51.999",
            "value": "76f05cc3-2c56-47fb-a1d2-558da6a1feee"
          }
        ],
        "extension": [
          {
            "url": "http://hl7.org/fhir/5.0/StructureDefinition/extension-DiagnosticReport.composition",
            "valueReference": {
              "reference": "urn:uuid:af4c7aec-9c7c-430e-bd87-ed62c0941b35"
            }
          }
        ],
        "category": [
          {
            "coding": [
              {
                "code": "26436-6",
                "system": "http://loinc.org",
                "display": "Laboratory studies (set)"
              }
            ]
          }
        ],
        "specimen": [
          {
            "reference": "urn:uuid:2810fce2-b799-4313-b0a5-7cbc6bdb8396"
          },
          {
            "reference": "urn:uuid:e5717cfb-3820-46d0-8f36-744e26ec44da"
          }
        ],
        "result": [
          {
            "reference": "urn:uuid:c3b38282-6450-41dc-98c6-92b5775c975b"
          },
          {
            "reference": "urn:uuid:931aaf4d-7108-486a-9e01-661198ece527"
          },
          {
            "reference": "urn:uuid:d47a9621-4a4f-46d5-acba-d76c53509018"
          },
          {
            "reference": "urn:uuid:b8c95d39-7751-49d6-9e95-fce99c5c181b"
          },
          {
            "reference": "urn:uuid:f192f912-4e61-4b52-8573-25dc75d3d5dc"
          },
          {
            "reference": "urn:uuid:b61cfaff-e0fc-492b-86dc-0416488e3615"
          },
          {
            "reference": "urn:uuid:4f5113f8-c523-4c0f-8430-cea7971a76c0"
          },
          {
            "reference": "urn:uuid:b1f1cc8c-6a43-48c7-a874-829739dc4b21"
          },
          {
            "reference": "urn:uuid:c0615f6b-56f2-477a-8d0d-809522fa0b3b"
          },
          {
            "reference": "urn:uuid:d4a8e259-3361-45e9-83b4-17dbf90ba68a"
          },
          {
            "reference": "urn:uuid:2f54f56b-059f-4b33-9c63-02e99aed43c1"
          },
          {
            "reference": "urn:uuid:7233a717-14ca-4729-adff-8df5cf64577c"
          },
          {
            "reference": "urn:uuid:844d277f-5262-4c63-ad9b-cc4b49b521e8"
          }
        ],
        "status": "registered",
        "code": {
          "coding": [
            {
              "code": "11502-2",
              "system": "http://loinc.org",
              "display": "Laboratory report"
            }
          ]
        },
        "subject": {
          "reference": "urn:uuid:4ef7d8a7-6373-417e-8196-5fc5f1d1fa2f",
          "display": "Jele Jurković"
        }
      }
    },
    {
      "fullUrl": "urn:uuid:4ef7d8a7-6373-417e-8196-5fc5f1d1fa2f",
      "resource": {
        "resourceType": "Patient",
        "id": "4ef7d8a7-6373-417e-8196-5fc5f1d1fa2f",
        "meta": {
          "security": [
            {
              "system": "http://terminology.hl7.org/CodeSystem/v3-ActReason",
              "code": "HTEST"
            },
            {
              "system": "http://terminology.hl7.org/CodeSystem/v3-ActReason",
              "code": "TRAIN"
            }
          ],
          "tag": [
            {
              "system": "https://synderai.net/fhir/CodeSystem/tags",
              "code": "synthetic",
              "display": "SYNDERAI Synthetic data"
            }
          ],
          "profile": [
            "http://hl7.eu/fhir/base/StructureDefinition/patient-eu-core"
          ]
        },
        "identifier": [
          {
            "type": {
              "coding": [
                {
                  "code": "PT",
                  "system": "http://terminology.hl7.org/CodeSystem/v2-0203"
                }
              ]
            },
            "system": "http://ec.europa.eu/identifier/eci",
            "value": "3583-291434-1"
          },
          {
            "type": {
              "coding": [
                {
                  "code": "MR",
                  "system": "http://terminology.hl7.org/CodeSystem/v2-0203"
                }
              ]
            },
            "system": "http://local.setting.eu/identifier",
            "value": "9d4fea2d-eece-b99f-3e16-832f0f5813f5"
          }
        ],
        "name": [
          {
            "family": "Jurković"
          },
          {
            "given": [
              "Jele"
            ]
          },
          {
            "text": "Jele Jurković"
          }
        ],
        "address": [
          {
            "line": [
              "Klesarski put 7b/8"
            ],
            "use": "home",
            "type": "physical",
            "postalCode": "34310",
            "city": "Pleternica",
            "country": "Croatia"
          }
        ],
        "telecom": [
          {
            "system": "phone",
            "value": "021 083 354"
          }
        ],
        "extension": [
          {
            "url": "http://hl7.org/fhir/StructureDefinition/patient-nationality",
            "valueCodeableConcept": {
              "coding": [
                {
                  "code": "HR",
                  "system": "http://hl7.org/fhir/ValueSet/country"
                }
              ]
            }
          }
        ],
        "text": {
          "status": "generated",
          "div": "<div xmlns=\"http://www.w3.org/1999/xhtml\"><table class=\"hl7__ips\"><tr><td>Jele Jurković</td><td>female</td><td>07-Jan-1953</td></tr></table></div>"
        },
        "gender": "female",
        "birthDate": "1953-01-07"
      }
    },
    {
      "fullUrl": "urn:uuid:e370427b-b3e9-4bd0-bca8-083a0ee8ae16",
      "resource": {
        "resourceType": "ServiceRequest",
        "id": "e370427b-b3e9-4bd0-bca8-083a0ee8ae16",
        "meta": {
          "profile": [
            "http://hl7.eu/fhir/laboratory/StructureDefinition/ServiceRequest-eu-lab"
          ]
        },
        "identifier": [
          {
            "system": "http://example.org",
            "value": "484719e2-a812-4b46-b4bb-1d54af5e2afb"
          }
        ],
        "specimen": [
          {
            "reference": "urn:uuid:2810fce2-b799-4313-b0a5-7cbc6bdb8396"
          },
          {
            "reference": "urn:uuid:e5717cfb-3820-46d0-8f36-744e26ec44da"
          }
        ],
        "reasonCode": [
          {
            "coding": [
              {
                "code": "64859006",
                "system": "http://snomed.info/sct",
                "display": "Osteoporosis"
              }
            ]
          },
          {
            "coding": [
              {
                "code": "6525002",
                "system": "http://snomed.info/sct",
                "display": "Dependent drug abuse"
              }
            ]
          },
          {
            "coding": [
              {
                "code": "15777000",
                "system": "http://snomed.info/sct",
                "display": "Prediabetes"
              }
            ]
          }
        ],
        "status": "active",
        "intent": "order",
        "code": {
          "coding": [
            {
              "code": "108252007",
              "system": "http://snomed.info/sct",
              "display": "Laboratory procedure"
            }
          ]
        },
        "subject": {
          "reference": "urn:uuid:4ef7d8a7-6373-417e-8196-5fc5f1d1fa2f",
          "display": "Jele Jurković"
        },
        "requester": {
          "reference": "urn:uuid:90eaf1d8-b00b-4041-9cb3-67459df6d697"
        }
      }
    },
    {
      "fullUrl": "urn:uuid:90eaf1d8-b00b-4041-9cb3-67459df6d697",
      "resource": {
        "resourceType": "PractitionerRole",
        "id": "90eaf1d8-b00b-4041-9cb3-67459df6d697",
        "meta": {
          "profile": [
            "http://hl7.eu/fhir/base/StructureDefinition/practitionerRole-eu"
          ]
        },
        "text": {
          "status": "generated",
          "div": "<div xmlns=\"http://www.w3.org/1999/xhtml\">Provider Role Id: 90eaf1d8-b00b-4041-9cb3-67459df6d697</div>"
        },
        "organization": {
          "reference": "urn:uuid:a6182c9f-e54c-495e-adba-359455b1840e"
        }
      }
    },
    {
      "fullUrl": "urn:uuid:a6182c9f-e54c-495e-adba-359455b1840e",
      "resource": {
        "resourceType": "Organization",
        "id": "a6182c9f-e54c-495e-adba-359455b1840e",
        "meta": {
          "profile": [
            "http://hl7.eu/fhir/base/StructureDefinition/organization-eu"
          ]
        },
        "identifier": [
          {
            "assigner": {
              "display": "HL7 Europe"
            },
            "system": "urn:oid:2.16.840.1.113883.2.51.999",
            "value": "20bedd66-4f07-465d-a1b1-d6d8845b0235"
          }
        ],
        "address": [
          {
            "line": [
              "Osječka ulica 107"
            ],
            "city": "Požega",
            "postalCode": "34000",
            "country": "Croatia"
          }
        ],
        "text": {
          "status": "generated",
          "div": "<div xmlns=\"http://www.w3.org/1999/xhtml\">Provider Organization: Opća županijska bolnica Požega</div>"
        },
        "name": "Opća županijska bolnica Požega"
      }
    },
    {
      "fullUrl": "urn:uuid:2810fce2-b799-4313-b0a5-7cbc6bdb8396",
      "resource": {
        "resourceType": "Specimen",
        "id": "2810fce2-b799-4313-b0a5-7cbc6bdb8396",
        "meta": {
          "profile": [
            "http://hl7.eu/fhir/laboratory/StructureDefinition/Specimen-eu-lab"
          ]
        },
        "collection": {
          "collectedDateTime": "2023-02-22"
        },
        "text": {
          "status": "generated",
          "div": "<div xmlns=\"http://www.w3.org/1999/xhtml\"><table class=\"hl7__eu__lab__report\"><tr><th>Specimen</th><th>Collection Date</th></tr><tr><td>Whole blood specimen (specimen)</td><td><span class=\"nb\">22-Feb-2023</span></td></tr></table></div>"
        },
        "type": {
          "coding": [
            {
              "code": "258580003",
              "system": "http://snomed.info/sct",
              "display": "Whole blood specimen (specimen)"
            }
          ]
        }
      }
    },
    {
      "fullUrl": "urn:uuid:e5717cfb-3820-46d0-8f36-744e26ec44da",
      "resource": {
        "resourceType": "Specimen",
        "id": "e5717cfb-3820-46d0-8f36-744e26ec44da",
        "meta": {
          "profile": [
            "http://hl7.eu/fhir/laboratory/StructureDefinition/Specimen-eu-lab"
          ]
        },
        "collection": {
          "collectedDateTime": "2023-02-22"
        },
        "text": {
          "status": "generated",
          "div": "<div xmlns=\"http://www.w3.org/1999/xhtml\"><table class=\"hl7__eu__lab__report\"><tr><th>Specimen</th><th>Collection Date</th></tr><tr><td>Acellular blood (serum or plasma) specimen</td><td><span class=\"nb\">22-Feb-2023</span></td></tr></table></div>"
        },
        "type": {
          "coding": [
            {
              "code": "122592007",
              "system": "http://snomed.info/sct",
              "display": "Acellular blood (serum or plasma) specimen"
            }
          ]
        }
      }
    },
    {
      "fullUrl": "urn:uuid:c3b38282-6450-41dc-98c6-92b5775c975b",
      "resource": {
        "resourceType": "Observation",
        "id": "c3b38282-6450-41dc-98c6-92b5775c975b",
        "meta": {
          "profile": [
            "http://hl7.eu/fhir/laboratory/StructureDefinition/Observation-resultslab-eu-lab"
          ]
        },
        "performer": [
          {
            "display": "The Central European Lab"
          }
        ],
        "category": [
          {
            "coding": [
              {
                "system": "http://terminology.hl7.org/CodeSystem/observation-category",
                "code": "laboratory"
              }
            ]
          }
        ],
        "code": {
          "coding": [
            {
              "code": "4548-4",
              "system": "http://loinc.org",
              "display": "Hemoglobin A1c/Hemoglobin.total in Blood"
            }
          ],
          "text": "Hemoglobin A1c/Hemoglobin.total in Blood"
        },
        "valueQuantity": {
          "system": "http://unitsofmeasure.org",
          "value": 6.4,
          "unit": "%",
          "code": "%"
        },
        "referenceRange": [
          {
            "low": {
              "value": 4,
              "code": "%",
              "system": "http://unitsofmeasure.org"
            }
          },
          {
            "high": {
              "value": 6,
              "code": "%",
              "system": "http://unitsofmeasure.org"
            }
          }
        ],
        "interpretation": [
          {
            "coding": [
              {
                "code": "H",
                "system": "http://terminology.hl7.org/CodeSystem/v3-ObservationInterpretation",
                "display": "High"
              }
            ]
          }
        ],
        "text": {
          "status": "generated",
          "div": "<div xmlns=\"http://www.w3.org/1999/xhtml\"><table class=\"hl7__eu__lab__report\"><tr><th>Test</th><th>22-Feb-2023</th><th>Reference&#xA0;Range</th><th>Unit</th></tr><tr><td>Hemoglobin A1c/Hemoglobin.total in Blood</td><td>6.4</td><td>4 - 6</td><td>H</td><td>%</td></tr></table></div>"
        },
        "status": "final",
        "subject": {
          "reference": "urn:uuid:4ef7d8a7-6373-417e-8196-5fc5f1d1fa2f",
          "display": "Jele Jurković"
        },
        "effectiveDateTime": "2023-02-22T18:07:38Z",
        "specimen": {
          "reference": "urn:uuid:2810fce2-b799-4313-b0a5-7cbc6bdb8396"
        }
      }
    },
    {
      "fullUrl": "urn:uuid:931aaf4d-7108-486a-9e01-661198ece527",
      "resource": {
        "resourceType": "Observation",
        "id": "931aaf4d-7108-486a-9e01-661198ece527",
        "meta": {
          "profile": [
            "http://hl7.eu/fhir/laboratory/StructureDefinition/Observation-resultslab-eu-lab"
          ]
        },
        "performer": [
          {
            "display": "The Central European Lab"
          }
        ],
        "category": [
          {
            "coding": [
              {
                "system": "http://terminology.hl7.org/CodeSystem/observation-category",
                "code": "laboratory"
              }
            ]
          }
        ],
        "code": {
          "coding": [
            {
              "code": "2339-0",
              "system": "http://loinc.org",
              "display": "Glucose [Mass/volume] in Blood"
            }
          ],
          "text": "Glucose [Mass/volume] in Blood"
        },
        "valueQuantity": {
          "system": "http://unitsofmeasure.org",
          "value": 93.6,
          "unit": "mg/dL",
          "code": "mg/dL"
        },
        "referenceRange": [
          {
            "low": {
              "value": 70,
              "code": "mg/dL",
              "system": "http://unitsofmeasure.org"
            }
          },
          {
            "high": {
              "value": 140,
              "code": "mg/dL",
              "system": "http://unitsofmeasure.org"
            }
          }
        ],
        "text": {
          "status": "generated",
          "div": "<div xmlns=\"http://www.w3.org/1999/xhtml\"><table class=\"hl7__eu__lab__report\"><tr><th>Test</th><th>22-Feb-2023</th><th>Reference&#xA0;Range</th><th>Unit</th></tr><tr><td>Glucose [Mass/volume] in Blood</td><td>93.6</td><td>70 - 140</td><td></td><td>mg/dL</td></tr></table></div>"
        },
        "status": "final",
        "subject": {
          "reference": "urn:uuid:4ef7d8a7-6373-417e-8196-5fc5f1d1fa2f",
          "display": "Jele Jurković"
        },
        "effectiveDateTime": "2023-02-22T18:07:38Z",
        "specimen": {
          "reference": "urn:uuid:2810fce2-b799-4313-b0a5-7cbc6bdb8396"
        }
      }
    },
    {
      "fullUrl": "urn:uuid:d47a9621-4a4f-46d5-acba-d76c53509018",
      "resource": {
        "resourceType": "Observation",
        "id": "d47a9621-4a4f-46d5-acba-d76c53509018",
        "meta": {
          "profile": [
            "http://hl7.eu/fhir/laboratory/StructureDefinition/Observation-resultslab-eu-lab"
          ]
        },
        "performer": [
          {
            "display": "The Central European Lab"
          }
        ],
        "category": [
          {
            "coding": [
              {
                "system": "http://terminology.hl7.org/CodeSystem/observation-category",
                "code": "laboratory"
              }
            ]
          }
        ],
        "code": {
          "coding": [
            {
              "code": "6299-2",
              "system": "http://loinc.org",
              "display": "Urea nitrogen [Mass/volume] in Blood"
            }
          ],
          "text": "Urea nitrogen [Mass/volume] in Blood"
        },
        "valueQuantity": {
          "system": "http://unitsofmeasure.org",
          "value": 12.7,
          "unit": "mg/dL",
          "code": "mg/dL"
        },
        "referenceRange": [
          {
            "low": {
              "value": 7,
              "code": "mg/dL",
              "system": "http://unitsofmeasure.org"
            }
          },
          {
            "high": {
              "value": 50,
              "code": "mg/dL",
              "system": "http://unitsofmeasure.org"
            }
          }
        ],
        "text": {
          "status": "generated",
          "div": "<div xmlns=\"http://www.w3.org/1999/xhtml\"><table class=\"hl7__eu__lab__report\"><tr><th>Test</th><th>22-Feb-2023</th><th>Reference&#xA0;Range</th><th>Unit</th></tr><tr><td>Urea nitrogen [Mass/volume] in Blood</td><td>12.7</td><td>7 - 50</td><td></td><td>mg/dL</td></tr></table></div>"
        },
        "status": "final",
        "subject": {
          "reference": "urn:uuid:4ef7d8a7-6373-417e-8196-5fc5f1d1fa2f",
          "display": "Jele Jurković"
        },
        "effectiveDateTime": "2023-02-22T18:07:38Z",
        "specimen": {
          "reference": "urn:uuid:2810fce2-b799-4313-b0a5-7cbc6bdb8396"
        }
      }
    },
    {
      "fullUrl": "urn:uuid:b8c95d39-7751-49d6-9e95-fce99c5c181b",
      "resource": {
        "resourceType": "Observation",
        "id": "b8c95d39-7751-49d6-9e95-fce99c5c181b",
        "meta": {
          "profile": [
            "http://hl7.eu/fhir/laboratory/StructureDefinition/Observation-resultslab-eu-lab"
          ]
        },
        "performer": [
          {
            "display": "The Central European Lab"
          }
        ],
        "category": [
          {
            "coding": [
              {
                "system": "http://terminology.hl7.org/CodeSystem/observation-category",
                "code": "laboratory"
              }
            ]
          }
        ],
        "code": {
          "coding": [
            {
              "code": "38483-4",
              "system": "http://loinc.org",
              "display": "Creatinine [Mass/volume] in Blood"
            }
          ],
          "text": "Creatinine [Mass/volume] in Blood"
        },
        "valueQuantity": {
          "system": "http://unitsofmeasure.org",
          "value": 0.6,
          "unit": "mg/dL",
          "code": "mg/dL"
        },
        "referenceRange": [
          {
            "low": {
              "value": 0.5,
              "code": "mg/dL",
              "system": "http://unitsofmeasure.org"
            }
          },
          {
            "high": {
              "value": 1.3,
              "code": "mg/dL",
              "system": "http://unitsofmeasure.org"
            }
          }
        ],
        "text": {
          "status": "generated",
          "div": "<div xmlns=\"http://www.w3.org/1999/xhtml\"><table class=\"hl7__eu__lab__report\"><tr><th>Test</th><th>22-Feb-2023</th><th>Reference&#xA0;Range</th><th>Unit</th></tr><tr><td>Creatinine [Mass/volume] in Blood</td><td>0.6</td><td>0.5 - 1.3</td><td></td><td>mg/dL</td></tr></table></div>"
        },
        "status": "final",
        "subject": {
          "reference": "urn:uuid:4ef7d8a7-6373-417e-8196-5fc5f1d1fa2f",
          "display": "Jele Jurković"
        },
        "effectiveDateTime": "2023-02-22T18:07:38Z",
        "specimen": {
          "reference": "urn:uuid:2810fce2-b799-4313-b0a5-7cbc6bdb8396"
        }
      }
    },
    {
      "fullUrl": "urn:uuid:f192f912-4e61-4b52-8573-25dc75d3d5dc",
      "resource": {
        "resourceType": "Observation",
        "id": "f192f912-4e61-4b52-8573-25dc75d3d5dc",
        "meta": {
          "profile": [
            "http://hl7.eu/fhir/laboratory/StructureDefinition/Observation-resultslab-eu-lab"
          ]
        },
        "performer": [
          {
            "display": "The Central European Lab"
          }
        ],
        "category": [
          {
            "coding": [
              {
                "system": "http://terminology.hl7.org/CodeSystem/observation-category",
                "code": "laboratory"
              }
            ]
          }
        ],
        "code": {
          "coding": [
            {
              "code": "49765-1",
              "system": "http://loinc.org",
              "display": "Calcium [Mass/volume] in Blood"
            }
          ],
          "text": "Calcium [Mass/volume] in Blood"
        },
        "valueQuantity": {
          "system": "http://unitsofmeasure.org",
          "value": 10.2,
          "unit": "mg/dL",
          "code": "mg/dL"
        },
        "referenceRange": [
          {
            "low": {
              "value": 8.5,
              "code": "mg/dL",
              "system": "http://unitsofmeasure.org"
            }
          },
          {
            "high": {
              "value": 10.4,
              "code": "mg/dL",
              "system": "http://unitsofmeasure.org"
            }
          }
        ],
        "text": {
          "status": "generated",
          "div": "<div xmlns=\"http://www.w3.org/1999/xhtml\"><table class=\"hl7__eu__lab__report\"><tr><th>Test</th><th>22-Feb-2023</th><th>Reference&#xA0;Range</th><th>Unit</th></tr><tr><td>Calcium [Mass/volume] in Blood</td><td>10.2</td><td>8.5 - 10.4</td><td></td><td>mg/dL</td></tr></table></div>"
        },
        "status": "final",
        "subject": {
          "reference": "urn:uuid:4ef7d8a7-6373-417e-8196-5fc5f1d1fa2f",
          "display": "Jele Jurković"
        },
        "effectiveDateTime": "2023-02-22T18:07:38Z",
        "specimen": {
          "reference": "urn:uuid:2810fce2-b799-4313-b0a5-7cbc6bdb8396"
        }
      }
    },
    {
      "fullUrl": "urn:uuid:b61cfaff-e0fc-492b-86dc-0416488e3615",
      "resource": {
        "resourceType": "Observation",
        "id": "b61cfaff-e0fc-492b-86dc-0416488e3615",
        "meta": {
          "profile": [
            "http://hl7.eu/fhir/laboratory/StructureDefinition/Observation-resultslab-eu-lab"
          ]
        },
        "performer": [
          {
            "display": "The Central European Lab"
          }
        ],
        "category": [
          {
            "coding": [
              {
                "system": "http://terminology.hl7.org/CodeSystem/observation-category",
                "code": "laboratory"
              }
            ]
          }
        ],
        "code": {
          "coding": [
            {
              "code": "2947-0",
              "system": "http://loinc.org",
              "display": "Sodium [Moles/volume] in Blood"
            }
          ],
          "text": "Sodium [Moles/volume] in Blood"
        },
        "valueQuantity": {
          "system": "http://unitsofmeasure.org",
          "value": 141.5,
          "unit": "mmol/L",
          "code": "mmol/L"
        },
        "referenceRange": [
          {
            "low": {
              "value": 135,
              "code": "mmol/L",
              "system": "http://unitsofmeasure.org"
            }
          },
          {
            "high": {
              "value": 145,
              "code": "mmol/L",
              "system": "http://unitsofmeasure.org"
            }
          }
        ],
        "text": {
          "status": "generated",
          "div": "<div xmlns=\"http://www.w3.org/1999/xhtml\"><table class=\"hl7__eu__lab__report\"><tr><th>Test</th><th>22-Feb-2023</th><th>Reference&#xA0;Range</th><th>Unit</th></tr><tr><td>Sodium [Moles/volume] in Blood</td><td>141.5</td><td>135 - 145</td><td></td><td>mmol/L</td></tr></table></div>"
        },
        "status": "final",
        "subject": {
          "reference": "urn:uuid:4ef7d8a7-6373-417e-8196-5fc5f1d1fa2f",
          "display": "Jele Jurković"
        },
        "effectiveDateTime": "2023-02-22T18:07:38Z",
        "specimen": {
          "reference": "urn:uuid:2810fce2-b799-4313-b0a5-7cbc6bdb8396"
        }
      }
    },
    {
      "fullUrl": "urn:uuid:4f5113f8-c523-4c0f-8430-cea7971a76c0",
      "resource": {
        "resourceType": "Observation",
        "id": "4f5113f8-c523-4c0f-8430-cea7971a76c0",
        "meta": {
          "profile": [
            "http://hl7.eu/fhir/laboratory/StructureDefinition/Observation-resultslab-eu-lab"
          ]
        },
        "performer": [
          {
            "display": "The Central European Lab"
          }
        ],
        "category": [
          {
            "coding": [
              {
                "system": "http://terminology.hl7.org/CodeSystem/observation-category",
                "code": "laboratory"
              }
            ]
          }
        ],
        "code": {
          "coding": [
            {
              "code": "6298-4",
              "system": "http://loinc.org",
              "display": "Potassium [Moles/volume] in Blood"
            }
          ],
          "text": "Potassium [Moles/volume] in Blood"
        },
        "valueQuantity": {
          "system": "http://unitsofmeasure.org",
          "value": 5,
          "unit": "mmol/L",
          "code": "mmol/L"
        },
        "referenceRange": [
          {
            "low": {
              "value": 3.5,
              "code": "mmol/L",
              "system": "http://unitsofmeasure.org"
            }
          },
          {
            "high": {
              "value": 5.3,
              "code": "mmol/L",
              "system": "http://unitsofmeasure.org"
            }
          }
        ],
        "text": {
          "status": "generated",
          "div": "<div xmlns=\"http://www.w3.org/1999/xhtml\"><table class=\"hl7__eu__lab__report\"><tr><th>Test</th><th>22-Feb-2023</th><th>Reference&#xA0;Range</th><th>Unit</th></tr><tr><td>Potassium [Moles/volume] in Blood</td><td>5.0</td><td>3.5 - 5.3</td><td></td><td>mmol/L</td></tr></table></div>"
        },
        "status": "final",
        "subject": {
          "reference": "urn:uuid:4ef7d8a7-6373-417e-8196-5fc5f1d1fa2f",
          "display": "Jele Jurković"
        },
        "effectiveDateTime": "2023-02-22T18:07:38Z",
        "specimen": {
          "reference": "urn:uuid:2810fce2-b799-4313-b0a5-7cbc6bdb8396"
        }
      }
    },
    {
      "fullUrl": "urn:uuid:b1f1cc8c-6a43-48c7-a874-829739dc4b21",
      "resource": {
        "resourceType": "Observation",
        "id": "b1f1cc8c-6a43-48c7-a874-829739dc4b21",
        "meta": {
          "profile": [
            "http://hl7.eu/fhir/laboratory/StructureDefinition/Observation-resultslab-eu-lab"
          ]
        },
        "performer": [
          {
            "display": "The Central European Lab"
          }
        ],
        "category": [
          {
            "coding": [
              {
                "system": "http://terminology.hl7.org/CodeSystem/observation-category",
                "code": "laboratory"
              }
            ]
          }
        ],
        "code": {
          "coding": [
            {
              "code": "2069-3",
              "system": "http://loinc.org",
              "display": "Chloride [Moles/volume] in Blood"
            }
          ],
          "text": "Chloride [Moles/volume] in Blood"
        },
        "valueQuantity": {
          "system": "http://unitsofmeasure.org",
          "value": 107.6,
          "unit": "mmol/L",
          "code": "mmol/L"
        },
        "referenceRange": [
          {
            "low": {
              "value": 98,
              "code": "mmol/L",
              "system": "http://unitsofmeasure.org"
            }
          },
          {
            "high": {
              "value": 110,
              "code": "mmol/L",
              "system": "http://unitsofmeasure.org"
            }
          }
        ],
        "text": {
          "status": "generated",
          "div": "<div xmlns=\"http://www.w3.org/1999/xhtml\"><table class=\"hl7__eu__lab__report\"><tr><th>Test</th><th>22-Feb-2023</th><th>Reference&#xA0;Range</th><th>Unit</th></tr><tr><td>Chloride [Moles/volume] in Blood</td><td>107.6</td><td>98 - 110</td><td></td><td>mmol/L</td></tr></table></div>"
        },
        "status": "final",
        "subject": {
          "reference": "urn:uuid:4ef7d8a7-6373-417e-8196-5fc5f1d1fa2f",
          "display": "Jele Jurković"
        },
        "effectiveDateTime": "2023-02-22T18:07:38Z",
        "specimen": {
          "reference": "urn:uuid:2810fce2-b799-4313-b0a5-7cbc6bdb8396"
        }
      }
    },
    {
      "fullUrl": "urn:uuid:c0615f6b-56f2-477a-8d0d-809522fa0b3b",
      "resource": {
        "resourceType": "Observation",
        "id": "c0615f6b-56f2-477a-8d0d-809522fa0b3b",
        "meta": {
          "profile": [
            "http://hl7.eu/fhir/laboratory/StructureDefinition/Observation-resultslab-eu-lab"
          ]
        },
        "performer": [
          {
            "display": "The Central European Lab"
          }
        ],
        "category": [
          {
            "coding": [
              {
                "system": "http://terminology.hl7.org/CodeSystem/observation-category",
                "code": "laboratory"
              }
            ]
          }
        ],
        "code": {
          "coding": [
            {
              "code": "20565-8",
              "system": "http://loinc.org",
              "display": "Carbon dioxide, total [Moles/volume] in Blood"
            }
          ],
          "text": "Carbon dioxide, total [Moles/volume] in Blood"
        },
        "valueQuantity": {
          "system": "http://unitsofmeasure.org",
          "value": 21.8,
          "unit": "mmol/L",
          "code": "mmol/L"
        },
        "referenceRange": [
          {
            "low": {
              "value": 22,
              "code": "mmol/L",
              "system": "http://unitsofmeasure.org"
            }
          },
          {
            "high": {
              "value": 32,
              "code": "mmol/L",
              "system": "http://unitsofmeasure.org"
            }
          }
        ],
        "interpretation": [
          {
            "coding": [
              {
                "code": "L",
                "system": "http://terminology.hl7.org/CodeSystem/v3-ObservationInterpretation",
                "display": "Low"
              }
            ]
          }
        ],
        "text": {
          "status": "generated",
          "div": "<div xmlns=\"http://www.w3.org/1999/xhtml\"><table class=\"hl7__eu__lab__report\"><tr><th>Test</th><th>22-Feb-2023</th><th>Reference&#xA0;Range</th><th>Unit</th></tr><tr><td>Carbon dioxide, total [Moles/volume] in Blood</td><td>21.8</td><td>22 - 32</td><td>L</td><td>mmol/L</td></tr></table></div>"
        },
        "status": "final",
        "subject": {
          "reference": "urn:uuid:4ef7d8a7-6373-417e-8196-5fc5f1d1fa2f",
          "display": "Jele Jurković"
        },
        "effectiveDateTime": "2023-02-22T18:07:38Z",
        "specimen": {
          "reference": "urn:uuid:2810fce2-b799-4313-b0a5-7cbc6bdb8396"
        }
      }
    },
    {
      "fullUrl": "urn:uuid:d4a8e259-3361-45e9-83b4-17dbf90ba68a",
      "resource": {
        "resourceType": "Observation",
        "id": "d4a8e259-3361-45e9-83b4-17dbf90ba68a",
        "meta": {
          "profile": [
            "http://hl7.eu/fhir/laboratory/StructureDefinition/Observation-resultslab-eu-lab"
          ]
        },
        "performer": [
          {
            "display": "The Central European Lab"
          }
        ],
        "category": [
          {
            "coding": [
              {
                "system": "http://terminology.hl7.org/CodeSystem/observation-category",
                "code": "laboratory"
              }
            ]
          }
        ],
        "code": {
          "coding": [
            {
              "code": "2093-3",
              "system": "http://loinc.org",
              "display": "Cholesterol [Mass/volume] in Serum or Plasma"
            }
          ],
          "text": "Cholesterol [Mass/volume] in Serum or Plasma"
        },
        "valueQuantity": {
          "system": "http://unitsofmeasure.org",
          "value": 158.4,
          "unit": "mg/dL",
          "code": "mg/dL"
        },
        "referenceRange": [
          {
            "low": {
              "value": 125,
              "code": "mg/dL",
              "system": "http://unitsofmeasure.org"
            }
          },
          {
            "high": {
              "value": 200,
              "code": "mg/dL",
              "system": "http://unitsofmeasure.org"
            }
          }
        ],
        "text": {
          "status": "generated",
          "div": "<div xmlns=\"http://www.w3.org/1999/xhtml\"><table class=\"hl7__eu__lab__report\"><tr><th>Test</th><th>22-Feb-2023</th><th>Reference&#xA0;Range</th><th>Unit</th></tr><tr><td>Cholesterol [Mass/volume] in Serum or Plasma</td><td>158.4</td><td>125 - 200</td><td></td><td>mg/dL</td></tr></table></div>"
        },
        "status": "final",
        "subject": {
          "reference": "urn:uuid:4ef7d8a7-6373-417e-8196-5fc5f1d1fa2f",
          "display": "Jele Jurković"
        },
        "effectiveDateTime": "2023-02-22T18:07:38Z",
        "specimen": {
          "reference": "urn:uuid:e5717cfb-3820-46d0-8f36-744e26ec44da"
        }
      }
    },
    {
      "fullUrl": "urn:uuid:2f54f56b-059f-4b33-9c63-02e99aed43c1",
      "resource": {
        "resourceType": "Observation",
        "id": "2f54f56b-059f-4b33-9c63-02e99aed43c1",
        "meta": {
          "profile": [
            "http://hl7.eu/fhir/laboratory/StructureDefinition/Observation-resultslab-eu-lab"
          ]
        },
        "performer": [
          {
            "display": "The Central European Lab"
          }
        ],
        "category": [
          {
            "coding": [
              {
                "system": "http://terminology.hl7.org/CodeSystem/observation-category",
                "code": "laboratory"
              }
            ]
          }
        ],
        "code": {
          "coding": [
            {
              "code": "2571-8",
              "system": "http://loinc.org",
              "display": "Triglyceride [Mass/volume] in Serum or Plasma"
            }
          ],
          "text": "Triglyceride [Mass/volume] in Serum or Plasma"
        },
        "valueQuantity": {
          "system": "http://unitsofmeasure.org",
          "value": 101.2,
          "unit": "mg/dL",
          "code": "mg/dL"
        },
        "referenceRange": [
          {
            "low": {
              "value": 0,
              "code": "mg/dL",
              "system": "http://unitsofmeasure.org"
            }
          },
          {
            "high": {
              "value": 199,
              "code": "mg/dL",
              "system": "http://unitsofmeasure.org"
            }
          }
        ],
        "text": {
          "status": "generated",
          "div": "<div xmlns=\"http://www.w3.org/1999/xhtml\"><table class=\"hl7__eu__lab__report\"><tr><th>Test</th><th>22-Feb-2023</th><th>Reference&#xA0;Range</th><th>Unit</th></tr><tr><td>Triglyceride [Mass/volume] in Serum or Plasma</td><td>101.2</td><td>0 - 199</td><td></td><td>mg/dL</td></tr></table></div>"
        },
        "status": "final",
        "subject": {
          "reference": "urn:uuid:4ef7d8a7-6373-417e-8196-5fc5f1d1fa2f",
          "display": "Jele Jurković"
        },
        "effectiveDateTime": "2023-02-22T18:07:38Z",
        "specimen": {
          "reference": "urn:uuid:e5717cfb-3820-46d0-8f36-744e26ec44da"
        }
      }
    },
    {
      "fullUrl": "urn:uuid:7233a717-14ca-4729-adff-8df5cf64577c",
      "resource": {
        "resourceType": "Observation",
        "id": "7233a717-14ca-4729-adff-8df5cf64577c",
        "meta": {
          "profile": [
            "http://hl7.eu/fhir/laboratory/StructureDefinition/Observation-resultslab-eu-lab"
          ]
        },
        "performer": [
          {
            "display": "The Central European Lab"
          }
        ],
        "category": [
          {
            "coding": [
              {
                "system": "http://terminology.hl7.org/CodeSystem/observation-category",
                "code": "laboratory"
              }
            ]
          }
        ],
        "code": {
          "coding": [
            {
              "code": "18262-6",
              "system": "http://loinc.org",
              "display": "Cholesterol in LDL [Mass/volume] in Serum or Plasma by Direct assay"
            }
          ],
          "text": "Cholesterol in LDL [Mass/volume] in Serum or Plasma by Direct assay"
        },
        "valueQuantity": {
          "system": "http://unitsofmeasure.org",
          "value": 105.4,
          "unit": "mg/dL",
          "code": "mg/dL"
        },
        "referenceRange": [
          {
            "low": {
              "value": 0,
              "code": "mg/dL",
              "system": "http://unitsofmeasure.org"
            }
          },
          {
            "high": {
              "value": 130,
              "code": "mg/dL",
              "system": "http://unitsofmeasure.org"
            }
          }
        ],
        "text": {
          "status": "generated",
          "div": "<div xmlns=\"http://www.w3.org/1999/xhtml\"><table class=\"hl7__eu__lab__report\"><tr><th>Test</th><th>22-Feb-2023</th><th>Reference&#xA0;Range</th><th>Unit</th></tr><tr><td>Cholesterol in LDL [Mass/volume] in Serum or Plasma by Direct assay</td><td>105.4</td><td>0 - 130</td><td></td><td>mg/dL</td></tr></table></div>"
        },
        "status": "final",
        "subject": {
          "reference": "urn:uuid:4ef7d8a7-6373-417e-8196-5fc5f1d1fa2f",
          "display": "Jele Jurković"
        },
        "effectiveDateTime": "2023-02-22T18:07:38Z",
        "specimen": {
          "reference": "urn:uuid:e5717cfb-3820-46d0-8f36-744e26ec44da"
        }
      }
    },
    {
      "fullUrl": "urn:uuid:844d277f-5262-4c63-ad9b-cc4b49b521e8",
      "resource": {
        "resourceType": "Observation",
        "id": "844d277f-5262-4c63-ad9b-cc4b49b521e8",
        "meta": {
          "profile": [
            "http://hl7.eu/fhir/laboratory/StructureDefinition/Observation-resultslab-eu-lab"
          ]
        },
        "performer": [
          {
            "display": "The Central European Lab"
          }
        ],
        "category": [
          {
            "coding": [
              {
                "system": "http://terminology.hl7.org/CodeSystem/observation-category",
                "code": "laboratory"
              }
            ]
          }
        ],
        "code": {
          "coding": [
            {
              "code": "2085-9",
              "system": "http://loinc.org",
              "display": "Cholesterol in HDL [Mass/volume] in Serum or Plasma"
            }
          ],
          "text": "Cholesterol in HDL [Mass/volume] in Serum or Plasma"
        },
        "valueQuantity": {
          "system": "http://unitsofmeasure.org",
          "value": 32.8,
          "unit": "mg/dL",
          "code": "mg/dL"
        },
        "referenceRange": [
          {
            "low": {
              "value": 50,
              "code": "mg/dL",
              "system": "http://unitsofmeasure.org"
            }
          },
          {
            "high": {
              "value": 100,
              "code": "mg/dL",
              "system": "http://unitsofmeasure.org"
            }
          }
        ],
        "interpretation": [
          {
            "coding": [
              {
                "code": "L",
                "system": "http://terminology.hl7.org/CodeSystem/v3-ObservationInterpretation",
                "display": "Low"
              }
            ]
          }
        ],
        "text": {
          "status": "generated",
          "div": "<div xmlns=\"http://www.w3.org/1999/xhtml\"><table class=\"hl7__eu__lab__report\"><tr><th>Test</th><th>22-Feb-2023</th><th>Reference&#xA0;Range</th><th>Unit</th></tr><tr><td>Cholesterol in HDL [Mass/volume] in Serum or Plasma</td><td>32.8</td><td>50 - 100</td><td>L</td><td>mg/dL</td></tr></table></div>"
        },
        "status": "final",
        "subject": {
          "reference": "urn:uuid:4ef7d8a7-6373-417e-8196-5fc5f1d1fa2f",
          "display": "Jele Jurković"
        },
        "effectiveDateTime": "2023-02-22T18:07:38Z",
        "specimen": {
          "reference": "urn:uuid:e5717cfb-3820-46d0-8f36-744e26ec44da"
        }
      }
    },
    {
      "fullUrl": "urn:uuid:66b5f1c0-937d-44c6-b219-773f3f36baca",
      "resource": {
        "resourceType": "Device",
        "id": "66b5f1c0-937d-44c6-b219-773f3f36baca",
        "deviceName": [
          {
            "name": "SYNDERAI Synthetic Generator",
            "type": "manufacturer-name"
          }
        ],
        "version": [
          {
            "value": "5.0"
          }
        ],
        "text": {
          "status": "generated",
          "div": "<div xmlns=\"http://www.w3.org/1999/xhtml\">SYNDERAI Synthetic Generator v5.0</div>"
        },
        "status": "active\"",
        "distinctIdentifier": "synderai-generator-50",
        "manufacturer": "SYNDERAI Project"
      }
    },
    {
      "fullUrl": "urn:uuid:3d4bede5-3786-4f86-93a3-b08a596d1364",
      "resource": {
        "resourceType": "Provenance",
        "id": "3d4bede5-3786-4f86-93a3-b08a596d1364",
        "target": [
          {
            "reference": "Patient/4ef7d8a7-6373-417e-8196-5fc5f1d1fa2f"
          },
          {
            "reference": "Bundle/278544d7-ea72-4349-ab72-653da34415ac"
          },
          {
            "reference": "Composition/354dcae3-7c1e-4c18-9797-bca528d9e3db"
          },
          {
            "reference": "PractitionerRole/78ea6b27-3253-459b-a4ea-a01bab345a1d"
          },
          {
            "reference": "Practitioner/c7d55151-153f-4071-b8f2-9ea4a2eeb769"
          },
          {
            "reference": "PractitionerRole/90eaf1d8-b00b-4041-9cb3-67459df6d697"
          },
          {
            "reference": "Organization/a6182c9f-e54c-495e-adba-359455b1840e"
          }
        ],
        "activity": {
          "text": "Synthetic Example Data Generation"
        },
        "policy": [
          "https://synderai.net/synderai-synthetic-data-policy"
        ],
        "agent": [
          {
            "type": {
              "text": "author"
            },
            "who": {
              "reference": "Device/66b5f1c0-937d-44c6-b219-773f3f36baca"
            }
          }
        ],
        "reason": [
          {
            "text": "Interoperability Testing and Training (non-clinical use)"
          }
        ],
        "text": {
          "status": "generated",
          "div": "<div xmlns=\"http://www.w3.org/1999/xhtml\">Provenance for SYNDERAI Synthetic Example Data Resource</div>"
        },
        "recorded": "2023-02-22T19:07:38Z"
      }
    },
    {
      "fullUrl": "urn:uuid:78ea6b27-3253-459b-a4ea-a01bab345a1d",
      "resource": {
        "resourceType": "PractitionerRole",
        "id": "78ea6b27-3253-459b-a4ea-a01bab345a1d",
        "meta": {
          "profile": [
            "http://hl7.eu/fhir/base/StructureDefinition/practitionerRole-eu"
          ]
        },
        "text": {
          "status": "generated",
          "div": "<div xmlns=\"http://www.w3.org/1999/xhtml\">Laboratory Role Id: 78ea6b27-3253-459b-a4ea-a01bab345a1d</div>"
        },
        "practitioner": {
          "reference": "urn:uuid:c7d55151-153f-4071-b8f2-9ea4a2eeb769"
        }
      }
    },
    {
      "fullUrl": "urn:uuid:c7d55151-153f-4071-b8f2-9ea4a2eeb769",
      "resource": {
        "resourceType": "Practitioner",
        "id": "c7d55151-153f-4071-b8f2-9ea4a2eeb769",
        "meta": {
          "profile": [
            "http://hl7.eu/fhir/base/StructureDefinition/practitioner-eu"
          ]
        },
        "identifier": [
          {
            "assigner": {
              "display": "HL7 Europe"
            },
            "system": "urn:oid:2.16.840.1.113883.2.51.999",
            "value": "9ce2cdb9-706a-48eb-9a61-ee4eaa70ed6b"
          }
        ],
        "name": [
          {
            "prefix": [
              "dr"
            ],
            "given": [
              "Ex"
            ],
            "family": "Ample"
          }
        ],
        "address": [
          {
            "line": [
              "Laboratoire Central Européenne",
              "Boulevard du Jardin Botanique 32"
            ],
            "postalCode": "1000",
            "city": "Brussels",
            "country": "Belgium"
          }
        ],
        "text": {
          "status": "generated",
          "div": "<div xmlns=\"http://www.w3.org/1999/xhtml\">Laboratory: Laboratoire Central Européenne, 1000 Brussels, Belgium</div>"
        }
      }
    }
  ],
  "type": "document",
  "timestamp": "2023-02-22T19:07:38Z"
}
