{
  "resourceType": "Bundle",
  "id": "dd332f61-564f-400d-912a-6545980cd2a7",
  "meta": {
    "profile": [
      "http://hl7.eu/fhir/laboratory/StructureDefinition/Bundle-eu-lab"
    ]
  },
  "identifier": {
    "assigner": {
      "display": "HL7 Europe"
    },
    "system": "urn:oid:2.16.840.1.113883.2.51.999",
    "value": "7765560a-d821-43e5-a453-2779489c6dcf"
  },
  "entry": [
    {
      "fullUrl": "urn:uuid:aac6fa23-b072-4da1-88e6-65828d47d6bd",
      "resource": {
        "resourceType": "Composition",
        "id": "aac6fa23-b072-4da1-88e6-65828d47d6bd",
        "meta": {
          "profile": [
            "http://hl7.eu/fhir/laboratory/StructureDefinition/Composition-eu-lab"
          ]
        },
        "identifier": {
          "assigner": {
            "display": "HL7 Europe"
          },
          "system": "urn:oid:2.16.840.1.113883.2.51.999",
          "value": "2c7fc120-0b0b-4956-b0ce-26298a1e6ce8"
        },
        "author": [
          {
            "reference": "urn:uuid:f3a7d218-68b1-492a-bffd-79eb321e6d0e"
          }
        ],
        "category": [
          {
            "coding": [
              {
                "code": "26436-6",
                "system": "http://loinc.org",
                "display": "Laboratory studies (set)"
              }
            ]
          }
        ],
        "type": {
          "coding": [
            {
              "code": "11502-2",
              "system": "http://loinc.org",
              "display": "Laboratory report"
            }
          ],
          "text": "Laboratory Report"
        },
        "section": [
          {
            "code": {
              "coding": [
                {
                  "code": "26436-6",
                  "system": "http://loinc.org",
                  "display": "Laboratory studies (set)"
                }
              ],
              "text": "Laboratory studies"
            },
            "section": [
              {
                "code": {
                  "coding": [
                    {
                      "code": "$18723-7",
                      "system": "http://loinc.org",
                      "display": "Hematology studies (set)"
                    }
                  ],
                  "text": "Hematology"
                },
                "entry": [
                  {
                    "reference": "urn:uuid:230c9456-d5bb-4978-a43e-addfb1808667"
                  },
                  {
                    "reference": "urn:uuid:3bcf8b9c-e2e6-4dcd-a91c-54ccb033f8d6"
                  },
                  {
                    "reference": "urn:uuid:3c2b3c40-a690-43b1-9daf-064b4e1759fa"
                  },
                  {
                    "reference": "urn:uuid:d4d84da8-0afb-462e-afb8-e15d4a110b7b"
                  },
                  {
                    "reference": "urn:uuid:92f67f09-b806-479c-b4f9-e18405ff3346"
                  },
                  {
                    "reference": "urn:uuid:b07e93e7-acad-4779-98ac-29b3080a7d7e"
                  },
                  {
                    "reference": "urn:uuid:40114ab1-6c5f-4230-93c3-d734b9843743"
                  },
                  {
                    "reference": "urn:uuid:383bf76d-3c2a-4032-bf0f-33dbc80cb271"
                  },
                  {
                    "reference": "urn:uuid:e68c10ba-eb12-44bd-b038-87c19899ff14"
                  },
                  {
                    "reference": "urn:uuid:1e5bcbd7-518d-4fd4-8e17-e995bebc56aa"
                  },
                  {
                    "reference": "urn:uuid:009bccb2-fe25-41aa-aa71-3df6b64d25b6"
                  }
                ],
                "text": {
                  "status": "generated",
                  "div": "<div xmlns=\"http://www.w3.org/1999/xhtml\"><h3>Hematology</h3><table class=\"hl7__eu__lab__report\"><thead><tr><th>Test</th><th>28-APR-2024</th><th>Reference&#xA0;Range</th><th>Unit</th></tr></thead><tbody><tr><td>Leukocytes [#/volume] in Blood by Automated count</td><td>5.2</td><td>4 - 11</td><td>10*3/uL</td></tr><tr><td>Erythrocytes [#/volume] in Blood by Automated count</td><td>4.3</td><td>3.8 - 5.7</td><td>10*6/uL</td></tr><tr><td>Hemoglobin [Mass/volume] in Blood</td><td>13.1</td><td>12 - 16</td><td>g/dL</td></tr><tr><td>Hematocrit [Volume Fraction] of Blood by Automated count</td><td>40.7</td><td>38 - 56</td><td>%</td></tr><tr><td>MCV [Entitic volume] by Automated count</td><td>80.4</td><td>78 - 98</td><td>fL</td></tr><tr><td>MCH [Entitic mass] by Automated count</td><td>32.8</td><td>27.5 - 34.5</td><td>pg</td></tr><tr><td>MCHC [Mass/volume] by Automated count</td><td><strong>35.8 H</strong></td><td>31 - 35</td><td>g/dL</td></tr><tr><td>Erythrocyte distribution width [Entitic volume] by Automated count</td><td>42.7</td><td>36 - 56</td><td>fL</td></tr><tr><td>Platelets [#/volume] in Blood by Automated count</td><td>249.1</td><td>150 - 450</td><td>10*3/uL</td></tr><tr><td>Platelet distribution width [Entitic volume] in Blood by Automated count</td><td><strong>242.6 H</strong></td><td>11.6 - 17.4</td><td>fL</td></tr><tr><td>Platelet mean volume [Entitic volume] in Blood by Automated count</td><td>10.1</td><td>7.4 - 12</td><td>fL</td></tr></tbody></table></div>"
                },
                "title": "Hematology"
              },
              {
                "code": {
                  "coding": [
                    {
                      "code": "$18719-5",
                      "system": "http://loinc.org",
                      "display": "Chemistry studies (set)"
                    }
                  ],
                  "text": "Chemistry"
                },
                "entry": [
                  {
                    "reference": "urn:uuid:c6a3f897-5cd3-4640-bddc-84051c9a30d8"
                  },
                  {
                    "reference": "urn:uuid:f51ac4de-2765-4cfc-9509-f0793071c8f1"
                  },
                  {
                    "reference": "urn:uuid:98d2cc25-58b9-4d1b-a18e-f43b10c70517"
                  },
                  {
                    "reference": "urn:uuid:3f428f20-b52f-488d-a1d0-bce4abbfdba4"
                  },
                  {
                    "reference": "urn:uuid:5b53b137-a82e-411d-8119-77e3291695b4"
                  },
                  {
                    "reference": "urn:uuid:81791636-a664-42f3-949b-c3cc0013736f"
                  },
                  {
                    "reference": "urn:uuid:4704e9d5-e95e-46db-a720-47b5ac29ae94"
                  },
                  {
                    "reference": "urn:uuid:41b785db-c25c-446d-b203-7c5bb14d2dc7"
                  },
                  {
                    "reference": "urn:uuid:2747fcd1-2664-4c6a-b0e4-de9dd92815b6"
                  },
                  {
                    "reference": "urn:uuid:44b48bd7-7a6a-4d34-9eb1-2aadbb800b5e"
                  },
                  {
                    "reference": "urn:uuid:561d602c-b50f-4cdb-a4c1-cc84882282a4"
                  },
                  {
                    "reference": "urn:uuid:ae9e10ea-2717-4fb5-b7d0-565f371872d1"
                  },
                  {
                    "reference": "urn:uuid:188f3770-e7c0-44fa-a872-b31cf15c7d83"
                  }
                ],
                "text": {
                  "status": "generated",
                  "div": "<div xmlns=\"http://www.w3.org/1999/xhtml\"><h3>Chemistry</h3><table class=\"hl7__eu__lab__report\"><thead><tr><th>Test</th><th>28-APR-2024</th><th>Reference&#xA0;Range</th><th>Unit</th></tr></thead><tbody><tr><td>Hemoglobin A1c/Hemoglobin.total in Blood</td><td><strong>3.9 L</strong></td><td>4 - 6</td><td>%</td></tr><tr><td>Glucose [Mass/volume] in Blood</td><td>86.1</td><td>70 - 140</td><td>mg/dL</td></tr><tr><td>Urea nitrogen [Mass/volume] in Blood</td><td>14.8</td><td>7 - 20</td><td>mg/dL</td></tr><tr><td>Creatinine [Mass/volume] in Blood</td><td><strong>0.4 L</strong></td><td>0.5 - 1.3</td><td>mg/dL</td></tr><tr><td>Calcium [Mass/volume] in Blood</td><td>10.0</td><td>8.5 - 10.5</td><td>mg/dL</td></tr><tr><td>Sodium [Moles/volume] in Blood</td><td>140.9</td><td>135 - 145</td><td>mmol/L</td></tr><tr><td>Potassium [Moles/volume] in Blood</td><td>4.5</td><td>3.5 - 5.1</td><td>mmol/L</td></tr><tr><td>Chloride [Moles/volume] in Blood</td><td>105.0</td><td>98 - 108</td><td>mmol/L</td></tr><tr><td>Carbon dioxide, total [Moles/volume] in Blood</td><td>26.5</td><td>22 - 29</td><td>mmol/L</td></tr><tr><td>Cholesterol [Mass/volume] in Serum or Plasma</td><td>197.9</td><td>0 - 200</td><td>mg/dL</td></tr><tr><td>Triglyceride [Mass/volume] in Serum or Plasma</td><td>137.3</td><td>0 - 199</td><td>mg/dL</td></tr><tr><td>Cholesterol in LDL [Mass/volume] in Serum or Plasma by Direct assay</td><td>113.6</td><td>0 - 130</td><td>mg/dL</td></tr><tr><td>Cholesterol in HDL [Mass/volume] in Serum or Plasma</td><td>56.9</td><td>46 - 77</td><td>mg/dL</td></tr></tbody></table></div>"
                },
                "title": "Chemistry"
              }
            ],
            "title": "Laboratory Report"
          },
          {
            "text": {
              "status": "generated",
              "div": "<div xmlns=\"http://www.w3.org/1999/xhtml\"><h3>Annotation</h3><table class=\"hl7__eu__lab__report\"><tr><th>Conclusion and Recommendations based on this report and previous findings known to us</th></tr><tr><td>Most parameters are within normal limits. Notable findings include mildly decreased HbA1c (3.9%) and creatinine (0.4 mg/dL), which may reflect low average glucose and reduced muscle mass, respectively, both common in elderly patients. Mildly elevated MCHC and markedly high platelet distribution width may be laboratory artifacts or reflect mild cell morphology changes. No acute pathology is evident. Clinical correlation is recommended.</td></tr></table></div>"
            },
            "code": {
              "coding": [
                {
                  "system": "http://loinc.org",
                  "code": "48767-8",
                  "display": "Annotation comment"
                }
              ]
            },
            "title": "Annotation comment"
          }
        ],
        "status": "final",
        "subject": {
          "reference": "urn:uuid:ad3a6219-3680-4688-ad4f-33469fbaedcb",
          "display": "Marlene Gerlach"
        },
        "date": "2024-04-28T21:24:33Z",
        "title": "Laboratory Report",
        "confidentiality": "N"
      }
    },
    {
      "fullUrl": "urn:uuid:45cd26b8-0662-40c4-bee2-f884cb700446",
      "resource": {
        "resourceType": "DiagnosticReport",
        "id": "45cd26b8-0662-40c4-bee2-f884cb700446",
        "meta": {
          "profile": [
            "http://hl7.eu/fhir/laboratory/StructureDefinition/DiagnosticReport-eu-lab"
          ]
        },
        "identifier": [
          {
            "assigner": {
              "display": "HL7 Europe"
            },
            "system": "urn:oid:2.16.840.1.113883.2.51.999",
            "value": "2e813774-6297-41f2-b79d-0fc472ac69fd"
          }
        ],
        "extension": [
          {
            "url": "http://hl7.org/fhir/5.0/StructureDefinition/extension-DiagnosticReport.composition",
            "valueReference": {
              "reference": "urn:uuid:2c7fc120-0b0b-4956-b0ce-26298a1e6ce8"
            }
          }
        ],
        "category": [
          {
            "coding": [
              {
                "code": "26436-6",
                "system": "http://loinc.org",
                "display": "Laboratory studies (set)"
              }
            ]
          }
        ],
        "specimen": [
          {
            "reference": "urn:uuid:079ebc2c-0059-4add-b683-025e585979fe"
          },
          {
            "reference": "urn:uuid:8a791319-a653-4fe4-8b20-069abd3cc1b9"
          },
          {
            "reference": "urn:uuid:079ebc2c-0059-4add-b683-025e585979fe"
          }
        ],
        "result": [
          {
            "reference": "urn:uuid:c6a3f897-5cd3-4640-bddc-84051c9a30d8"
          },
          {
            "reference": "urn:uuid:f51ac4de-2765-4cfc-9509-f0793071c8f1"
          },
          {
            "reference": "urn:uuid:98d2cc25-58b9-4d1b-a18e-f43b10c70517"
          },
          {
            "reference": "urn:uuid:3f428f20-b52f-488d-a1d0-bce4abbfdba4"
          },
          {
            "reference": "urn:uuid:5b53b137-a82e-411d-8119-77e3291695b4"
          },
          {
            "reference": "urn:uuid:81791636-a664-42f3-949b-c3cc0013736f"
          },
          {
            "reference": "urn:uuid:4704e9d5-e95e-46db-a720-47b5ac29ae94"
          },
          {
            "reference": "urn:uuid:41b785db-c25c-446d-b203-7c5bb14d2dc7"
          },
          {
            "reference": "urn:uuid:2747fcd1-2664-4c6a-b0e4-de9dd92815b6"
          },
          {
            "reference": "urn:uuid:44b48bd7-7a6a-4d34-9eb1-2aadbb800b5e"
          },
          {
            "reference": "urn:uuid:561d602c-b50f-4cdb-a4c1-cc84882282a4"
          },
          {
            "reference": "urn:uuid:ae9e10ea-2717-4fb5-b7d0-565f371872d1"
          },
          {
            "reference": "urn:uuid:188f3770-e7c0-44fa-a872-b31cf15c7d83"
          },
          {
            "reference": "urn:uuid:230c9456-d5bb-4978-a43e-addfb1808667"
          },
          {
            "reference": "urn:uuid:3bcf8b9c-e2e6-4dcd-a91c-54ccb033f8d6"
          },
          {
            "reference": "urn:uuid:3c2b3c40-a690-43b1-9daf-064b4e1759fa"
          },
          {
            "reference": "urn:uuid:d4d84da8-0afb-462e-afb8-e15d4a110b7b"
          },
          {
            "reference": "urn:uuid:92f67f09-b806-479c-b4f9-e18405ff3346"
          },
          {
            "reference": "urn:uuid:b07e93e7-acad-4779-98ac-29b3080a7d7e"
          },
          {
            "reference": "urn:uuid:40114ab1-6c5f-4230-93c3-d734b9843743"
          },
          {
            "reference": "urn:uuid:383bf76d-3c2a-4032-bf0f-33dbc80cb271"
          },
          {
            "reference": "urn:uuid:e68c10ba-eb12-44bd-b038-87c19899ff14"
          },
          {
            "reference": "urn:uuid:1e5bcbd7-518d-4fd4-8e17-e995bebc56aa"
          },
          {
            "reference": "urn:uuid:009bccb2-fe25-41aa-aa71-3df6b64d25b6"
          }
        ],
        "status": "registered",
        "code": {
          "coding": [
            {
              "code": "11502-2",
              "system": "http://loinc.org",
              "display": "Laboratory report"
            }
          ]
        },
        "subject": {
          "reference": "urn:uuid:ad3a6219-3680-4688-ad4f-33469fbaedcb",
          "display": "Marlene Gerlach"
        }
      }
    },
    {
      "fullUrl": "urn:uuid:ad3a6219-3680-4688-ad4f-33469fbaedcb",
      "resource": {
        "resourceType": "Patient",
        "id": "ad3a6219-3680-4688-ad4f-33469fbaedcb",
        "meta": {
          "security": [
            {
              "system": "http://terminology.hl7.org/CodeSystem/v3-ActReason",
              "code": "HTEST"
            },
            {
              "system": "http://terminology.hl7.org/CodeSystem/v3-ActReason",
              "code": "TRAIN"
            }
          ],
          "tag": [
            {
              "system": "https://synderai.net/fhir/CodeSystem/tags",
              "code": "synthetic",
              "display": "SYNDERAI Synthetic data"
            }
          ],
          "profile": [
            "http://hl7.eu/fhir/base/StructureDefinition/patient-eu-core"
          ]
        },
        "identifier": [
          {
            "type": {
              "coding": [
                {
                  "code": "PT",
                  "system": "http://terminology.hl7.org/CodeSystem/v2-0203"
                }
              ]
            },
            "system": "http://ec.europa.eu/identifier/eci",
            "value": "4536-398571-9"
          },
          {
            "type": {
              "coding": [
                {
                  "code": "MR",
                  "system": "http://terminology.hl7.org/CodeSystem/v2-0203"
                }
              ]
            },
            "system": "http://local.setting.eu/identifier",
            "value": "ff7a4ff6-4bac-f07f-03c9-b91b1e1cfb23"
          }
        ],
        "name": [
          {
            "family": "Gerlach"
          },
          {
            "given": [
              "Marlene"
            ]
          },
          {
            "text": "Marlene Gerlach"
          }
        ],
        "address": [
          {
            "line": [
              "Etzlerplatz 57-53"
            ],
            "use": "home",
            "type": "physical",
            "postalCode": "71522",
            "city": "Backnang",
            "country": "Germany"
          }
        ],
        "telecom": [
          {
            "system": "phone",
            "value": "+49(0)2700 61724"
          }
        ],
        "extension": [
          {
            "url": "http://hl7.org/fhir/StructureDefinition/patient-nationality",
            "valueCodeableConcept": {
              "coding": [
                {
                  "code": "DE",
                  "system": "http://hl7.org/fhir/ValueSet/country"
                }
              ]
            }
          }
        ],
        "text": {
          "status": "generated",
          "div": "<div xmlns=\"http://www.w3.org/1999/xhtml\"><table class=\"hl7__ips\"><tr><td>Marlene Gerlach</td><td>female</td><td>28-Aug-1939</td></tr></table></div>"
        },
        "gender": "female",
        "birthDate": "1939-08-28"
      }
    },
    {
      "fullUrl": "urn:uuid:6e70c7e4-e307-4545-816e-51064ade98c9",
      "resource": {
        "resourceType": "ServiceRequest",
        "id": "6e70c7e4-e307-4545-816e-51064ade98c9",
        "meta": {
          "profile": [
            "http://hl7.eu/fhir/laboratory/StructureDefinition/ServiceRequest-eu-lab"
          ]
        },
        "identifier": [
          {
            "system": "http://example.org",
            "value": "86506611-88aa-495b-9329-14c4959bba0a"
          }
        ],
        "specimen": [
          {
            "reference": "urn:uuid:079ebc2c-0059-4add-b683-025e585979fe"
          },
          {
            "reference": "urn:uuid:8a791319-a653-4fe4-8b20-069abd3cc1b9"
          }
        ],
        "reasonCode": [
          {
            "coding": [
              {
                "code": "55822004",
                "system": "http://snomed.info/sct",
                "display": "Hyperlipidemia"
              }
            ]
          },
          {
            "coding": [
              {
                "code": "414545008",
                "system": "http://snomed.info/sct",
                "display": "Ischemic heart disease"
              }
            ]
          },
          {
            "coding": [
              {
                "code": "157141000119108",
                "system": "http://snomed.info/sct",
                "display": "Proteinuria due to type 2 diabetes mellitus"
              }
            ]
          },
          {
            "coding": [
              {
                "code": "90781000119102",
                "system": "http://snomed.info/sct",
                "display": "Microalbuminuria due to type 2 diabetes mellitus"
              }
            ]
          },
          {
            "coding": [
              {
                "code": "127013003",
                "system": "http://snomed.info/sct",
                "display": "Disorder of kidney due to diabetes mellitus"
              }
            ]
          },
          {
            "coding": [
              {
                "code": "271737000",
                "system": "http://snomed.info/sct",
                "display": "Anemia"
              }
            ]
          },
          {
            "coding": [
              {
                "code": "15777000",
                "system": "http://snomed.info/sct",
                "display": "Prediabetes"
              }
            ]
          },
          {
            "coding": [
              {
                "code": "59621000",
                "system": "http://snomed.info/sct",
                "display": "Essential hypertension"
              }
            ]
          }
        ],
        "status": "active",
        "intent": "order",
        "code": {
          "coding": [
            {
              "code": "108252007",
              "system": "http://snomed.info/sct",
              "display": "Laboratory procedure"
            }
          ]
        },
        "subject": {
          "reference": "urn:uuid:ad3a6219-3680-4688-ad4f-33469fbaedcb",
          "display": "Marlene Gerlach"
        },
        "requester": {
          "reference": "urn:uuid:35b67946-43ce-4f74-b2b6-913dfc8dc626"
        }
      }
    },
    {
      "fullUrl": "urn:uuid:35b67946-43ce-4f74-b2b6-913dfc8dc626",
      "resource": {
        "resourceType": "PractitionerRole",
        "id": "35b67946-43ce-4f74-b2b6-913dfc8dc626",
        "meta": {
          "profile": [
            "http://hl7.eu/fhir/base/StructureDefinition/practitionerRole-eu"
          ]
        },
        "text": {
          "status": "generated",
          "div": "<div xmlns=\"http://www.w3.org/1999/xhtml\">Provider Role Id: 35b67946-43ce-4f74-b2b6-913dfc8dc626</div>"
        },
        "organization": {
          "reference": "urn:uuid:8455be50-32b6-456b-8bf2-e3eca757aedb"
        }
      }
    },
    {
      "fullUrl": "urn:uuid:8455be50-32b6-456b-8bf2-e3eca757aedb",
      "resource": {
        "resourceType": "Organization",
        "id": "8455be50-32b6-456b-8bf2-e3eca757aedb",
        "meta": {
          "profile": [
            "http://hl7.eu/fhir/base/StructureDefinition/organization-eu"
          ]
        },
        "identifier": [
          {
            "assigner": {
              "display": "HL7 Europe"
            },
            "system": "urn:oid:2.16.840.1.113883.2.51.999",
            "value": "0ecb4a22-0512-41fc-8b6a-541fc884b2fb"
          }
        ],
        "address": [
          {
            "line": [
              "Karl-Krische-Straße 4"
            ],
            "city": "Backnang",
            "postalCode": "71522",
            "country": "Germany"
          }
        ],
        "text": {
          "status": "generated",
          "div": "<div xmlns=\"http://www.w3.org/1999/xhtml\">Provider Organization: Gesundheitszentrum</div>"
        },
        "name": "Gesundheitszentrum"
      }
    },
    {
      "fullUrl": "urn:uuid:079ebc2c-0059-4add-b683-025e585979fe",
      "resource": {
        "resourceType": "Specimen",
        "id": "079ebc2c-0059-4add-b683-025e585979fe",
        "meta": {
          "profile": [
            "http://hl7.eu/fhir/laboratory/StructureDefinition/Specimen-eu-lab"
          ]
        },
        "collection": {
          "collectedDateTime": "2024-04-28"
        },
        "text": {
          "status": "generated",
          "div": "<div xmlns=\"http://www.w3.org/1999/xhtml\"><table class=\"hl7__eu__lab__report\"><tr><th>Specimen</th><th>Collection Date</th></tr><tr><td>Whole blood specimen (specimen)</td><td><span class=\"nb\">28-Apr-2024</span></td></tr></table></div>"
        },
        "type": {
          "coding": [
            {
              "code": "258580003",
              "system": "http://snomed.info/sct",
              "display": "Whole blood specimen (specimen)"
            }
          ]
        }
      }
    },
    {
      "fullUrl": "urn:uuid:8a791319-a653-4fe4-8b20-069abd3cc1b9",
      "resource": {
        "resourceType": "Specimen",
        "id": "8a791319-a653-4fe4-8b20-069abd3cc1b9",
        "meta": {
          "profile": [
            "http://hl7.eu/fhir/laboratory/StructureDefinition/Specimen-eu-lab"
          ]
        },
        "collection": {
          "collectedDateTime": "2024-04-28"
        },
        "text": {
          "status": "generated",
          "div": "<div xmlns=\"http://www.w3.org/1999/xhtml\"><table class=\"hl7__eu__lab__report\"><tr><th>Specimen</th><th>Collection Date</th></tr><tr><td>Acellular blood (serum or plasma) specimen</td><td><span class=\"nb\">28-Apr-2024</span></td></tr></table></div>"
        },
        "type": {
          "coding": [
            {
              "code": "122592007",
              "system": "http://snomed.info/sct",
              "display": "Acellular blood (serum or plasma) specimen"
            }
          ]
        }
      }
    },
    {
      "fullUrl": "urn:uuid:079ebc2c-0059-4add-b683-025e585979fe",
      "resource": {
        "resourceType": "Specimen",
        "id": "079ebc2c-0059-4add-b683-025e585979fe",
        "meta": {
          "profile": [
            "http://hl7.eu/fhir/laboratory/StructureDefinition/Specimen-eu-lab"
          ]
        },
        "collection": {
          "collectedDateTime": "2024-04-28"
        },
        "text": {
          "status": "generated",
          "div": "<div xmlns=\"http://www.w3.org/1999/xhtml\"><table class=\"hl7__eu__lab__report\"><tr><th>Specimen</th><th>Collection Date</th></tr><tr><td>Whole blood specimen (specimen)</td><td><span class=\"nb\">28-Apr-2024</span></td></tr></table></div>"
        },
        "type": {
          "coding": [
            {
              "code": "258580003",
              "system": "http://snomed.info/sct",
              "display": "Whole blood specimen (specimen)"
            }
          ]
        }
      }
    },
    {
      "fullUrl": "urn:uuid:c6a3f897-5cd3-4640-bddc-84051c9a30d8",
      "resource": {
        "resourceType": "Observation",
        "id": "c6a3f897-5cd3-4640-bddc-84051c9a30d8",
        "meta": {
          "profile": [
            "http://hl7.eu/fhir/laboratory/StructureDefinition/Observation-resultslab-eu-lab"
          ]
        },
        "performer": [
          {
            "display": "The Central European Lab"
          }
        ],
        "category": [
          {
            "coding": [
              {
                "system": "http://terminology.hl7.org/CodeSystem/observation-category",
                "code": "laboratory"
              }
            ]
          }
        ],
        "code": {
          "coding": [
            {
              "code": "4548-4",
              "system": "http://loinc.org",
              "display": "Hemoglobin A1c/Hemoglobin.total in Blood"
            }
          ],
          "text": "Hemoglobin A1c/Hemoglobin.total in Blood"
        },
        "valueQuantity": {
          "system": "http://unitsofmeasure.org",
          "value": 3.9,
          "unit": "%",
          "code": "%"
        },
        "referenceRange": [
          {
            "low": {
              "value": 4,
              "code": "%",
              "system": "http://unitsofmeasure.org"
            }
          },
          {
            "high": {
              "value": 6,
              "code": "%",
              "system": "http://unitsofmeasure.org"
            }
          }
        ],
        "interpretation": [
          {
            "coding": [
              {
                "code": "L",
                "system": "http://terminology.hl7.org/CodeSystem/v3-ObservationInterpretation",
                "display": "Low"
              }
            ]
          }
        ],
        "text": {
          "status": "generated",
          "div": "<div xmlns=\"http://www.w3.org/1999/xhtml\"><table class=\"hl7__eu__lab__report\"><tr><th>Test</th><th>28-Apr-2024</th><th>Reference&#xA0;Range</th><th>Unit</th></tr><tr><td>Hemoglobin A1c/Hemoglobin.total in Blood</td><td>3.9</td><td>4 - 6</td><td>L</td><td>%</td></tr></table></div>"
        },
        "status": "final",
        "subject": {
          "reference": "urn:uuid:ad3a6219-3680-4688-ad4f-33469fbaedcb",
          "display": "Marlene Gerlach"
        },
        "effectiveDateTime": "2024-04-28T19:24:33Z",
        "specimen": {
          "reference": "urn:uuid:079ebc2c-0059-4add-b683-025e585979fe"
        }
      }
    },
    {
      "fullUrl": "urn:uuid:f51ac4de-2765-4cfc-9509-f0793071c8f1",
      "resource": {
        "resourceType": "Observation",
        "id": "f51ac4de-2765-4cfc-9509-f0793071c8f1",
        "meta": {
          "profile": [
            "http://hl7.eu/fhir/laboratory/StructureDefinition/Observation-resultslab-eu-lab"
          ]
        },
        "performer": [
          {
            "display": "The Central European Lab"
          }
        ],
        "category": [
          {
            "coding": [
              {
                "system": "http://terminology.hl7.org/CodeSystem/observation-category",
                "code": "laboratory"
              }
            ]
          }
        ],
        "code": {
          "coding": [
            {
              "code": "2339-0",
              "system": "http://loinc.org",
              "display": "Glucose [Mass/volume] in Blood"
            }
          ],
          "text": "Glucose [Mass/volume] in Blood"
        },
        "valueQuantity": {
          "system": "http://unitsofmeasure.org",
          "value": 86.1,
          "unit": "mg/dL",
          "code": "mg/dL"
        },
        "referenceRange": [
          {
            "low": {
              "value": 70,
              "code": "mg/dL",
              "system": "http://unitsofmeasure.org"
            }
          },
          {
            "high": {
              "value": 140,
              "code": "mg/dL",
              "system": "http://unitsofmeasure.org"
            }
          }
        ],
        "text": {
          "status": "generated",
          "div": "<div xmlns=\"http://www.w3.org/1999/xhtml\"><table class=\"hl7__eu__lab__report\"><tr><th>Test</th><th>28-Apr-2024</th><th>Reference&#xA0;Range</th><th>Unit</th></tr><tr><td>Glucose [Mass/volume] in Blood</td><td>86.1</td><td>70 - 140</td><td></td><td>mg/dL</td></tr></table></div>"
        },
        "status": "final",
        "subject": {
          "reference": "urn:uuid:ad3a6219-3680-4688-ad4f-33469fbaedcb",
          "display": "Marlene Gerlach"
        },
        "effectiveDateTime": "2024-04-28T19:24:33Z",
        "specimen": {
          "reference": "urn:uuid:079ebc2c-0059-4add-b683-025e585979fe"
        }
      }
    },
    {
      "fullUrl": "urn:uuid:98d2cc25-58b9-4d1b-a18e-f43b10c70517",
      "resource": {
        "resourceType": "Observation",
        "id": "98d2cc25-58b9-4d1b-a18e-f43b10c70517",
        "meta": {
          "profile": [
            "http://hl7.eu/fhir/laboratory/StructureDefinition/Observation-resultslab-eu-lab"
          ]
        },
        "performer": [
          {
            "display": "The Central European Lab"
          }
        ],
        "category": [
          {
            "coding": [
              {
                "system": "http://terminology.hl7.org/CodeSystem/observation-category",
                "code": "laboratory"
              }
            ]
          }
        ],
        "code": {
          "coding": [
            {
              "code": "6299-2",
              "system": "http://loinc.org",
              "display": "Urea nitrogen [Mass/volume] in Blood"
            }
          ],
          "text": "Urea nitrogen [Mass/volume] in Blood"
        },
        "valueQuantity": {
          "system": "http://unitsofmeasure.org",
          "value": 14.8,
          "unit": "mg/dL",
          "code": "mg/dL"
        },
        "referenceRange": [
          {
            "low": {
              "value": 7,
              "code": "mg/dL",
              "system": "http://unitsofmeasure.org"
            }
          },
          {
            "high": {
              "value": 20,
              "code": "mg/dL",
              "system": "http://unitsofmeasure.org"
            }
          }
        ],
        "text": {
          "status": "generated",
          "div": "<div xmlns=\"http://www.w3.org/1999/xhtml\"><table class=\"hl7__eu__lab__report\"><tr><th>Test</th><th>28-Apr-2024</th><th>Reference&#xA0;Range</th><th>Unit</th></tr><tr><td>Urea nitrogen [Mass/volume] in Blood</td><td>14.8</td><td>7 - 20</td><td></td><td>mg/dL</td></tr></table></div>"
        },
        "status": "final",
        "subject": {
          "reference": "urn:uuid:ad3a6219-3680-4688-ad4f-33469fbaedcb",
          "display": "Marlene Gerlach"
        },
        "effectiveDateTime": "2024-04-28T19:24:33Z",
        "specimen": {
          "reference": "urn:uuid:079ebc2c-0059-4add-b683-025e585979fe"
        }
      }
    },
    {
      "fullUrl": "urn:uuid:3f428f20-b52f-488d-a1d0-bce4abbfdba4",
      "resource": {
        "resourceType": "Observation",
        "id": "3f428f20-b52f-488d-a1d0-bce4abbfdba4",
        "meta": {
          "profile": [
            "http://hl7.eu/fhir/laboratory/StructureDefinition/Observation-resultslab-eu-lab"
          ]
        },
        "performer": [
          {
            "display": "The Central European Lab"
          }
        ],
        "category": [
          {
            "coding": [
              {
                "system": "http://terminology.hl7.org/CodeSystem/observation-category",
                "code": "laboratory"
              }
            ]
          }
        ],
        "code": {
          "coding": [
            {
              "code": "38483-4",
              "system": "http://loinc.org",
              "display": "Creatinine [Mass/volume] in Blood"
            }
          ],
          "text": "Creatinine [Mass/volume] in Blood"
        },
        "valueQuantity": {
          "system": "http://unitsofmeasure.org",
          "value": 0.4,
          "unit": "mg/dL",
          "code": "mg/dL"
        },
        "referenceRange": [
          {
            "low": {
              "value": 0.5,
              "code": "mg/dL",
              "system": "http://unitsofmeasure.org"
            }
          },
          {
            "high": {
              "value": 1.3,
              "code": "mg/dL",
              "system": "http://unitsofmeasure.org"
            }
          }
        ],
        "interpretation": [
          {
            "coding": [
              {
                "code": "L",
                "system": "http://terminology.hl7.org/CodeSystem/v3-ObservationInterpretation",
                "display": "Low"
              }
            ]
          }
        ],
        "text": {
          "status": "generated",
          "div": "<div xmlns=\"http://www.w3.org/1999/xhtml\"><table class=\"hl7__eu__lab__report\"><tr><th>Test</th><th>28-Apr-2024</th><th>Reference&#xA0;Range</th><th>Unit</th></tr><tr><td>Creatinine [Mass/volume] in Blood</td><td>0.4</td><td>0.5 - 1.3</td><td>L</td><td>mg/dL</td></tr></table></div>"
        },
        "status": "final",
        "subject": {
          "reference": "urn:uuid:ad3a6219-3680-4688-ad4f-33469fbaedcb",
          "display": "Marlene Gerlach"
        },
        "effectiveDateTime": "2024-04-28T19:24:33Z",
        "specimen": {
          "reference": "urn:uuid:079ebc2c-0059-4add-b683-025e585979fe"
        }
      }
    },
    {
      "fullUrl": "urn:uuid:5b53b137-a82e-411d-8119-77e3291695b4",
      "resource": {
        "resourceType": "Observation",
        "id": "5b53b137-a82e-411d-8119-77e3291695b4",
        "meta": {
          "profile": [
            "http://hl7.eu/fhir/laboratory/StructureDefinition/Observation-resultslab-eu-lab"
          ]
        },
        "performer": [
          {
            "display": "The Central European Lab"
          }
        ],
        "category": [
          {
            "coding": [
              {
                "system": "http://terminology.hl7.org/CodeSystem/observation-category",
                "code": "laboratory"
              }
            ]
          }
        ],
        "code": {
          "coding": [
            {
              "code": "49765-1",
              "system": "http://loinc.org",
              "display": "Calcium [Mass/volume] in Blood"
            }
          ],
          "text": "Calcium [Mass/volume] in Blood"
        },
        "valueQuantity": {
          "system": "http://unitsofmeasure.org",
          "value": 10,
          "unit": "mg/dL",
          "code": "mg/dL"
        },
        "referenceRange": [
          {
            "low": {
              "value": 8.5,
              "code": "mg/dL",
              "system": "http://unitsofmeasure.org"
            }
          },
          {
            "high": {
              "value": 10.5,
              "code": "mg/dL",
              "system": "http://unitsofmeasure.org"
            }
          }
        ],
        "text": {
          "status": "generated",
          "div": "<div xmlns=\"http://www.w3.org/1999/xhtml\"><table class=\"hl7__eu__lab__report\"><tr><th>Test</th><th>28-Apr-2024</th><th>Reference&#xA0;Range</th><th>Unit</th></tr><tr><td>Calcium [Mass/volume] in Blood</td><td>10.0</td><td>8.5 - 10.5</td><td></td><td>mg/dL</td></tr></table></div>"
        },
        "status": "final",
        "subject": {
          "reference": "urn:uuid:ad3a6219-3680-4688-ad4f-33469fbaedcb",
          "display": "Marlene Gerlach"
        },
        "effectiveDateTime": "2024-04-28T19:24:33Z",
        "specimen": {
          "reference": "urn:uuid:079ebc2c-0059-4add-b683-025e585979fe"
        }
      }
    },
    {
      "fullUrl": "urn:uuid:81791636-a664-42f3-949b-c3cc0013736f",
      "resource": {
        "resourceType": "Observation",
        "id": "81791636-a664-42f3-949b-c3cc0013736f",
        "meta": {
          "profile": [
            "http://hl7.eu/fhir/laboratory/StructureDefinition/Observation-resultslab-eu-lab"
          ]
        },
        "performer": [
          {
            "display": "The Central European Lab"
          }
        ],
        "category": [
          {
            "coding": [
              {
                "system": "http://terminology.hl7.org/CodeSystem/observation-category",
                "code": "laboratory"
              }
            ]
          }
        ],
        "code": {
          "coding": [
            {
              "code": "2947-0",
              "system": "http://loinc.org",
              "display": "Sodium [Moles/volume] in Blood"
            }
          ],
          "text": "Sodium [Moles/volume] in Blood"
        },
        "valueQuantity": {
          "system": "http://unitsofmeasure.org",
          "value": 140.9,
          "unit": "mmol/L",
          "code": "mmol/L"
        },
        "referenceRange": [
          {
            "low": {
              "value": 135,
              "code": "mmol/L",
              "system": "http://unitsofmeasure.org"
            }
          },
          {
            "high": {
              "value": 145,
              "code": "mmol/L",
              "system": "http://unitsofmeasure.org"
            }
          }
        ],
        "text": {
          "status": "generated",
          "div": "<div xmlns=\"http://www.w3.org/1999/xhtml\"><table class=\"hl7__eu__lab__report\"><tr><th>Test</th><th>28-Apr-2024</th><th>Reference&#xA0;Range</th><th>Unit</th></tr><tr><td>Sodium [Moles/volume] in Blood</td><td>140.9</td><td>135 - 145</td><td></td><td>mmol/L</td></tr></table></div>"
        },
        "status": "final",
        "subject": {
          "reference": "urn:uuid:ad3a6219-3680-4688-ad4f-33469fbaedcb",
          "display": "Marlene Gerlach"
        },
        "effectiveDateTime": "2024-04-28T19:24:33Z",
        "specimen": {
          "reference": "urn:uuid:079ebc2c-0059-4add-b683-025e585979fe"
        }
      }
    },
    {
      "fullUrl": "urn:uuid:4704e9d5-e95e-46db-a720-47b5ac29ae94",
      "resource": {
        "resourceType": "Observation",
        "id": "4704e9d5-e95e-46db-a720-47b5ac29ae94",
        "meta": {
          "profile": [
            "http://hl7.eu/fhir/laboratory/StructureDefinition/Observation-resultslab-eu-lab"
          ]
        },
        "performer": [
          {
            "display": "The Central European Lab"
          }
        ],
        "category": [
          {
            "coding": [
              {
                "system": "http://terminology.hl7.org/CodeSystem/observation-category",
                "code": "laboratory"
              }
            ]
          }
        ],
        "code": {
          "coding": [
            {
              "code": "6298-4",
              "system": "http://loinc.org",
              "display": "Potassium [Moles/volume] in Blood"
            }
          ],
          "text": "Potassium [Moles/volume] in Blood"
        },
        "valueQuantity": {
          "system": "http://unitsofmeasure.org",
          "value": 4.5,
          "unit": "mmol/L",
          "code": "mmol/L"
        },
        "referenceRange": [
          {
            "low": {
              "value": 3.5,
              "code": "mmol/L",
              "system": "http://unitsofmeasure.org"
            }
          },
          {
            "high": {
              "value": 5.1,
              "code": "mmol/L",
              "system": "http://unitsofmeasure.org"
            }
          }
        ],
        "text": {
          "status": "generated",
          "div": "<div xmlns=\"http://www.w3.org/1999/xhtml\"><table class=\"hl7__eu__lab__report\"><tr><th>Test</th><th>28-Apr-2024</th><th>Reference&#xA0;Range</th><th>Unit</th></tr><tr><td>Potassium [Moles/volume] in Blood</td><td>4.5</td><td>3.5 - 5.1</td><td></td><td>mmol/L</td></tr></table></div>"
        },
        "status": "final",
        "subject": {
          "reference": "urn:uuid:ad3a6219-3680-4688-ad4f-33469fbaedcb",
          "display": "Marlene Gerlach"
        },
        "effectiveDateTime": "2024-04-28T19:24:33Z",
        "specimen": {
          "reference": "urn:uuid:079ebc2c-0059-4add-b683-025e585979fe"
        }
      }
    },
    {
      "fullUrl": "urn:uuid:41b785db-c25c-446d-b203-7c5bb14d2dc7",
      "resource": {
        "resourceType": "Observation",
        "id": "41b785db-c25c-446d-b203-7c5bb14d2dc7",
        "meta": {
          "profile": [
            "http://hl7.eu/fhir/laboratory/StructureDefinition/Observation-resultslab-eu-lab"
          ]
        },
        "performer": [
          {
            "display": "The Central European Lab"
          }
        ],
        "category": [
          {
            "coding": [
              {
                "system": "http://terminology.hl7.org/CodeSystem/observation-category",
                "code": "laboratory"
              }
            ]
          }
        ],
        "code": {
          "coding": [
            {
              "code": "2069-3",
              "system": "http://loinc.org",
              "display": "Chloride [Moles/volume] in Blood"
            }
          ],
          "text": "Chloride [Moles/volume] in Blood"
        },
        "valueQuantity": {
          "system": "http://unitsofmeasure.org",
          "value": 105,
          "unit": "mmol/L",
          "code": "mmol/L"
        },
        "referenceRange": [
          {
            "low": {
              "value": 98,
              "code": "mmol/L",
              "system": "http://unitsofmeasure.org"
            }
          },
          {
            "high": {
              "value": 108,
              "code": "mmol/L",
              "system": "http://unitsofmeasure.org"
            }
          }
        ],
        "text": {
          "status": "generated",
          "div": "<div xmlns=\"http://www.w3.org/1999/xhtml\"><table class=\"hl7__eu__lab__report\"><tr><th>Test</th><th>28-Apr-2024</th><th>Reference&#xA0;Range</th><th>Unit</th></tr><tr><td>Chloride [Moles/volume] in Blood</td><td>105.0</td><td>98 - 108</td><td></td><td>mmol/L</td></tr></table></div>"
        },
        "status": "final",
        "subject": {
          "reference": "urn:uuid:ad3a6219-3680-4688-ad4f-33469fbaedcb",
          "display": "Marlene Gerlach"
        },
        "effectiveDateTime": "2024-04-28T19:24:33Z",
        "specimen": {
          "reference": "urn:uuid:079ebc2c-0059-4add-b683-025e585979fe"
        }
      }
    },
    {
      "fullUrl": "urn:uuid:2747fcd1-2664-4c6a-b0e4-de9dd92815b6",
      "resource": {
        "resourceType": "Observation",
        "id": "2747fcd1-2664-4c6a-b0e4-de9dd92815b6",
        "meta": {
          "profile": [
            "http://hl7.eu/fhir/laboratory/StructureDefinition/Observation-resultslab-eu-lab"
          ]
        },
        "performer": [
          {
            "display": "The Central European Lab"
          }
        ],
        "category": [
          {
            "coding": [
              {
                "system": "http://terminology.hl7.org/CodeSystem/observation-category",
                "code": "laboratory"
              }
            ]
          }
        ],
        "code": {
          "coding": [
            {
              "code": "20565-8",
              "system": "http://loinc.org",
              "display": "Carbon dioxide, total [Moles/volume] in Blood"
            }
          ],
          "text": "Carbon dioxide, total [Moles/volume] in Blood"
        },
        "valueQuantity": {
          "system": "http://unitsofmeasure.org",
          "value": 26.5,
          "unit": "mmol/L",
          "code": "mmol/L"
        },
        "referenceRange": [
          {
            "low": {
              "value": 22,
              "code": "mmol/L",
              "system": "http://unitsofmeasure.org"
            }
          },
          {
            "high": {
              "value": 29,
              "code": "mmol/L",
              "system": "http://unitsofmeasure.org"
            }
          }
        ],
        "text": {
          "status": "generated",
          "div": "<div xmlns=\"http://www.w3.org/1999/xhtml\"><table class=\"hl7__eu__lab__report\"><tr><th>Test</th><th>28-Apr-2024</th><th>Reference&#xA0;Range</th><th>Unit</th></tr><tr><td>Carbon dioxide, total [Moles/volume] in Blood</td><td>26.5</td><td>22 - 29</td><td></td><td>mmol/L</td></tr></table></div>"
        },
        "status": "final",
        "subject": {
          "reference": "urn:uuid:ad3a6219-3680-4688-ad4f-33469fbaedcb",
          "display": "Marlene Gerlach"
        },
        "effectiveDateTime": "2024-04-28T19:24:33Z",
        "specimen": {
          "reference": "urn:uuid:079ebc2c-0059-4add-b683-025e585979fe"
        }
      }
    },
    {
      "fullUrl": "urn:uuid:44b48bd7-7a6a-4d34-9eb1-2aadbb800b5e",
      "resource": {
        "resourceType": "Observation",
        "id": "44b48bd7-7a6a-4d34-9eb1-2aadbb800b5e",
        "meta": {
          "profile": [
            "http://hl7.eu/fhir/laboratory/StructureDefinition/Observation-resultslab-eu-lab"
          ]
        },
        "performer": [
          {
            "display": "The Central European Lab"
          }
        ],
        "category": [
          {
            "coding": [
              {
                "system": "http://terminology.hl7.org/CodeSystem/observation-category",
                "code": "laboratory"
              }
            ]
          }
        ],
        "code": {
          "coding": [
            {
              "code": "2093-3",
              "system": "http://loinc.org",
              "display": "Cholesterol [Mass/volume] in Serum or Plasma"
            }
          ],
          "text": "Cholesterol [Mass/volume] in Serum or Plasma"
        },
        "valueQuantity": {
          "system": "http://unitsofmeasure.org",
          "value": 197.9,
          "unit": "mg/dL",
          "code": "mg/dL"
        },
        "referenceRange": [
          {
            "low": {
              "value": 0,
              "code": "mg/dL",
              "system": "http://unitsofmeasure.org"
            }
          },
          {
            "high": {
              "value": 200,
              "code": "mg/dL",
              "system": "http://unitsofmeasure.org"
            }
          }
        ],
        "text": {
          "status": "generated",
          "div": "<div xmlns=\"http://www.w3.org/1999/xhtml\"><table class=\"hl7__eu__lab__report\"><tr><th>Test</th><th>28-Apr-2024</th><th>Reference&#xA0;Range</th><th>Unit</th></tr><tr><td>Cholesterol [Mass/volume] in Serum or Plasma</td><td>197.9</td><td>0 - 200</td><td></td><td>mg/dL</td></tr></table></div>"
        },
        "status": "final",
        "subject": {
          "reference": "urn:uuid:ad3a6219-3680-4688-ad4f-33469fbaedcb",
          "display": "Marlene Gerlach"
        },
        "effectiveDateTime": "2024-04-28T19:24:33Z",
        "specimen": {
          "reference": "urn:uuid:8a791319-a653-4fe4-8b20-069abd3cc1b9"
        }
      }
    },
    {
      "fullUrl": "urn:uuid:561d602c-b50f-4cdb-a4c1-cc84882282a4",
      "resource": {
        "resourceType": "Observation",
        "id": "561d602c-b50f-4cdb-a4c1-cc84882282a4",
        "meta": {
          "profile": [
            "http://hl7.eu/fhir/laboratory/StructureDefinition/Observation-resultslab-eu-lab"
          ]
        },
        "performer": [
          {
            "display": "The Central European Lab"
          }
        ],
        "category": [
          {
            "coding": [
              {
                "system": "http://terminology.hl7.org/CodeSystem/observation-category",
                "code": "laboratory"
              }
            ]
          }
        ],
        "code": {
          "coding": [
            {
              "code": "2571-8",
              "system": "http://loinc.org",
              "display": "Triglyceride [Mass/volume] in Serum or Plasma"
            }
          ],
          "text": "Triglyceride [Mass/volume] in Serum or Plasma"
        },
        "valueQuantity": {
          "system": "http://unitsofmeasure.org",
          "value": 137.3,
          "unit": "mg/dL",
          "code": "mg/dL"
        },
        "referenceRange": [
          {
            "low": {
              "value": 0,
              "code": "mg/dL",
              "system": "http://unitsofmeasure.org"
            }
          },
          {
            "high": {
              "value": 199,
              "code": "mg/dL",
              "system": "http://unitsofmeasure.org"
            }
          }
        ],
        "text": {
          "status": "generated",
          "div": "<div xmlns=\"http://www.w3.org/1999/xhtml\"><table class=\"hl7__eu__lab__report\"><tr><th>Test</th><th>28-Apr-2024</th><th>Reference&#xA0;Range</th><th>Unit</th></tr><tr><td>Triglyceride [Mass/volume] in Serum or Plasma</td><td>137.3</td><td>0 - 199</td><td></td><td>mg/dL</td></tr></table></div>"
        },
        "status": "final",
        "subject": {
          "reference": "urn:uuid:ad3a6219-3680-4688-ad4f-33469fbaedcb",
          "display": "Marlene Gerlach"
        },
        "effectiveDateTime": "2024-04-28T19:24:33Z",
        "specimen": {
          "reference": "urn:uuid:8a791319-a653-4fe4-8b20-069abd3cc1b9"
        }
      }
    },
    {
      "fullUrl": "urn:uuid:ae9e10ea-2717-4fb5-b7d0-565f371872d1",
      "resource": {
        "resourceType": "Observation",
        "id": "ae9e10ea-2717-4fb5-b7d0-565f371872d1",
        "meta": {
          "profile": [
            "http://hl7.eu/fhir/laboratory/StructureDefinition/Observation-resultslab-eu-lab"
          ]
        },
        "performer": [
          {
            "display": "The Central European Lab"
          }
        ],
        "category": [
          {
            "coding": [
              {
                "system": "http://terminology.hl7.org/CodeSystem/observation-category",
                "code": "laboratory"
              }
            ]
          }
        ],
        "code": {
          "coding": [
            {
              "code": "18262-6",
              "system": "http://loinc.org",
              "display": "Cholesterol in LDL [Mass/volume] in Serum or Plasma by Direct assay"
            }
          ],
          "text": "Cholesterol in LDL [Mass/volume] in Serum or Plasma by Direct assay"
        },
        "valueQuantity": {
          "system": "http://unitsofmeasure.org",
          "value": 113.6,
          "unit": "mg/dL",
          "code": "mg/dL"
        },
        "referenceRange": [
          {
            "low": {
              "value": 0,
              "code": "mg/dL",
              "system": "http://unitsofmeasure.org"
            }
          },
          {
            "high": {
              "value": 130,
              "code": "mg/dL",
              "system": "http://unitsofmeasure.org"
            }
          }
        ],
        "text": {
          "status": "generated",
          "div": "<div xmlns=\"http://www.w3.org/1999/xhtml\"><table class=\"hl7__eu__lab__report\"><tr><th>Test</th><th>28-Apr-2024</th><th>Reference&#xA0;Range</th><th>Unit</th></tr><tr><td>Cholesterol in LDL [Mass/volume] in Serum or Plasma by Direct assay</td><td>113.6</td><td>0 - 130</td><td></td><td>mg/dL</td></tr></table></div>"
        },
        "status": "final",
        "subject": {
          "reference": "urn:uuid:ad3a6219-3680-4688-ad4f-33469fbaedcb",
          "display": "Marlene Gerlach"
        },
        "effectiveDateTime": "2024-04-28T19:24:33Z",
        "specimen": {
          "reference": "urn:uuid:8a791319-a653-4fe4-8b20-069abd3cc1b9"
        }
      }
    },
    {
      "fullUrl": "urn:uuid:188f3770-e7c0-44fa-a872-b31cf15c7d83",
      "resource": {
        "resourceType": "Observation",
        "id": "188f3770-e7c0-44fa-a872-b31cf15c7d83",
        "meta": {
          "profile": [
            "http://hl7.eu/fhir/laboratory/StructureDefinition/Observation-resultslab-eu-lab"
          ]
        },
        "performer": [
          {
            "display": "The Central European Lab"
          }
        ],
        "category": [
          {
            "coding": [
              {
                "system": "http://terminology.hl7.org/CodeSystem/observation-category",
                "code": "laboratory"
              }
            ]
          }
        ],
        "code": {
          "coding": [
            {
              "code": "2085-9",
              "system": "http://loinc.org",
              "display": "Cholesterol in HDL [Mass/volume] in Serum or Plasma"
            }
          ],
          "text": "Cholesterol in HDL [Mass/volume] in Serum or Plasma"
        },
        "valueQuantity": {
          "system": "http://unitsofmeasure.org",
          "value": 56.9,
          "unit": "mg/dL",
          "code": "mg/dL"
        },
        "referenceRange": [
          {
            "low": {
              "value": 46,
              "code": "mg/dL",
              "system": "http://unitsofmeasure.org"
            }
          },
          {
            "high": {
              "value": 77,
              "code": "mg/dL",
              "system": "http://unitsofmeasure.org"
            }
          }
        ],
        "text": {
          "status": "generated",
          "div": "<div xmlns=\"http://www.w3.org/1999/xhtml\"><table class=\"hl7__eu__lab__report\"><tr><th>Test</th><th>28-Apr-2024</th><th>Reference&#xA0;Range</th><th>Unit</th></tr><tr><td>Cholesterol in HDL [Mass/volume] in Serum or Plasma</td><td>56.9</td><td>46 - 77</td><td></td><td>mg/dL</td></tr></table></div>"
        },
        "status": "final",
        "subject": {
          "reference": "urn:uuid:ad3a6219-3680-4688-ad4f-33469fbaedcb",
          "display": "Marlene Gerlach"
        },
        "effectiveDateTime": "2024-04-28T19:24:33Z",
        "specimen": {
          "reference": "urn:uuid:8a791319-a653-4fe4-8b20-069abd3cc1b9"
        }
      }
    },
    {
      "fullUrl": "urn:uuid:230c9456-d5bb-4978-a43e-addfb1808667",
      "resource": {
        "resourceType": "Observation",
        "id": "230c9456-d5bb-4978-a43e-addfb1808667",
        "meta": {
          "profile": [
            "http://hl7.eu/fhir/laboratory/StructureDefinition/Observation-resultslab-eu-lab"
          ]
        },
        "performer": [
          {
            "display": "The Central European Lab"
          }
        ],
        "category": [
          {
            "coding": [
              {
                "system": "http://terminology.hl7.org/CodeSystem/observation-category",
                "code": "laboratory"
              }
            ]
          }
        ],
        "code": {
          "coding": [
            {
              "code": "6690-2",
              "system": "http://loinc.org",
              "display": "Leukocytes [#/volume] in Blood by Automated count"
            }
          ],
          "text": "Leukocytes [#/volume] in Blood by Automated count"
        },
        "valueQuantity": {
          "system": "http://unitsofmeasure.org",
          "value": 5.2,
          "unit": "10*3/uL",
          "code": "10*3/uL"
        },
        "referenceRange": [
          {
            "low": {
              "value": 4,
              "code": "10*3/uL",
              "system": "http://unitsofmeasure.org"
            }
          },
          {
            "high": {
              "value": 11,
              "code": "10*3/uL",
              "system": "http://unitsofmeasure.org"
            }
          }
        ],
        "text": {
          "status": "generated",
          "div": "<div xmlns=\"http://www.w3.org/1999/xhtml\"><table class=\"hl7__eu__lab__report\"><tr><th>Test</th><th>28-Apr-2024</th><th>Reference&#xA0;Range</th><th>Unit</th></tr><tr><td>Leukocytes [#/volume] in Blood by Automated count</td><td>5.2</td><td>4 - 11</td><td></td><td>10*3/uL</td></tr></table></div>"
        },
        "status": "final",
        "subject": {
          "reference": "urn:uuid:ad3a6219-3680-4688-ad4f-33469fbaedcb",
          "display": "Marlene Gerlach"
        },
        "effectiveDateTime": "2024-04-28T19:24:33Z",
        "specimen": {
          "reference": "urn:uuid:079ebc2c-0059-4add-b683-025e585979fe"
        }
      }
    },
    {
      "fullUrl": "urn:uuid:3bcf8b9c-e2e6-4dcd-a91c-54ccb033f8d6",
      "resource": {
        "resourceType": "Observation",
        "id": "3bcf8b9c-e2e6-4dcd-a91c-54ccb033f8d6",
        "meta": {
          "profile": [
            "http://hl7.eu/fhir/laboratory/StructureDefinition/Observation-resultslab-eu-lab"
          ]
        },
        "performer": [
          {
            "display": "The Central European Lab"
          }
        ],
        "category": [
          {
            "coding": [
              {
                "system": "http://terminology.hl7.org/CodeSystem/observation-category",
                "code": "laboratory"
              }
            ]
          }
        ],
        "code": {
          "coding": [
            {
              "code": "789-8",
              "system": "http://loinc.org",
              "display": "Erythrocytes [#/volume] in Blood by Automated count"
            }
          ],
          "text": "Erythrocytes [#/volume] in Blood by Automated count"
        },
        "valueQuantity": {
          "system": "http://unitsofmeasure.org",
          "value": 4.3,
          "unit": "10*6/uL",
          "code": "10*6/uL"
        },
        "referenceRange": [
          {
            "low": {
              "value": 3.8,
              "code": "10*6/uL",
              "system": "http://unitsofmeasure.org"
            }
          },
          {
            "high": {
              "value": 5.7,
              "code": "10*6/uL",
              "system": "http://unitsofmeasure.org"
            }
          }
        ],
        "text": {
          "status": "generated",
          "div": "<div xmlns=\"http://www.w3.org/1999/xhtml\"><table class=\"hl7__eu__lab__report\"><tr><th>Test</th><th>28-Apr-2024</th><th>Reference&#xA0;Range</th><th>Unit</th></tr><tr><td>Erythrocytes [#/volume] in Blood by Automated count</td><td>4.3</td><td>3.8 - 5.7</td><td></td><td>10*6/uL</td></tr></table></div>"
        },
        "status": "final",
        "subject": {
          "reference": "urn:uuid:ad3a6219-3680-4688-ad4f-33469fbaedcb",
          "display": "Marlene Gerlach"
        },
        "effectiveDateTime": "2024-04-28T19:24:33Z",
        "specimen": {
          "reference": "urn:uuid:079ebc2c-0059-4add-b683-025e585979fe"
        }
      }
    },
    {
      "fullUrl": "urn:uuid:3c2b3c40-a690-43b1-9daf-064b4e1759fa",
      "resource": {
        "resourceType": "Observation",
        "id": "3c2b3c40-a690-43b1-9daf-064b4e1759fa",
        "meta": {
          "profile": [
            "http://hl7.eu/fhir/laboratory/StructureDefinition/Observation-resultslab-eu-lab"
          ]
        },
        "performer": [
          {
            "display": "The Central European Lab"
          }
        ],
        "category": [
          {
            "coding": [
              {
                "system": "http://terminology.hl7.org/CodeSystem/observation-category",
                "code": "laboratory"
              }
            ]
          }
        ],
        "code": {
          "coding": [
            {
              "code": "718-7",
              "system": "http://loinc.org",
              "display": "Hemoglobin [Mass/volume] in Blood"
            }
          ],
          "text": "Hemoglobin [Mass/volume] in Blood"
        },
        "valueQuantity": {
          "system": "http://unitsofmeasure.org",
          "value": 13.1,
          "unit": "g/dL",
          "code": "g/dL"
        },
        "referenceRange": [
          {
            "low": {
              "value": 12,
              "code": "g/dL",
              "system": "http://unitsofmeasure.org"
            }
          },
          {
            "high": {
              "value": 16,
              "code": "g/dL",
              "system": "http://unitsofmeasure.org"
            }
          }
        ],
        "text": {
          "status": "generated",
          "div": "<div xmlns=\"http://www.w3.org/1999/xhtml\"><table class=\"hl7__eu__lab__report\"><tr><th>Test</th><th>28-Apr-2024</th><th>Reference&#xA0;Range</th><th>Unit</th></tr><tr><td>Hemoglobin [Mass/volume] in Blood</td><td>13.1</td><td>12 - 16</td><td></td><td>g/dL</td></tr></table></div>"
        },
        "status": "final",
        "subject": {
          "reference": "urn:uuid:ad3a6219-3680-4688-ad4f-33469fbaedcb",
          "display": "Marlene Gerlach"
        },
        "effectiveDateTime": "2024-04-28T19:24:33Z",
        "specimen": {
          "reference": "urn:uuid:079ebc2c-0059-4add-b683-025e585979fe"
        }
      }
    },
    {
      "fullUrl": "urn:uuid:d4d84da8-0afb-462e-afb8-e15d4a110b7b",
      "resource": {
        "resourceType": "Observation",
        "id": "d4d84da8-0afb-462e-afb8-e15d4a110b7b",
        "meta": {
          "profile": [
            "http://hl7.eu/fhir/laboratory/StructureDefinition/Observation-resultslab-eu-lab"
          ]
        },
        "performer": [
          {
            "display": "The Central European Lab"
          }
        ],
        "category": [
          {
            "coding": [
              {
                "system": "http://terminology.hl7.org/CodeSystem/observation-category",
                "code": "laboratory"
              }
            ]
          }
        ],
        "code": {
          "coding": [
            {
              "code": "4544-3",
              "system": "http://loinc.org",
              "display": "Hematocrit [Volume Fraction] of Blood by Automated count"
            }
          ],
          "text": "Hematocrit [Volume Fraction] of Blood by Automated count"
        },
        "valueQuantity": {
          "system": "http://unitsofmeasure.org",
          "value": 40.7,
          "unit": "%",
          "code": "%"
        },
        "referenceRange": [
          {
            "low": {
              "value": 38,
              "code": "%",
              "system": "http://unitsofmeasure.org"
            }
          },
          {
            "high": {
              "value": 56,
              "code": "%",
              "system": "http://unitsofmeasure.org"
            }
          }
        ],
        "text": {
          "status": "generated",
          "div": "<div xmlns=\"http://www.w3.org/1999/xhtml\"><table class=\"hl7__eu__lab__report\"><tr><th>Test</th><th>28-Apr-2024</th><th>Reference&#xA0;Range</th><th>Unit</th></tr><tr><td>Hematocrit [Volume Fraction] of Blood by Automated count</td><td>40.7</td><td>38 - 56</td><td></td><td>%</td></tr></table></div>"
        },
        "status": "final",
        "subject": {
          "reference": "urn:uuid:ad3a6219-3680-4688-ad4f-33469fbaedcb",
          "display": "Marlene Gerlach"
        },
        "effectiveDateTime": "2024-04-28T19:24:33Z",
        "specimen": {
          "reference": "urn:uuid:079ebc2c-0059-4add-b683-025e585979fe"
        }
      }
    },
    {
      "fullUrl": "urn:uuid:92f67f09-b806-479c-b4f9-e18405ff3346",
      "resource": {
        "resourceType": "Observation",
        "id": "92f67f09-b806-479c-b4f9-e18405ff3346",
        "meta": {
          "profile": [
            "http://hl7.eu/fhir/laboratory/StructureDefinition/Observation-resultslab-eu-lab"
          ]
        },
        "performer": [
          {
            "display": "The Central European Lab"
          }
        ],
        "category": [
          {
            "coding": [
              {
                "system": "http://terminology.hl7.org/CodeSystem/observation-category",
                "code": "laboratory"
              }
            ]
          }
        ],
        "code": {
          "coding": [
            {
              "code": "787-2",
              "system": "http://loinc.org",
              "display": "MCV [Entitic volume] by Automated count"
            }
          ],
          "text": "MCV [Entitic volume] by Automated count"
        },
        "valueQuantity": {
          "system": "http://unitsofmeasure.org",
          "value": 80.4,
          "unit": "fL",
          "code": "fL"
        },
        "referenceRange": [
          {
            "low": {
              "value": 78,
              "code": "fL",
              "system": "http://unitsofmeasure.org"
            }
          },
          {
            "high": {
              "value": 98,
              "code": "fL",
              "system": "http://unitsofmeasure.org"
            }
          }
        ],
        "text": {
          "status": "generated",
          "div": "<div xmlns=\"http://www.w3.org/1999/xhtml\"><table class=\"hl7__eu__lab__report\"><tr><th>Test</th><th>28-Apr-2024</th><th>Reference&#xA0;Range</th><th>Unit</th></tr><tr><td>MCV [Entitic volume] by Automated count</td><td>80.4</td><td>78 - 98</td><td></td><td>fL</td></tr></table></div>"
        },
        "status": "final",
        "subject": {
          "reference": "urn:uuid:ad3a6219-3680-4688-ad4f-33469fbaedcb",
          "display": "Marlene Gerlach"
        },
        "effectiveDateTime": "2024-04-28T19:24:33Z",
        "specimen": {
          "reference": "urn:uuid:079ebc2c-0059-4add-b683-025e585979fe"
        }
      }
    },
    {
      "fullUrl": "urn:uuid:b07e93e7-acad-4779-98ac-29b3080a7d7e",
      "resource": {
        "resourceType": "Observation",
        "id": "b07e93e7-acad-4779-98ac-29b3080a7d7e",
        "meta": {
          "profile": [
            "http://hl7.eu/fhir/laboratory/StructureDefinition/Observation-resultslab-eu-lab"
          ]
        },
        "performer": [
          {
            "display": "The Central European Lab"
          }
        ],
        "category": [
          {
            "coding": [
              {
                "system": "http://terminology.hl7.org/CodeSystem/observation-category",
                "code": "laboratory"
              }
            ]
          }
        ],
        "code": {
          "coding": [
            {
              "code": "785-6",
              "system": "http://loinc.org",
              "display": "MCH [Entitic mass] by Automated count"
            }
          ],
          "text": "MCH [Entitic mass] by Automated count"
        },
        "valueQuantity": {
          "system": "http://unitsofmeasure.org",
          "value": 32.8,
          "unit": "pg",
          "code": "pg"
        },
        "referenceRange": [
          {
            "low": {
              "value": 27.5,
              "code": "pg",
              "system": "http://unitsofmeasure.org"
            }
          },
          {
            "high": {
              "value": 34.5,
              "code": "pg",
              "system": "http://unitsofmeasure.org"
            }
          }
        ],
        "text": {
          "status": "generated",
          "div": "<div xmlns=\"http://www.w3.org/1999/xhtml\"><table class=\"hl7__eu__lab__report\"><tr><th>Test</th><th>28-Apr-2024</th><th>Reference&#xA0;Range</th><th>Unit</th></tr><tr><td>MCH [Entitic mass] by Automated count</td><td>32.8</td><td>27.5 - 34.5</td><td></td><td>pg</td></tr></table></div>"
        },
        "status": "final",
        "subject": {
          "reference": "urn:uuid:ad3a6219-3680-4688-ad4f-33469fbaedcb",
          "display": "Marlene Gerlach"
        },
        "effectiveDateTime": "2024-04-28T19:24:33Z",
        "specimen": {
          "reference": "urn:uuid:079ebc2c-0059-4add-b683-025e585979fe"
        }
      }
    },
    {
      "fullUrl": "urn:uuid:40114ab1-6c5f-4230-93c3-d734b9843743",
      "resource": {
        "resourceType": "Observation",
        "id": "40114ab1-6c5f-4230-93c3-d734b9843743",
        "meta": {
          "profile": [
            "http://hl7.eu/fhir/laboratory/StructureDefinition/Observation-resultslab-eu-lab"
          ]
        },
        "performer": [
          {
            "display": "The Central European Lab"
          }
        ],
        "category": [
          {
            "coding": [
              {
                "system": "http://terminology.hl7.org/CodeSystem/observation-category",
                "code": "laboratory"
              }
            ]
          }
        ],
        "code": {
          "coding": [
            {
              "code": "786-4",
              "system": "http://loinc.org",
              "display": "MCHC [Mass/volume] by Automated count"
            }
          ],
          "text": "MCHC [Mass/volume] by Automated count"
        },
        "valueQuantity": {
          "system": "http://unitsofmeasure.org",
          "value": 35.8,
          "unit": "g/dL",
          "code": "g/dL"
        },
        "referenceRange": [
          {
            "low": {
              "value": 31,
              "code": "g/dL",
              "system": "http://unitsofmeasure.org"
            }
          },
          {
            "high": {
              "value": 35,
              "code": "g/dL",
              "system": "http://unitsofmeasure.org"
            }
          }
        ],
        "interpretation": [
          {
            "coding": [
              {
                "code": "H",
                "system": "http://terminology.hl7.org/CodeSystem/v3-ObservationInterpretation",
                "display": "High"
              }
            ]
          }
        ],
        "text": {
          "status": "generated",
          "div": "<div xmlns=\"http://www.w3.org/1999/xhtml\"><table class=\"hl7__eu__lab__report\"><tr><th>Test</th><th>28-Apr-2024</th><th>Reference&#xA0;Range</th><th>Unit</th></tr><tr><td>MCHC [Mass/volume] by Automated count</td><td>35.8</td><td>31 - 35</td><td>H</td><td>g/dL</td></tr></table></div>"
        },
        "status": "final",
        "subject": {
          "reference": "urn:uuid:ad3a6219-3680-4688-ad4f-33469fbaedcb",
          "display": "Marlene Gerlach"
        },
        "effectiveDateTime": "2024-04-28T19:24:33Z",
        "specimen": {
          "reference": "urn:uuid:079ebc2c-0059-4add-b683-025e585979fe"
        }
      }
    },
    {
      "fullUrl": "urn:uuid:383bf76d-3c2a-4032-bf0f-33dbc80cb271",
      "resource": {
        "resourceType": "Observation",
        "id": "383bf76d-3c2a-4032-bf0f-33dbc80cb271",
        "meta": {
          "profile": [
            "http://hl7.eu/fhir/laboratory/StructureDefinition/Observation-resultslab-eu-lab"
          ]
        },
        "performer": [
          {
            "display": "The Central European Lab"
          }
        ],
        "category": [
          {
            "coding": [
              {
                "system": "http://terminology.hl7.org/CodeSystem/observation-category",
                "code": "laboratory"
              }
            ]
          }
        ],
        "code": {
          "coding": [
            {
              "code": "21000-5",
              "system": "http://loinc.org",
              "display": "Erythrocyte distribution width [Entitic volume] by Automated count"
            }
          ],
          "text": "Erythrocyte distribution width [Entitic volume] by Automated count"
        },
        "valueQuantity": {
          "system": "http://unitsofmeasure.org",
          "value": 42.7,
          "unit": "fL",
          "code": "fL"
        },
        "referenceRange": [
          {
            "low": {
              "value": 36,
              "code": "fL",
              "system": "http://unitsofmeasure.org"
            }
          },
          {
            "high": {
              "value": 56,
              "code": "fL",
              "system": "http://unitsofmeasure.org"
            }
          }
        ],
        "text": {
          "status": "generated",
          "div": "<div xmlns=\"http://www.w3.org/1999/xhtml\"><table class=\"hl7__eu__lab__report\"><tr><th>Test</th><th>28-Apr-2024</th><th>Reference&#xA0;Range</th><th>Unit</th></tr><tr><td>Erythrocyte distribution width [Entitic volume] by Automated count</td><td>42.7</td><td>36 - 56</td><td></td><td>fL</td></tr></table></div>"
        },
        "status": "final",
        "subject": {
          "reference": "urn:uuid:ad3a6219-3680-4688-ad4f-33469fbaedcb",
          "display": "Marlene Gerlach"
        },
        "effectiveDateTime": "2024-04-28T19:24:33Z",
        "specimen": {
          "reference": "urn:uuid:079ebc2c-0059-4add-b683-025e585979fe"
        }
      }
    },
    {
      "fullUrl": "urn:uuid:e68c10ba-eb12-44bd-b038-87c19899ff14",
      "resource": {
        "resourceType": "Observation",
        "id": "e68c10ba-eb12-44bd-b038-87c19899ff14",
        "meta": {
          "profile": [
            "http://hl7.eu/fhir/laboratory/StructureDefinition/Observation-resultslab-eu-lab"
          ]
        },
        "performer": [
          {
            "display": "The Central European Lab"
          }
        ],
        "category": [
          {
            "coding": [
              {
                "system": "http://terminology.hl7.org/CodeSystem/observation-category",
                "code": "laboratory"
              }
            ]
          }
        ],
        "code": {
          "coding": [
            {
              "code": "777-3",
              "system": "http://loinc.org",
              "display": "Platelets [#/volume] in Blood by Automated count"
            }
          ],
          "text": "Platelets [#/volume] in Blood by Automated count"
        },
        "valueQuantity": {
          "system": "http://unitsofmeasure.org",
          "value": 249.1,
          "unit": "10*3/uL",
          "code": "10*3/uL"
        },
        "referenceRange": [
          {
            "low": {
              "value": 150,
              "code": "10*3/uL",
              "system": "http://unitsofmeasure.org"
            }
          },
          {
            "high": {
              "value": 450,
              "code": "10*3/uL",
              "system": "http://unitsofmeasure.org"
            }
          }
        ],
        "text": {
          "status": "generated",
          "div": "<div xmlns=\"http://www.w3.org/1999/xhtml\"><table class=\"hl7__eu__lab__report\"><tr><th>Test</th><th>28-Apr-2024</th><th>Reference&#xA0;Range</th><th>Unit</th></tr><tr><td>Platelets [#/volume] in Blood by Automated count</td><td>249.1</td><td>150 - 450</td><td></td><td>10*3/uL</td></tr></table></div>"
        },
        "status": "final",
        "subject": {
          "reference": "urn:uuid:ad3a6219-3680-4688-ad4f-33469fbaedcb",
          "display": "Marlene Gerlach"
        },
        "effectiveDateTime": "2024-04-28T19:24:33Z",
        "specimen": {
          "reference": "urn:uuid:079ebc2c-0059-4add-b683-025e585979fe"
        }
      }
    },
    {
      "fullUrl": "urn:uuid:1e5bcbd7-518d-4fd4-8e17-e995bebc56aa",
      "resource": {
        "resourceType": "Observation",
        "id": "1e5bcbd7-518d-4fd4-8e17-e995bebc56aa",
        "meta": {
          "profile": [
            "http://hl7.eu/fhir/laboratory/StructureDefinition/Observation-resultslab-eu-lab"
          ]
        },
        "performer": [
          {
            "display": "The Central European Lab"
          }
        ],
        "category": [
          {
            "coding": [
              {
                "system": "http://terminology.hl7.org/CodeSystem/observation-category",
                "code": "laboratory"
              }
            ]
          }
        ],
        "code": {
          "coding": [
            {
              "code": "32207-3",
              "system": "http://loinc.org",
              "display": "Platelet distribution width [Entitic volume] in Blood by Automated count"
            }
          ],
          "text": "Platelet distribution width [Entitic volume] in Blood by Automated count"
        },
        "valueQuantity": {
          "system": "http://unitsofmeasure.org",
          "value": 242.6,
          "unit": "fL",
          "code": "fL"
        },
        "referenceRange": [
          {
            "low": {
              "value": 11.6,
              "code": "fL",
              "system": "http://unitsofmeasure.org"
            }
          },
          {
            "high": {
              "value": 17.4,
              "code": "fL",
              "system": "http://unitsofmeasure.org"
            }
          }
        ],
        "interpretation": [
          {
            "coding": [
              {
                "code": "H",
                "system": "http://terminology.hl7.org/CodeSystem/v3-ObservationInterpretation",
                "display": "High"
              }
            ]
          }
        ],
        "text": {
          "status": "generated",
          "div": "<div xmlns=\"http://www.w3.org/1999/xhtml\"><table class=\"hl7__eu__lab__report\"><tr><th>Test</th><th>28-Apr-2024</th><th>Reference&#xA0;Range</th><th>Unit</th></tr><tr><td>Platelet distribution width [Entitic volume] in Blood by Automated count</td><td>242.6</td><td>11.6 - 17.4</td><td>H</td><td>fL</td></tr></table></div>"
        },
        "status": "final",
        "subject": {
          "reference": "urn:uuid:ad3a6219-3680-4688-ad4f-33469fbaedcb",
          "display": "Marlene Gerlach"
        },
        "effectiveDateTime": "2024-04-28T19:24:33Z",
        "specimen": {
          "reference": "urn:uuid:079ebc2c-0059-4add-b683-025e585979fe"
        }
      }
    },
    {
      "fullUrl": "urn:uuid:009bccb2-fe25-41aa-aa71-3df6b64d25b6",
      "resource": {
        "resourceType": "Observation",
        "id": "009bccb2-fe25-41aa-aa71-3df6b64d25b6",
        "meta": {
          "profile": [
            "http://hl7.eu/fhir/laboratory/StructureDefinition/Observation-resultslab-eu-lab"
          ]
        },
        "performer": [
          {
            "display": "The Central European Lab"
          }
        ],
        "category": [
          {
            "coding": [
              {
                "system": "http://terminology.hl7.org/CodeSystem/observation-category",
                "code": "laboratory"
              }
            ]
          }
        ],
        "code": {
          "coding": [
            {
              "code": "32623-1",
              "system": "http://loinc.org",
              "display": "Platelet mean volume [Entitic volume] in Blood by Automated count"
            }
          ],
          "text": "Platelet mean volume [Entitic volume] in Blood by Automated count"
        },
        "valueQuantity": {
          "system": "http://unitsofmeasure.org",
          "value": 10.1,
          "unit": "fL",
          "code": "fL"
        },
        "referenceRange": [
          {
            "low": {
              "value": 7.4,
              "code": "fL",
              "system": "http://unitsofmeasure.org"
            }
          },
          {
            "high": {
              "value": 12,
              "code": "fL",
              "system": "http://unitsofmeasure.org"
            }
          }
        ],
        "text": {
          "status": "generated",
          "div": "<div xmlns=\"http://www.w3.org/1999/xhtml\"><table class=\"hl7__eu__lab__report\"><tr><th>Test</th><th>28-Apr-2024</th><th>Reference&#xA0;Range</th><th>Unit</th></tr><tr><td>Platelet mean volume [Entitic volume] in Blood by Automated count</td><td>10.1</td><td>7.4 - 12</td><td></td><td>fL</td></tr></table></div>"
        },
        "status": "final",
        "subject": {
          "reference": "urn:uuid:ad3a6219-3680-4688-ad4f-33469fbaedcb",
          "display": "Marlene Gerlach"
        },
        "effectiveDateTime": "2024-04-28T19:24:33Z",
        "specimen": {
          "reference": "urn:uuid:079ebc2c-0059-4add-b683-025e585979fe"
        }
      }
    },
    {
      "fullUrl": "urn:uuid:65ab2a4b-a07a-4a6c-b430-6950f9099060",
      "resource": {
        "resourceType": "Device",
        "id": "65ab2a4b-a07a-4a6c-b430-6950f9099060",
        "deviceName": [
          {
            "name": "SYNDERAI Synthetic Generator",
            "type": "manufacturer-name"
          }
        ],
        "version": [
          {
            "value": "5.0"
          }
        ],
        "text": {
          "status": "generated",
          "div": "<div xmlns=\"http://www.w3.org/1999/xhtml\">SYNDERAI Synthetic Generator v5.0</div>"
        },
        "status": "active\"",
        "distinctIdentifier": "synderai-generator-50",
        "manufacturer": "SYNDERAI Project"
      }
    },
    {
      "fullUrl": "urn:uuid:ba5ba9b9-f582-4fd7-9c42-b78838d87a6a",
      "resource": {
        "resourceType": "Provenance",
        "id": "ba5ba9b9-f582-4fd7-9c42-b78838d87a6a",
        "target": [
          {
            "reference": "Patient/ad3a6219-3680-4688-ad4f-33469fbaedcb"
          },
          {
            "reference": "Bundle/dd332f61-564f-400d-912a-6545980cd2a7"
          },
          {
            "reference": "Composition/aac6fa23-b072-4da1-88e6-65828d47d6bd"
          },
          {
            "reference": "PractitionerRole/f3a7d218-68b1-492a-bffd-79eb321e6d0e"
          },
          {
            "reference": "Practitioner/e199d40d-1dfa-4191-be59-fde464c0b4f6"
          },
          {
            "reference": "PractitionerRole/35b67946-43ce-4f74-b2b6-913dfc8dc626"
          },
          {
            "reference": "Organization/8455be50-32b6-456b-8bf2-e3eca757aedb"
          }
        ],
        "activity": {
          "text": "Synthetic Example Data Generation"
        },
        "policy": [
          "https://synderai.net/synderai-synthetic-data-policy"
        ],
        "agent": [
          {
            "type": {
              "text": "author"
            },
            "who": {
              "reference": "Device/65ab2a4b-a07a-4a6c-b430-6950f9099060"
            }
          }
        ],
        "reason": [
          {
            "text": "Interoperability Testing and Training (non-clinical use)"
          }
        ],
        "text": {
          "status": "generated",
          "div": "<div xmlns=\"http://www.w3.org/1999/xhtml\">Provenance for SYNDERAI Synthetic Example Data Resource</div>"
        },
        "recorded": "2024-04-28T21:24:33Z"
      }
    },
    {
      "fullUrl": "urn:uuid:f3a7d218-68b1-492a-bffd-79eb321e6d0e",
      "resource": {
        "resourceType": "PractitionerRole",
        "id": "f3a7d218-68b1-492a-bffd-79eb321e6d0e",
        "meta": {
          "profile": [
            "http://hl7.eu/fhir/base/StructureDefinition/practitionerRole-eu"
          ]
        },
        "text": {
          "status": "generated",
          "div": "<div xmlns=\"http://www.w3.org/1999/xhtml\">Laboratory Role Id: f3a7d218-68b1-492a-bffd-79eb321e6d0e</div>"
        },
        "practitioner": {
          "reference": "urn:uuid:e199d40d-1dfa-4191-be59-fde464c0b4f6"
        }
      }
    },
    {
      "fullUrl": "urn:uuid:e199d40d-1dfa-4191-be59-fde464c0b4f6",
      "resource": {
        "resourceType": "Practitioner",
        "id": "e199d40d-1dfa-4191-be59-fde464c0b4f6",
        "meta": {
          "profile": [
            "http://hl7.eu/fhir/base/StructureDefinition/practitioner-eu"
          ]
        },
        "identifier": [
          {
            "assigner": {
              "display": "HL7 Europe"
            },
            "system": "urn:oid:2.16.840.1.113883.2.51.999",
            "value": "9474b77a-c9d4-467a-a1ba-35948b1c245e"
          }
        ],
        "name": [
          {
            "prefix": [
              "dr"
            ],
            "given": [
              "Ex"
            ],
            "family": "Ample"
          }
        ],
        "address": [
          {
            "line": [
              "Laboratoire Central Européenne",
              "Boulevard du Jardin Botanique 32"
            ],
            "postalCode": "1000",
            "city": "Brussels",
            "country": "Belgium"
          }
        ],
        "text": {
          "status": "generated",
          "div": "<div xmlns=\"http://www.w3.org/1999/xhtml\">Laboratory: Laboratoire Central Européenne, 1000 Brussels, Belgium</div>"
        }
      }
    }
  ],
  "type": "document",
  "timestamp": "2024-04-28T21:24:33Z"
}
