{
  "resourceType": "Bundle",
  "id": "e83492e8-8550-44ed-85eb-a4533c426bb4",
  "meta": {
    "profile": [
      "http://hl7.eu/fhir/laboratory/StructureDefinition/Bundle-eu-lab"
    ]
  },
  "identifier": {
    "assigner": {
      "display": "HL7 Europe"
    },
    "system": "urn:oid:2.16.840.1.113883.2.51.999",
    "value": "dccaf117-423c-4fcb-8ae8-c14686f0b10b"
  },
  "entry": [
    {
      "fullUrl": "urn:uuid:7383f0f1-dbe5-46d2-8287-a643340c0376",
      "resource": {
        "resourceType": "Composition",
        "id": "7383f0f1-dbe5-46d2-8287-a643340c0376",
        "meta": {
          "profile": [
            "http://hl7.eu/fhir/laboratory/StructureDefinition/Composition-eu-lab"
          ]
        },
        "identifier": {
          "assigner": {
            "display": "HL7 Europe"
          },
          "system": "urn:oid:2.16.840.1.113883.2.51.999",
          "value": "1127c77d-6eac-4230-8d2d-feebee5e6636"
        },
        "author": [
          {
            "reference": "urn:uuid:10405a17-4aeb-4491-8f29-76c17b430a33"
          }
        ],
        "category": [
          {
            "coding": [
              {
                "code": "26436-6",
                "system": "http://loinc.org",
                "display": "Laboratory studies (set)"
              }
            ]
          }
        ],
        "type": {
          "coding": [
            {
              "code": "11502-2",
              "system": "http://loinc.org",
              "display": "Laboratory report"
            }
          ],
          "text": "Laboratory Report"
        },
        "section": [
          {
            "code": {
              "coding": [
                {
                  "code": "26436-6",
                  "system": "http://loinc.org",
                  "display": "Laboratory studies (set)"
                }
              ],
              "text": "Laboratory studies"
            },
            "section": [
              {
                "code": {
                  "coding": [
                    {
                      "code": "$18723-7",
                      "system": "http://loinc.org",
                      "display": "Hematology studies (set)"
                    }
                  ],
                  "text": "Hematology"
                },
                "entry": [
                  {
                    "reference": "urn:uuid:caac6eda-2726-464c-a727-a6d538606e5d"
                  },
                  {
                    "reference": "urn:uuid:6af8781f-5020-473d-8e11-6ae2ff416bf3"
                  },
                  {
                    "reference": "urn:uuid:93293d2d-fa24-42be-b7db-ee446207621f"
                  },
                  {
                    "reference": "urn:uuid:6fc8b3d4-c480-44a3-8e2b-312c3cfc0561"
                  },
                  {
                    "reference": "urn:uuid:788cae3f-5278-4bb9-83d4-387cb1594886"
                  },
                  {
                    "reference": "urn:uuid:55555a9d-8ada-4fe9-a013-ee5bdc2bf302"
                  },
                  {
                    "reference": "urn:uuid:246da93f-4699-48a2-bbfa-bdd6d2a1f950"
                  },
                  {
                    "reference": "urn:uuid:239aeeb7-208b-4734-9c27-a238b6a8c091"
                  },
                  {
                    "reference": "urn:uuid:f8a2d0f8-feba-4284-aba0-8a0948dbf5fd"
                  },
                  {
                    "reference": "urn:uuid:477e8b4a-03ef-4087-ba49-3a754d9824ee"
                  },
                  {
                    "reference": "urn:uuid:b91b97ce-4669-45b7-bf69-79249d911ecb"
                  }
                ],
                "text": {
                  "status": "generated",
                  "div": "<div xmlns=\"http://www.w3.org/1999/xhtml\"><h3>Hematology</h3><table class=\"hl7__eu__lab__report\"><thead><tr><th>Test</th><th>22-JUL-2018</th><th>Reference&#xA0;Range</th><th>Unit</th></tr></thead><tbody><tr><td>Leukocytes [#/volume] in Blood by Automated count</td><td>4.4</td><td>4 - 11</td><td>10*3/uL</td></tr><tr><td>Erythrocytes [#/volume] in Blood by Automated count</td><td>4.9</td><td>3.9 - 5.2</td><td>10*6/uL</td></tr><tr><td>Hemoglobin [Mass/volume] in Blood</td><td><strong>16.3 H</strong></td><td>12 - 15.5</td><td>g/dL</td></tr><tr><td>Hematocrit [Volume Fraction] of Blood by Automated count</td><td>42.2</td><td>38 - 54</td><td>%</td></tr><tr><td>MCV [Entitic volume] by Automated count</td><td>83.9</td><td>78 - 98</td><td>fL</td></tr><tr><td>MCH [Entitic mass] by Automated count</td><td>30.4</td><td>27 - 33</td><td>pg</td></tr><tr><td>MCHC [Mass/volume] by Automated count</td><td>33.2</td><td>31 - 35</td><td>g/dL</td></tr><tr><td>Erythrocyte distribution width [Entitic volume] by Automated count</td><td>42.5</td><td>36 - 56</td><td>fL</td></tr><tr><td>Platelets [#/volume] in Blood by Automated count</td><td>247.5</td><td>150 - 450</td><td>10*3/uL</td></tr><tr><td>Platelet distribution width [Entitic volume] in Blood by Automated count</td><td>309.8</td><td>15.5 - 450</td><td>fL</td></tr><tr><td>Platelet mean volume [Entitic volume] in Blood by Automated count</td><td>11.7</td><td>7.2 - 13.5</td><td>fL</td></tr></tbody></table></div>"
                },
                "title": "Hematology"
              },
              {
                "code": {
                  "coding": [
                    {
                      "code": "$18719-5",
                      "system": "http://loinc.org",
                      "display": "Chemistry studies (set)"
                    }
                  ],
                  "text": "Chemistry"
                },
                "entry": [
                  {
                    "reference": "urn:uuid:86a187f2-49c8-4c08-9b44-a2cdb476ec34"
                  },
                  {
                    "reference": "urn:uuid:4fd4eb31-1d14-45de-b108-bd7c3fd1a7f1"
                  },
                  {
                    "reference": "urn:uuid:061168fb-5326-466e-a3ab-f8225fc75f1c"
                  },
                  {
                    "reference": "urn:uuid:039e0186-1cb6-4fa5-9182-972229e4ba5f"
                  },
                  {
                    "reference": "urn:uuid:a7089f72-ccd5-4ee2-a725-fe56a5c7b428"
                  },
                  {
                    "reference": "urn:uuid:a24fa831-c3f6-4aba-a825-4fe6c2675723"
                  },
                  {
                    "reference": "urn:uuid:93d6c5bb-d530-48e9-925d-d271d34231aa"
                  },
                  {
                    "reference": "urn:uuid:1b22dd72-a0d9-431d-bd55-ab709f44046a"
                  }
                ],
                "text": {
                  "status": "generated",
                  "div": "<div xmlns=\"http://www.w3.org/1999/xhtml\"><h3>Chemistry</h3><table class=\"hl7__eu__lab__report\"><thead><tr><th>Test</th><th>22-JUL-2018</th><th>Reference&#xA0;Range</th><th>Unit</th></tr></thead><tbody><tr><td>Glucose [Mass/volume] in Blood</td><td>86.0</td><td>70 - 140</td><td>mg/dL</td></tr><tr><td>Urea nitrogen [Mass/volume] in Blood</td><td>16.1</td><td>7 - 30</td><td>mg/dL</td></tr><tr><td>Creatinine [Mass/volume] in Blood</td><td>0.7</td><td>0.5 - 1.3</td><td>mg/dL</td></tr><tr><td>Calcium [Mass/volume] in Blood</td><td>9.6</td><td>8.6 - 10.2</td><td>mg/dL</td></tr><tr><td>Sodium [Moles/volume] in Blood</td><td>141.3</td><td>135 - 145</td><td>mmol/L</td></tr><tr><td>Potassium [Moles/volume] in Blood</td><td>4.5</td><td>3.5 - 5.1</td><td>mmol/L</td></tr><tr><td>Chloride [Moles/volume] in Blood</td><td>107.8</td><td>98 - 114</td><td>mmol/L</td></tr><tr><td>Carbon dioxide, total [Moles/volume] in Blood</td><td>24.4</td><td>22 - 32</td><td>mmol/L</td></tr></tbody></table></div>"
                },
                "title": "Chemistry"
              }
            ],
            "title": "Laboratory Report"
          },
          {
            "text": {
              "status": "generated",
              "div": "<div xmlns=\"http://www.w3.org/1999/xhtml\"><h3>Annotation</h3><table class=\"hl7__eu__lab__report\"><tr><th>Conclusion and Recommendations based on this report and previous findings known to us</th></tr><tr><td>All laboratory values are within normal limits except for a mildly elevated hemoglobin (16.3 g/dL). This could indicate mild hemoconcentration or dehydration but may also be normal for this patient. No evidence of anemia, infection, electrolyte imbalance, or renal dysfunction. Clinical correlation is recommended.</td></tr></table></div>"
            },
            "code": {
              "coding": [
                {
                  "system": "http://loinc.org",
                  "code": "48767-8",
                  "display": "Annotation comment"
                }
              ]
            },
            "title": "Annotation comment"
          }
        ],
        "status": "final",
        "subject": {
          "reference": "urn:uuid:b8d7fcdb-1885-40f4-9bb5-3e3e9a3d3653",
          "display": "Maria Nohlmans"
        },
        "date": "2018-07-22T20:00:39Z",
        "title": "Laboratory Report",
        "confidentiality": "N"
      }
    },
    {
      "fullUrl": "urn:uuid:347996f6-3b4f-477f-b708-4b014053e85f",
      "resource": {
        "resourceType": "DiagnosticReport",
        "id": "347996f6-3b4f-477f-b708-4b014053e85f",
        "meta": {
          "profile": [
            "http://hl7.eu/fhir/laboratory/StructureDefinition/DiagnosticReport-eu-lab"
          ]
        },
        "identifier": [
          {
            "assigner": {
              "display": "HL7 Europe"
            },
            "system": "urn:oid:2.16.840.1.113883.2.51.999",
            "value": "3d12d3a3-a2eb-4d6d-8ffc-584b860f23ae"
          }
        ],
        "extension": [
          {
            "url": "http://hl7.org/fhir/5.0/StructureDefinition/extension-DiagnosticReport.composition",
            "valueReference": {
              "reference": "urn:uuid:1127c77d-6eac-4230-8d2d-feebee5e6636"
            }
          }
        ],
        "category": [
          {
            "coding": [
              {
                "code": "26436-6",
                "system": "http://loinc.org",
                "display": "Laboratory studies (set)"
              }
            ]
          }
        ],
        "specimen": [
          {
            "reference": "urn:uuid:874b2a3d-5f1e-436f-88e0-a66d431ddf46"
          },
          {
            "reference": "urn:uuid:874b2a3d-5f1e-436f-88e0-a66d431ddf46"
          }
        ],
        "result": [
          {
            "reference": "urn:uuid:86a187f2-49c8-4c08-9b44-a2cdb476ec34"
          },
          {
            "reference": "urn:uuid:4fd4eb31-1d14-45de-b108-bd7c3fd1a7f1"
          },
          {
            "reference": "urn:uuid:061168fb-5326-466e-a3ab-f8225fc75f1c"
          },
          {
            "reference": "urn:uuid:039e0186-1cb6-4fa5-9182-972229e4ba5f"
          },
          {
            "reference": "urn:uuid:a7089f72-ccd5-4ee2-a725-fe56a5c7b428"
          },
          {
            "reference": "urn:uuid:a24fa831-c3f6-4aba-a825-4fe6c2675723"
          },
          {
            "reference": "urn:uuid:93d6c5bb-d530-48e9-925d-d271d34231aa"
          },
          {
            "reference": "urn:uuid:1b22dd72-a0d9-431d-bd55-ab709f44046a"
          },
          {
            "reference": "urn:uuid:caac6eda-2726-464c-a727-a6d538606e5d"
          },
          {
            "reference": "urn:uuid:6af8781f-5020-473d-8e11-6ae2ff416bf3"
          },
          {
            "reference": "urn:uuid:93293d2d-fa24-42be-b7db-ee446207621f"
          },
          {
            "reference": "urn:uuid:6fc8b3d4-c480-44a3-8e2b-312c3cfc0561"
          },
          {
            "reference": "urn:uuid:788cae3f-5278-4bb9-83d4-387cb1594886"
          },
          {
            "reference": "urn:uuid:55555a9d-8ada-4fe9-a013-ee5bdc2bf302"
          },
          {
            "reference": "urn:uuid:246da93f-4699-48a2-bbfa-bdd6d2a1f950"
          },
          {
            "reference": "urn:uuid:239aeeb7-208b-4734-9c27-a238b6a8c091"
          },
          {
            "reference": "urn:uuid:f8a2d0f8-feba-4284-aba0-8a0948dbf5fd"
          },
          {
            "reference": "urn:uuid:477e8b4a-03ef-4087-ba49-3a754d9824ee"
          },
          {
            "reference": "urn:uuid:b91b97ce-4669-45b7-bf69-79249d911ecb"
          }
        ],
        "status": "registered",
        "code": {
          "coding": [
            {
              "code": "11502-2",
              "system": "http://loinc.org",
              "display": "Laboratory report"
            }
          ]
        },
        "subject": {
          "reference": "urn:uuid:b8d7fcdb-1885-40f4-9bb5-3e3e9a3d3653",
          "display": "Maria Nohlmans"
        }
      }
    },
    {
      "fullUrl": "urn:uuid:b8d7fcdb-1885-40f4-9bb5-3e3e9a3d3653",
      "resource": {
        "resourceType": "Patient",
        "id": "b8d7fcdb-1885-40f4-9bb5-3e3e9a3d3653",
        "meta": {
          "security": [
            {
              "system": "http://terminology.hl7.org/CodeSystem/v3-ActReason",
              "code": "HTEST"
            },
            {
              "system": "http://terminology.hl7.org/CodeSystem/v3-ActReason",
              "code": "TRAIN"
            }
          ],
          "tag": [
            {
              "system": "https://synderai.net/fhir/CodeSystem/tags",
              "code": "synthetic",
              "display": "SYNDERAI Synthetic data"
            }
          ],
          "profile": [
            "http://hl7.eu/fhir/base/StructureDefinition/patient-eu-core"
          ]
        },
        "identifier": [
          {
            "type": {
              "coding": [
                {
                  "code": "PT",
                  "system": "http://terminology.hl7.org/CodeSystem/v2-0203"
                }
              ]
            },
            "system": "http://ec.europa.eu/identifier/eci",
            "value": "6886-506417-1"
          },
          {
            "type": {
              "coding": [
                {
                  "code": "MR",
                  "system": "http://terminology.hl7.org/CodeSystem/v2-0203"
                }
              ]
            },
            "system": "http://local.setting.eu/identifier",
            "value": "2cb21ed6-b617-b1f3-2290-589a710de5ee"
          }
        ],
        "name": [
          {
            "family": "Nohlmans"
          },
          {
            "given": [
              "Maria"
            ]
          },
          {
            "text": "Maria Nohlmans"
          }
        ],
        "address": [
          {
            "line": [
              "Alfons-Wulff-Weg 1"
            ],
            "use": "home",
            "type": "physical",
            "postalCode": "25813",
            "city": "Husum",
            "country": "Germany"
          }
        ],
        "telecom": [
          {
            "system": "phone",
            "value": "+49(0)1911 105501"
          }
        ],
        "extension": [
          {
            "url": "http://hl7.org/fhir/StructureDefinition/patient-nationality",
            "valueCodeableConcept": {
              "coding": [
                {
                  "code": "DE",
                  "system": "http://hl7.org/fhir/ValueSet/country"
                }
              ]
            }
          }
        ],
        "text": {
          "status": "generated",
          "div": "<div xmlns=\"http://www.w3.org/1999/xhtml\"><table class=\"hl7__ips\"><tr><td>Maria Nohlmans</td><td>female</td><td>11-Jun-1947</td></tr></table></div>"
        },
        "gender": "female",
        "birthDate": "1947-06-11"
      }
    },
    {
      "fullUrl": "urn:uuid:76f11b33-f53c-444a-a2be-e88d318d162a",
      "resource": {
        "resourceType": "ServiceRequest",
        "id": "76f11b33-f53c-444a-a2be-e88d318d162a",
        "meta": {
          "profile": [
            "http://hl7.eu/fhir/laboratory/StructureDefinition/ServiceRequest-eu-lab"
          ]
        },
        "identifier": [
          {
            "system": "http://example.org",
            "value": "c7e041c6-50a0-4b11-b12d-9656cb931477"
          }
        ],
        "specimen": [
          {
            "reference": "urn:uuid:874b2a3d-5f1e-436f-88e0-a66d431ddf46"
          }
        ],
        "reasonCode": [
          {
            "coding": [
              {
                "code": "401314000",
                "system": "http://snomed.info/sct",
                "display": "Acute non-ST segment elevation myocardial infarction"
              }
            ]
          },
          {
            "coding": [
              {
                "code": "157141000119108",
                "system": "http://snomed.info/sct",
                "display": "Proteinuria due to type 2 diabetes mellitus"
              }
            ]
          },
          {
            "coding": [
              {
                "code": "237602007",
                "system": "http://snomed.info/sct",
                "display": "Metabolic syndrome X"
              }
            ]
          },
          {
            "coding": [
              {
                "code": "90781000119102",
                "system": "http://snomed.info/sct",
                "display": "Microalbuminuria due to type 2 diabetes mellitus"
              }
            ]
          },
          {
            "coding": [
              {
                "code": "127013003",
                "system": "http://snomed.info/sct",
                "display": "Disorder of kidney due to diabetes mellitus"
              }
            ]
          },
          {
            "coding": [
              {
                "code": "59621000",
                "system": "http://snomed.info/sct",
                "display": "Essential hypertension"
              }
            ]
          },
          {
            "coding": [
              {
                "code": "271737000",
                "system": "http://snomed.info/sct",
                "display": "Anemia"
              }
            ]
          },
          {
            "coding": [
              {
                "code": "15777000",
                "system": "http://snomed.info/sct",
                "display": "Prediabetes"
              }
            ]
          }
        ],
        "status": "active",
        "intent": "order",
        "code": {
          "coding": [
            {
              "code": "108252007",
              "system": "http://snomed.info/sct",
              "display": "Laboratory procedure"
            }
          ]
        },
        "subject": {
          "reference": "urn:uuid:b8d7fcdb-1885-40f4-9bb5-3e3e9a3d3653",
          "display": "Maria Nohlmans"
        },
        "requester": {
          "reference": "urn:uuid:fcea1965-2e2b-4e52-ba82-9e219c0f995a"
        }
      }
    },
    {
      "fullUrl": "urn:uuid:fcea1965-2e2b-4e52-ba82-9e219c0f995a",
      "resource": {
        "resourceType": "PractitionerRole",
        "id": "fcea1965-2e2b-4e52-ba82-9e219c0f995a",
        "meta": {
          "profile": [
            "http://hl7.eu/fhir/base/StructureDefinition/practitionerRole-eu"
          ]
        },
        "text": {
          "status": "generated",
          "div": "<div xmlns=\"http://www.w3.org/1999/xhtml\">Provider Role Id: fcea1965-2e2b-4e52-ba82-9e219c0f995a</div>"
        },
        "organization": {
          "reference": "urn:uuid:e79f3fb8-18e9-4b34-9230-fe39623c010e"
        }
      }
    },
    {
      "fullUrl": "urn:uuid:e79f3fb8-18e9-4b34-9230-fe39623c010e",
      "resource": {
        "resourceType": "Organization",
        "id": "e79f3fb8-18e9-4b34-9230-fe39623c010e",
        "meta": {
          "profile": [
            "http://hl7.eu/fhir/base/StructureDefinition/organization-eu"
          ]
        },
        "identifier": [
          {
            "assigner": {
              "display": "HL7 Europe"
            },
            "system": "urn:oid:2.16.840.1.113883.2.51.999",
            "value": "3512910e-029c-41eb-82b4-7abc18ad09dc"
          }
        ],
        "address": [
          {
            "line": [
              "Brinckmannstraße 35"
            ],
            "city": "Husum",
            "postalCode": "25813",
            "country": "Germany"
          }
        ],
        "text": {
          "status": "generated",
          "div": "<div xmlns=\"http://www.w3.org/1999/xhtml\">Provider Organization: Dr. Wolfram Hussels Kieferorthopäde</div>"
        },
        "name": "Dr. Wolfram Hussels Kieferorthopäde"
      }
    },
    {
      "fullUrl": "urn:uuid:874b2a3d-5f1e-436f-88e0-a66d431ddf46",
      "resource": {
        "resourceType": "Specimen",
        "id": "874b2a3d-5f1e-436f-88e0-a66d431ddf46",
        "meta": {
          "profile": [
            "http://hl7.eu/fhir/laboratory/StructureDefinition/Specimen-eu-lab"
          ]
        },
        "collection": {
          "collectedDateTime": "2018-07-22"
        },
        "text": {
          "status": "generated",
          "div": "<div xmlns=\"http://www.w3.org/1999/xhtml\"><table class=\"hl7__eu__lab__report\"><tr><th>Specimen</th><th>Collection Date</th></tr><tr><td>Whole blood specimen (specimen)</td><td><span class=\"nb\">22-Jul-2018</span></td></tr></table></div>"
        },
        "type": {
          "coding": [
            {
              "code": "258580003",
              "system": "http://snomed.info/sct",
              "display": "Whole blood specimen (specimen)"
            }
          ]
        }
      }
    },
    {
      "fullUrl": "urn:uuid:874b2a3d-5f1e-436f-88e0-a66d431ddf46",
      "resource": {
        "resourceType": "Specimen",
        "id": "874b2a3d-5f1e-436f-88e0-a66d431ddf46",
        "meta": {
          "profile": [
            "http://hl7.eu/fhir/laboratory/StructureDefinition/Specimen-eu-lab"
          ]
        },
        "collection": {
          "collectedDateTime": "2018-07-22"
        },
        "text": {
          "status": "generated",
          "div": "<div xmlns=\"http://www.w3.org/1999/xhtml\"><table class=\"hl7__eu__lab__report\"><tr><th>Specimen</th><th>Collection Date</th></tr><tr><td>Whole blood specimen (specimen)</td><td><span class=\"nb\">22-Jul-2018</span></td></tr></table></div>"
        },
        "type": {
          "coding": [
            {
              "code": "258580003",
              "system": "http://snomed.info/sct",
              "display": "Whole blood specimen (specimen)"
            }
          ]
        }
      }
    },
    {
      "fullUrl": "urn:uuid:86a187f2-49c8-4c08-9b44-a2cdb476ec34",
      "resource": {
        "resourceType": "Observation",
        "id": "86a187f2-49c8-4c08-9b44-a2cdb476ec34",
        "meta": {
          "profile": [
            "http://hl7.eu/fhir/laboratory/StructureDefinition/Observation-resultslab-eu-lab"
          ]
        },
        "performer": [
          {
            "display": "The Central European Lab"
          }
        ],
        "category": [
          {
            "coding": [
              {
                "system": "http://terminology.hl7.org/CodeSystem/observation-category",
                "code": "laboratory"
              }
            ]
          }
        ],
        "code": {
          "coding": [
            {
              "code": "2339-0",
              "system": "http://loinc.org",
              "display": "Glucose [Mass/volume] in Blood"
            }
          ],
          "text": "Glucose [Mass/volume] in Blood"
        },
        "valueQuantity": {
          "system": "http://unitsofmeasure.org",
          "value": 86,
          "unit": "mg/dL",
          "code": "mg/dL"
        },
        "referenceRange": [
          {
            "low": {
              "value": 70,
              "code": "mg/dL",
              "system": "http://unitsofmeasure.org"
            }
          },
          {
            "high": {
              "value": 140,
              "code": "mg/dL",
              "system": "http://unitsofmeasure.org"
            }
          }
        ],
        "text": {
          "status": "generated",
          "div": "<div xmlns=\"http://www.w3.org/1999/xhtml\"><table class=\"hl7__eu__lab__report\"><tr><th>Test</th><th>22-Jul-2018</th><th>Reference&#xA0;Range</th><th>Unit</th></tr><tr><td>Glucose [Mass/volume] in Blood</td><td>86.0</td><td>70 - 140</td><td></td><td>mg/dL</td></tr></table></div>"
        },
        "status": "final",
        "subject": {
          "reference": "urn:uuid:b8d7fcdb-1885-40f4-9bb5-3e3e9a3d3653",
          "display": "Maria Nohlmans"
        },
        "effectiveDateTime": "2018-07-22T18:00:39Z",
        "specimen": {
          "reference": "urn:uuid:874b2a3d-5f1e-436f-88e0-a66d431ddf46"
        }
      }
    },
    {
      "fullUrl": "urn:uuid:4fd4eb31-1d14-45de-b108-bd7c3fd1a7f1",
      "resource": {
        "resourceType": "Observation",
        "id": "4fd4eb31-1d14-45de-b108-bd7c3fd1a7f1",
        "meta": {
          "profile": [
            "http://hl7.eu/fhir/laboratory/StructureDefinition/Observation-resultslab-eu-lab"
          ]
        },
        "performer": [
          {
            "display": "The Central European Lab"
          }
        ],
        "category": [
          {
            "coding": [
              {
                "system": "http://terminology.hl7.org/CodeSystem/observation-category",
                "code": "laboratory"
              }
            ]
          }
        ],
        "code": {
          "coding": [
            {
              "code": "6299-2",
              "system": "http://loinc.org",
              "display": "Urea nitrogen [Mass/volume] in Blood"
            }
          ],
          "text": "Urea nitrogen [Mass/volume] in Blood"
        },
        "valueQuantity": {
          "system": "http://unitsofmeasure.org",
          "value": 16.1,
          "unit": "mg/dL",
          "code": "mg/dL"
        },
        "referenceRange": [
          {
            "low": {
              "value": 7,
              "code": "mg/dL",
              "system": "http://unitsofmeasure.org"
            }
          },
          {
            "high": {
              "value": 30,
              "code": "mg/dL",
              "system": "http://unitsofmeasure.org"
            }
          }
        ],
        "text": {
          "status": "generated",
          "div": "<div xmlns=\"http://www.w3.org/1999/xhtml\"><table class=\"hl7__eu__lab__report\"><tr><th>Test</th><th>22-Jul-2018</th><th>Reference&#xA0;Range</th><th>Unit</th></tr><tr><td>Urea nitrogen [Mass/volume] in Blood</td><td>16.1</td><td>7 - 30</td><td></td><td>mg/dL</td></tr></table></div>"
        },
        "status": "final",
        "subject": {
          "reference": "urn:uuid:b8d7fcdb-1885-40f4-9bb5-3e3e9a3d3653",
          "display": "Maria Nohlmans"
        },
        "effectiveDateTime": "2018-07-22T18:00:39Z",
        "specimen": {
          "reference": "urn:uuid:874b2a3d-5f1e-436f-88e0-a66d431ddf46"
        }
      }
    },
    {
      "fullUrl": "urn:uuid:061168fb-5326-466e-a3ab-f8225fc75f1c",
      "resource": {
        "resourceType": "Observation",
        "id": "061168fb-5326-466e-a3ab-f8225fc75f1c",
        "meta": {
          "profile": [
            "http://hl7.eu/fhir/laboratory/StructureDefinition/Observation-resultslab-eu-lab"
          ]
        },
        "performer": [
          {
            "display": "The Central European Lab"
          }
        ],
        "category": [
          {
            "coding": [
              {
                "system": "http://terminology.hl7.org/CodeSystem/observation-category",
                "code": "laboratory"
              }
            ]
          }
        ],
        "code": {
          "coding": [
            {
              "code": "38483-4",
              "system": "http://loinc.org",
              "display": "Creatinine [Mass/volume] in Blood"
            }
          ],
          "text": "Creatinine [Mass/volume] in Blood"
        },
        "valueQuantity": {
          "system": "http://unitsofmeasure.org",
          "value": 0.7,
          "unit": "mg/dL",
          "code": "mg/dL"
        },
        "referenceRange": [
          {
            "low": {
              "value": 0.5,
              "code": "mg/dL",
              "system": "http://unitsofmeasure.org"
            }
          },
          {
            "high": {
              "value": 1.3,
              "code": "mg/dL",
              "system": "http://unitsofmeasure.org"
            }
          }
        ],
        "text": {
          "status": "generated",
          "div": "<div xmlns=\"http://www.w3.org/1999/xhtml\"><table class=\"hl7__eu__lab__report\"><tr><th>Test</th><th>22-Jul-2018</th><th>Reference&#xA0;Range</th><th>Unit</th></tr><tr><td>Creatinine [Mass/volume] in Blood</td><td>0.7</td><td>0.5 - 1.3</td><td></td><td>mg/dL</td></tr></table></div>"
        },
        "status": "final",
        "subject": {
          "reference": "urn:uuid:b8d7fcdb-1885-40f4-9bb5-3e3e9a3d3653",
          "display": "Maria Nohlmans"
        },
        "effectiveDateTime": "2018-07-22T18:00:39Z",
        "specimen": {
          "reference": "urn:uuid:874b2a3d-5f1e-436f-88e0-a66d431ddf46"
        }
      }
    },
    {
      "fullUrl": "urn:uuid:039e0186-1cb6-4fa5-9182-972229e4ba5f",
      "resource": {
        "resourceType": "Observation",
        "id": "039e0186-1cb6-4fa5-9182-972229e4ba5f",
        "meta": {
          "profile": [
            "http://hl7.eu/fhir/laboratory/StructureDefinition/Observation-resultslab-eu-lab"
          ]
        },
        "performer": [
          {
            "display": "The Central European Lab"
          }
        ],
        "category": [
          {
            "coding": [
              {
                "system": "http://terminology.hl7.org/CodeSystem/observation-category",
                "code": "laboratory"
              }
            ]
          }
        ],
        "code": {
          "coding": [
            {
              "code": "49765-1",
              "system": "http://loinc.org",
              "display": "Calcium [Mass/volume] in Blood"
            }
          ],
          "text": "Calcium [Mass/volume] in Blood"
        },
        "valueQuantity": {
          "system": "http://unitsofmeasure.org",
          "value": 9.6,
          "unit": "mg/dL",
          "code": "mg/dL"
        },
        "referenceRange": [
          {
            "low": {
              "value": 8.6,
              "code": "mg/dL",
              "system": "http://unitsofmeasure.org"
            }
          },
          {
            "high": {
              "value": 10.2,
              "code": "mg/dL",
              "system": "http://unitsofmeasure.org"
            }
          }
        ],
        "text": {
          "status": "generated",
          "div": "<div xmlns=\"http://www.w3.org/1999/xhtml\"><table class=\"hl7__eu__lab__report\"><tr><th>Test</th><th>22-Jul-2018</th><th>Reference&#xA0;Range</th><th>Unit</th></tr><tr><td>Calcium [Mass/volume] in Blood</td><td>9.6</td><td>8.6 - 10.2</td><td></td><td>mg/dL</td></tr></table></div>"
        },
        "status": "final",
        "subject": {
          "reference": "urn:uuid:b8d7fcdb-1885-40f4-9bb5-3e3e9a3d3653",
          "display": "Maria Nohlmans"
        },
        "effectiveDateTime": "2018-07-22T18:00:39Z",
        "specimen": {
          "reference": "urn:uuid:874b2a3d-5f1e-436f-88e0-a66d431ddf46"
        }
      }
    },
    {
      "fullUrl": "urn:uuid:a7089f72-ccd5-4ee2-a725-fe56a5c7b428",
      "resource": {
        "resourceType": "Observation",
        "id": "a7089f72-ccd5-4ee2-a725-fe56a5c7b428",
        "meta": {
          "profile": [
            "http://hl7.eu/fhir/laboratory/StructureDefinition/Observation-resultslab-eu-lab"
          ]
        },
        "performer": [
          {
            "display": "The Central European Lab"
          }
        ],
        "category": [
          {
            "coding": [
              {
                "system": "http://terminology.hl7.org/CodeSystem/observation-category",
                "code": "laboratory"
              }
            ]
          }
        ],
        "code": {
          "coding": [
            {
              "code": "2947-0",
              "system": "http://loinc.org",
              "display": "Sodium [Moles/volume] in Blood"
            }
          ],
          "text": "Sodium [Moles/volume] in Blood"
        },
        "valueQuantity": {
          "system": "http://unitsofmeasure.org",
          "value": 141.3,
          "unit": "mmol/L",
          "code": "mmol/L"
        },
        "referenceRange": [
          {
            "low": {
              "value": 135,
              "code": "mmol/L",
              "system": "http://unitsofmeasure.org"
            }
          },
          {
            "high": {
              "value": 145,
              "code": "mmol/L",
              "system": "http://unitsofmeasure.org"
            }
          }
        ],
        "text": {
          "status": "generated",
          "div": "<div xmlns=\"http://www.w3.org/1999/xhtml\"><table class=\"hl7__eu__lab__report\"><tr><th>Test</th><th>22-Jul-2018</th><th>Reference&#xA0;Range</th><th>Unit</th></tr><tr><td>Sodium [Moles/volume] in Blood</td><td>141.3</td><td>135 - 145</td><td></td><td>mmol/L</td></tr></table></div>"
        },
        "status": "final",
        "subject": {
          "reference": "urn:uuid:b8d7fcdb-1885-40f4-9bb5-3e3e9a3d3653",
          "display": "Maria Nohlmans"
        },
        "effectiveDateTime": "2018-07-22T18:00:39Z",
        "specimen": {
          "reference": "urn:uuid:874b2a3d-5f1e-436f-88e0-a66d431ddf46"
        }
      }
    },
    {
      "fullUrl": "urn:uuid:a24fa831-c3f6-4aba-a825-4fe6c2675723",
      "resource": {
        "resourceType": "Observation",
        "id": "a24fa831-c3f6-4aba-a825-4fe6c2675723",
        "meta": {
          "profile": [
            "http://hl7.eu/fhir/laboratory/StructureDefinition/Observation-resultslab-eu-lab"
          ]
        },
        "performer": [
          {
            "display": "The Central European Lab"
          }
        ],
        "category": [
          {
            "coding": [
              {
                "system": "http://terminology.hl7.org/CodeSystem/observation-category",
                "code": "laboratory"
              }
            ]
          }
        ],
        "code": {
          "coding": [
            {
              "code": "6298-4",
              "system": "http://loinc.org",
              "display": "Potassium [Moles/volume] in Blood"
            }
          ],
          "text": "Potassium [Moles/volume] in Blood"
        },
        "valueQuantity": {
          "system": "http://unitsofmeasure.org",
          "value": 4.5,
          "unit": "mmol/L",
          "code": "mmol/L"
        },
        "referenceRange": [
          {
            "low": {
              "value": 3.5,
              "code": "mmol/L",
              "system": "http://unitsofmeasure.org"
            }
          },
          {
            "high": {
              "value": 5.1,
              "code": "mmol/L",
              "system": "http://unitsofmeasure.org"
            }
          }
        ],
        "text": {
          "status": "generated",
          "div": "<div xmlns=\"http://www.w3.org/1999/xhtml\"><table class=\"hl7__eu__lab__report\"><tr><th>Test</th><th>22-Jul-2018</th><th>Reference&#xA0;Range</th><th>Unit</th></tr><tr><td>Potassium [Moles/volume] in Blood</td><td>4.5</td><td>3.5 - 5.1</td><td></td><td>mmol/L</td></tr></table></div>"
        },
        "status": "final",
        "subject": {
          "reference": "urn:uuid:b8d7fcdb-1885-40f4-9bb5-3e3e9a3d3653",
          "display": "Maria Nohlmans"
        },
        "effectiveDateTime": "2018-07-22T18:00:39Z",
        "specimen": {
          "reference": "urn:uuid:874b2a3d-5f1e-436f-88e0-a66d431ddf46"
        }
      }
    },
    {
      "fullUrl": "urn:uuid:93d6c5bb-d530-48e9-925d-d271d34231aa",
      "resource": {
        "resourceType": "Observation",
        "id": "93d6c5bb-d530-48e9-925d-d271d34231aa",
        "meta": {
          "profile": [
            "http://hl7.eu/fhir/laboratory/StructureDefinition/Observation-resultslab-eu-lab"
          ]
        },
        "performer": [
          {
            "display": "The Central European Lab"
          }
        ],
        "category": [
          {
            "coding": [
              {
                "system": "http://terminology.hl7.org/CodeSystem/observation-category",
                "code": "laboratory"
              }
            ]
          }
        ],
        "code": {
          "coding": [
            {
              "code": "2069-3",
              "system": "http://loinc.org",
              "display": "Chloride [Moles/volume] in Blood"
            }
          ],
          "text": "Chloride [Moles/volume] in Blood"
        },
        "valueQuantity": {
          "system": "http://unitsofmeasure.org",
          "value": 107.8,
          "unit": "mmol/L",
          "code": "mmol/L"
        },
        "referenceRange": [
          {
            "low": {
              "value": 98,
              "code": "mmol/L",
              "system": "http://unitsofmeasure.org"
            }
          },
          {
            "high": {
              "value": 114,
              "code": "mmol/L",
              "system": "http://unitsofmeasure.org"
            }
          }
        ],
        "text": {
          "status": "generated",
          "div": "<div xmlns=\"http://www.w3.org/1999/xhtml\"><table class=\"hl7__eu__lab__report\"><tr><th>Test</th><th>22-Jul-2018</th><th>Reference&#xA0;Range</th><th>Unit</th></tr><tr><td>Chloride [Moles/volume] in Blood</td><td>107.8</td><td>98 - 114</td><td></td><td>mmol/L</td></tr></table></div>"
        },
        "status": "final",
        "subject": {
          "reference": "urn:uuid:b8d7fcdb-1885-40f4-9bb5-3e3e9a3d3653",
          "display": "Maria Nohlmans"
        },
        "effectiveDateTime": "2018-07-22T18:00:39Z",
        "specimen": {
          "reference": "urn:uuid:874b2a3d-5f1e-436f-88e0-a66d431ddf46"
        }
      }
    },
    {
      "fullUrl": "urn:uuid:1b22dd72-a0d9-431d-bd55-ab709f44046a",
      "resource": {
        "resourceType": "Observation",
        "id": "1b22dd72-a0d9-431d-bd55-ab709f44046a",
        "meta": {
          "profile": [
            "http://hl7.eu/fhir/laboratory/StructureDefinition/Observation-resultslab-eu-lab"
          ]
        },
        "performer": [
          {
            "display": "The Central European Lab"
          }
        ],
        "category": [
          {
            "coding": [
              {
                "system": "http://terminology.hl7.org/CodeSystem/observation-category",
                "code": "laboratory"
              }
            ]
          }
        ],
        "code": {
          "coding": [
            {
              "code": "20565-8",
              "system": "http://loinc.org",
              "display": "Carbon dioxide, total [Moles/volume] in Blood"
            }
          ],
          "text": "Carbon dioxide, total [Moles/volume] in Blood"
        },
        "valueQuantity": {
          "system": "http://unitsofmeasure.org",
          "value": 24.4,
          "unit": "mmol/L",
          "code": "mmol/L"
        },
        "referenceRange": [
          {
            "low": {
              "value": 22,
              "code": "mmol/L",
              "system": "http://unitsofmeasure.org"
            }
          },
          {
            "high": {
              "value": 32,
              "code": "mmol/L",
              "system": "http://unitsofmeasure.org"
            }
          }
        ],
        "text": {
          "status": "generated",
          "div": "<div xmlns=\"http://www.w3.org/1999/xhtml\"><table class=\"hl7__eu__lab__report\"><tr><th>Test</th><th>22-Jul-2018</th><th>Reference&#xA0;Range</th><th>Unit</th></tr><tr><td>Carbon dioxide, total [Moles/volume] in Blood</td><td>24.4</td><td>22 - 32</td><td></td><td>mmol/L</td></tr></table></div>"
        },
        "status": "final",
        "subject": {
          "reference": "urn:uuid:b8d7fcdb-1885-40f4-9bb5-3e3e9a3d3653",
          "display": "Maria Nohlmans"
        },
        "effectiveDateTime": "2018-07-22T18:00:39Z",
        "specimen": {
          "reference": "urn:uuid:874b2a3d-5f1e-436f-88e0-a66d431ddf46"
        }
      }
    },
    {
      "fullUrl": "urn:uuid:caac6eda-2726-464c-a727-a6d538606e5d",
      "resource": {
        "resourceType": "Observation",
        "id": "caac6eda-2726-464c-a727-a6d538606e5d",
        "meta": {
          "profile": [
            "http://hl7.eu/fhir/laboratory/StructureDefinition/Observation-resultslab-eu-lab"
          ]
        },
        "performer": [
          {
            "display": "The Central European Lab"
          }
        ],
        "category": [
          {
            "coding": [
              {
                "system": "http://terminology.hl7.org/CodeSystem/observation-category",
                "code": "laboratory"
              }
            ]
          }
        ],
        "code": {
          "coding": [
            {
              "code": "6690-2",
              "system": "http://loinc.org",
              "display": "Leukocytes [#/volume] in Blood by Automated count"
            }
          ],
          "text": "Leukocytes [#/volume] in Blood by Automated count"
        },
        "valueQuantity": {
          "system": "http://unitsofmeasure.org",
          "value": 4.4,
          "unit": "10*3/uL",
          "code": "10*3/uL"
        },
        "referenceRange": [
          {
            "low": {
              "value": 4,
              "code": "10*3/uL",
              "system": "http://unitsofmeasure.org"
            }
          },
          {
            "high": {
              "value": 11,
              "code": "10*3/uL",
              "system": "http://unitsofmeasure.org"
            }
          }
        ],
        "text": {
          "status": "generated",
          "div": "<div xmlns=\"http://www.w3.org/1999/xhtml\"><table class=\"hl7__eu__lab__report\"><tr><th>Test</th><th>22-Jul-2018</th><th>Reference&#xA0;Range</th><th>Unit</th></tr><tr><td>Leukocytes [#/volume] in Blood by Automated count</td><td>4.4</td><td>4 - 11</td><td></td><td>10*3/uL</td></tr></table></div>"
        },
        "status": "final",
        "subject": {
          "reference": "urn:uuid:b8d7fcdb-1885-40f4-9bb5-3e3e9a3d3653",
          "display": "Maria Nohlmans"
        },
        "effectiveDateTime": "2018-07-22T18:00:39Z",
        "specimen": {
          "reference": "urn:uuid:874b2a3d-5f1e-436f-88e0-a66d431ddf46"
        }
      }
    },
    {
      "fullUrl": "urn:uuid:6af8781f-5020-473d-8e11-6ae2ff416bf3",
      "resource": {
        "resourceType": "Observation",
        "id": "6af8781f-5020-473d-8e11-6ae2ff416bf3",
        "meta": {
          "profile": [
            "http://hl7.eu/fhir/laboratory/StructureDefinition/Observation-resultslab-eu-lab"
          ]
        },
        "performer": [
          {
            "display": "The Central European Lab"
          }
        ],
        "category": [
          {
            "coding": [
              {
                "system": "http://terminology.hl7.org/CodeSystem/observation-category",
                "code": "laboratory"
              }
            ]
          }
        ],
        "code": {
          "coding": [
            {
              "code": "789-8",
              "system": "http://loinc.org",
              "display": "Erythrocytes [#/volume] in Blood by Automated count"
            }
          ],
          "text": "Erythrocytes [#/volume] in Blood by Automated count"
        },
        "valueQuantity": {
          "system": "http://unitsofmeasure.org",
          "value": 4.9,
          "unit": "10*6/uL",
          "code": "10*6/uL"
        },
        "referenceRange": [
          {
            "low": {
              "value": 3.9,
              "code": "10*6/uL",
              "system": "http://unitsofmeasure.org"
            }
          },
          {
            "high": {
              "value": 5.2,
              "code": "10*6/uL",
              "system": "http://unitsofmeasure.org"
            }
          }
        ],
        "text": {
          "status": "generated",
          "div": "<div xmlns=\"http://www.w3.org/1999/xhtml\"><table class=\"hl7__eu__lab__report\"><tr><th>Test</th><th>22-Jul-2018</th><th>Reference&#xA0;Range</th><th>Unit</th></tr><tr><td>Erythrocytes [#/volume] in Blood by Automated count</td><td>4.9</td><td>3.9 - 5.2</td><td></td><td>10*6/uL</td></tr></table></div>"
        },
        "status": "final",
        "subject": {
          "reference": "urn:uuid:b8d7fcdb-1885-40f4-9bb5-3e3e9a3d3653",
          "display": "Maria Nohlmans"
        },
        "effectiveDateTime": "2018-07-22T18:00:39Z",
        "specimen": {
          "reference": "urn:uuid:874b2a3d-5f1e-436f-88e0-a66d431ddf46"
        }
      }
    },
    {
      "fullUrl": "urn:uuid:93293d2d-fa24-42be-b7db-ee446207621f",
      "resource": {
        "resourceType": "Observation",
        "id": "93293d2d-fa24-42be-b7db-ee446207621f",
        "meta": {
          "profile": [
            "http://hl7.eu/fhir/laboratory/StructureDefinition/Observation-resultslab-eu-lab"
          ]
        },
        "performer": [
          {
            "display": "The Central European Lab"
          }
        ],
        "category": [
          {
            "coding": [
              {
                "system": "http://terminology.hl7.org/CodeSystem/observation-category",
                "code": "laboratory"
              }
            ]
          }
        ],
        "code": {
          "coding": [
            {
              "code": "718-7",
              "system": "http://loinc.org",
              "display": "Hemoglobin [Mass/volume] in Blood"
            }
          ],
          "text": "Hemoglobin [Mass/volume] in Blood"
        },
        "valueQuantity": {
          "system": "http://unitsofmeasure.org",
          "value": 16.3,
          "unit": "g/dL",
          "code": "g/dL"
        },
        "referenceRange": [
          {
            "low": {
              "value": 12,
              "code": "g/dL",
              "system": "http://unitsofmeasure.org"
            }
          },
          {
            "high": {
              "value": 15.5,
              "code": "g/dL",
              "system": "http://unitsofmeasure.org"
            }
          }
        ],
        "interpretation": [
          {
            "coding": [
              {
                "code": "H",
                "system": "http://terminology.hl7.org/CodeSystem/v3-ObservationInterpretation",
                "display": "High"
              }
            ]
          }
        ],
        "text": {
          "status": "generated",
          "div": "<div xmlns=\"http://www.w3.org/1999/xhtml\"><table class=\"hl7__eu__lab__report\"><tr><th>Test</th><th>22-Jul-2018</th><th>Reference&#xA0;Range</th><th>Unit</th></tr><tr><td>Hemoglobin [Mass/volume] in Blood</td><td>16.3</td><td>12 - 15.5</td><td>H</td><td>g/dL</td></tr></table></div>"
        },
        "status": "final",
        "subject": {
          "reference": "urn:uuid:b8d7fcdb-1885-40f4-9bb5-3e3e9a3d3653",
          "display": "Maria Nohlmans"
        },
        "effectiveDateTime": "2018-07-22T18:00:39Z",
        "specimen": {
          "reference": "urn:uuid:874b2a3d-5f1e-436f-88e0-a66d431ddf46"
        }
      }
    },
    {
      "fullUrl": "urn:uuid:6fc8b3d4-c480-44a3-8e2b-312c3cfc0561",
      "resource": {
        "resourceType": "Observation",
        "id": "6fc8b3d4-c480-44a3-8e2b-312c3cfc0561",
        "meta": {
          "profile": [
            "http://hl7.eu/fhir/laboratory/StructureDefinition/Observation-resultslab-eu-lab"
          ]
        },
        "performer": [
          {
            "display": "The Central European Lab"
          }
        ],
        "category": [
          {
            "coding": [
              {
                "system": "http://terminology.hl7.org/CodeSystem/observation-category",
                "code": "laboratory"
              }
            ]
          }
        ],
        "code": {
          "coding": [
            {
              "code": "4544-3",
              "system": "http://loinc.org",
              "display": "Hematocrit [Volume Fraction] of Blood by Automated count"
            }
          ],
          "text": "Hematocrit [Volume Fraction] of Blood by Automated count"
        },
        "valueQuantity": {
          "system": "http://unitsofmeasure.org",
          "value": 42.2,
          "unit": "%",
          "code": "%"
        },
        "referenceRange": [
          {
            "low": {
              "value": 38,
              "code": "%",
              "system": "http://unitsofmeasure.org"
            }
          },
          {
            "high": {
              "value": 54,
              "code": "%",
              "system": "http://unitsofmeasure.org"
            }
          }
        ],
        "text": {
          "status": "generated",
          "div": "<div xmlns=\"http://www.w3.org/1999/xhtml\"><table class=\"hl7__eu__lab__report\"><tr><th>Test</th><th>22-Jul-2018</th><th>Reference&#xA0;Range</th><th>Unit</th></tr><tr><td>Hematocrit [Volume Fraction] of Blood by Automated count</td><td>42.2</td><td>38 - 54</td><td></td><td>%</td></tr></table></div>"
        },
        "status": "final",
        "subject": {
          "reference": "urn:uuid:b8d7fcdb-1885-40f4-9bb5-3e3e9a3d3653",
          "display": "Maria Nohlmans"
        },
        "effectiveDateTime": "2018-07-22T18:00:39Z",
        "specimen": {
          "reference": "urn:uuid:874b2a3d-5f1e-436f-88e0-a66d431ddf46"
        }
      }
    },
    {
      "fullUrl": "urn:uuid:788cae3f-5278-4bb9-83d4-387cb1594886",
      "resource": {
        "resourceType": "Observation",
        "id": "788cae3f-5278-4bb9-83d4-387cb1594886",
        "meta": {
          "profile": [
            "http://hl7.eu/fhir/laboratory/StructureDefinition/Observation-resultslab-eu-lab"
          ]
        },
        "performer": [
          {
            "display": "The Central European Lab"
          }
        ],
        "category": [
          {
            "coding": [
              {
                "system": "http://terminology.hl7.org/CodeSystem/observation-category",
                "code": "laboratory"
              }
            ]
          }
        ],
        "code": {
          "coding": [
            {
              "code": "787-2",
              "system": "http://loinc.org",
              "display": "MCV [Entitic volume] by Automated count"
            }
          ],
          "text": "MCV [Entitic volume] by Automated count"
        },
        "valueQuantity": {
          "system": "http://unitsofmeasure.org",
          "value": 83.9,
          "unit": "fL",
          "code": "fL"
        },
        "referenceRange": [
          {
            "low": {
              "value": 78,
              "code": "fL",
              "system": "http://unitsofmeasure.org"
            }
          },
          {
            "high": {
              "value": 98,
              "code": "fL",
              "system": "http://unitsofmeasure.org"
            }
          }
        ],
        "text": {
          "status": "generated",
          "div": "<div xmlns=\"http://www.w3.org/1999/xhtml\"><table class=\"hl7__eu__lab__report\"><tr><th>Test</th><th>22-Jul-2018</th><th>Reference&#xA0;Range</th><th>Unit</th></tr><tr><td>MCV [Entitic volume] by Automated count</td><td>83.9</td><td>78 - 98</td><td></td><td>fL</td></tr></table></div>"
        },
        "status": "final",
        "subject": {
          "reference": "urn:uuid:b8d7fcdb-1885-40f4-9bb5-3e3e9a3d3653",
          "display": "Maria Nohlmans"
        },
        "effectiveDateTime": "2018-07-22T18:00:39Z",
        "specimen": {
          "reference": "urn:uuid:874b2a3d-5f1e-436f-88e0-a66d431ddf46"
        }
      }
    },
    {
      "fullUrl": "urn:uuid:55555a9d-8ada-4fe9-a013-ee5bdc2bf302",
      "resource": {
        "resourceType": "Observation",
        "id": "55555a9d-8ada-4fe9-a013-ee5bdc2bf302",
        "meta": {
          "profile": [
            "http://hl7.eu/fhir/laboratory/StructureDefinition/Observation-resultslab-eu-lab"
          ]
        },
        "performer": [
          {
            "display": "The Central European Lab"
          }
        ],
        "category": [
          {
            "coding": [
              {
                "system": "http://terminology.hl7.org/CodeSystem/observation-category",
                "code": "laboratory"
              }
            ]
          }
        ],
        "code": {
          "coding": [
            {
              "code": "785-6",
              "system": "http://loinc.org",
              "display": "MCH [Entitic mass] by Automated count"
            }
          ],
          "text": "MCH [Entitic mass] by Automated count"
        },
        "valueQuantity": {
          "system": "http://unitsofmeasure.org",
          "value": 30.4,
          "unit": "pg",
          "code": "pg"
        },
        "referenceRange": [
          {
            "low": {
              "value": 27,
              "code": "pg",
              "system": "http://unitsofmeasure.org"
            }
          },
          {
            "high": {
              "value": 33,
              "code": "pg",
              "system": "http://unitsofmeasure.org"
            }
          }
        ],
        "text": {
          "status": "generated",
          "div": "<div xmlns=\"http://www.w3.org/1999/xhtml\"><table class=\"hl7__eu__lab__report\"><tr><th>Test</th><th>22-Jul-2018</th><th>Reference&#xA0;Range</th><th>Unit</th></tr><tr><td>MCH [Entitic mass] by Automated count</td><td>30.4</td><td>27 - 33</td><td></td><td>pg</td></tr></table></div>"
        },
        "status": "final",
        "subject": {
          "reference": "urn:uuid:b8d7fcdb-1885-40f4-9bb5-3e3e9a3d3653",
          "display": "Maria Nohlmans"
        },
        "effectiveDateTime": "2018-07-22T18:00:39Z",
        "specimen": {
          "reference": "urn:uuid:874b2a3d-5f1e-436f-88e0-a66d431ddf46"
        }
      }
    },
    {
      "fullUrl": "urn:uuid:246da93f-4699-48a2-bbfa-bdd6d2a1f950",
      "resource": {
        "resourceType": "Observation",
        "id": "246da93f-4699-48a2-bbfa-bdd6d2a1f950",
        "meta": {
          "profile": [
            "http://hl7.eu/fhir/laboratory/StructureDefinition/Observation-resultslab-eu-lab"
          ]
        },
        "performer": [
          {
            "display": "The Central European Lab"
          }
        ],
        "category": [
          {
            "coding": [
              {
                "system": "http://terminology.hl7.org/CodeSystem/observation-category",
                "code": "laboratory"
              }
            ]
          }
        ],
        "code": {
          "coding": [
            {
              "code": "786-4",
              "system": "http://loinc.org",
              "display": "MCHC [Mass/volume] by Automated count"
            }
          ],
          "text": "MCHC [Mass/volume] by Automated count"
        },
        "valueQuantity": {
          "system": "http://unitsofmeasure.org",
          "value": 33.2,
          "unit": "g/dL",
          "code": "g/dL"
        },
        "referenceRange": [
          {
            "low": {
              "value": 31,
              "code": "g/dL",
              "system": "http://unitsofmeasure.org"
            }
          },
          {
            "high": {
              "value": 35,
              "code": "g/dL",
              "system": "http://unitsofmeasure.org"
            }
          }
        ],
        "text": {
          "status": "generated",
          "div": "<div xmlns=\"http://www.w3.org/1999/xhtml\"><table class=\"hl7__eu__lab__report\"><tr><th>Test</th><th>22-Jul-2018</th><th>Reference&#xA0;Range</th><th>Unit</th></tr><tr><td>MCHC [Mass/volume] by Automated count</td><td>33.2</td><td>31 - 35</td><td></td><td>g/dL</td></tr></table></div>"
        },
        "status": "final",
        "subject": {
          "reference": "urn:uuid:b8d7fcdb-1885-40f4-9bb5-3e3e9a3d3653",
          "display": "Maria Nohlmans"
        },
        "effectiveDateTime": "2018-07-22T18:00:39Z",
        "specimen": {
          "reference": "urn:uuid:874b2a3d-5f1e-436f-88e0-a66d431ddf46"
        }
      }
    },
    {
      "fullUrl": "urn:uuid:239aeeb7-208b-4734-9c27-a238b6a8c091",
      "resource": {
        "resourceType": "Observation",
        "id": "239aeeb7-208b-4734-9c27-a238b6a8c091",
        "meta": {
          "profile": [
            "http://hl7.eu/fhir/laboratory/StructureDefinition/Observation-resultslab-eu-lab"
          ]
        },
        "performer": [
          {
            "display": "The Central European Lab"
          }
        ],
        "category": [
          {
            "coding": [
              {
                "system": "http://terminology.hl7.org/CodeSystem/observation-category",
                "code": "laboratory"
              }
            ]
          }
        ],
        "code": {
          "coding": [
            {
              "code": "21000-5",
              "system": "http://loinc.org",
              "display": "Erythrocyte distribution width [Entitic volume] by Automated count"
            }
          ],
          "text": "Erythrocyte distribution width [Entitic volume] by Automated count"
        },
        "valueQuantity": {
          "system": "http://unitsofmeasure.org",
          "value": 42.5,
          "unit": "fL",
          "code": "fL"
        },
        "referenceRange": [
          {
            "low": {
              "value": 36,
              "code": "fL",
              "system": "http://unitsofmeasure.org"
            }
          },
          {
            "high": {
              "value": 56,
              "code": "fL",
              "system": "http://unitsofmeasure.org"
            }
          }
        ],
        "text": {
          "status": "generated",
          "div": "<div xmlns=\"http://www.w3.org/1999/xhtml\"><table class=\"hl7__eu__lab__report\"><tr><th>Test</th><th>22-Jul-2018</th><th>Reference&#xA0;Range</th><th>Unit</th></tr><tr><td>Erythrocyte distribution width [Entitic volume] by Automated count</td><td>42.5</td><td>36 - 56</td><td></td><td>fL</td></tr></table></div>"
        },
        "status": "final",
        "subject": {
          "reference": "urn:uuid:b8d7fcdb-1885-40f4-9bb5-3e3e9a3d3653",
          "display": "Maria Nohlmans"
        },
        "effectiveDateTime": "2018-07-22T18:00:39Z",
        "specimen": {
          "reference": "urn:uuid:874b2a3d-5f1e-436f-88e0-a66d431ddf46"
        }
      }
    },
    {
      "fullUrl": "urn:uuid:f8a2d0f8-feba-4284-aba0-8a0948dbf5fd",
      "resource": {
        "resourceType": "Observation",
        "id": "f8a2d0f8-feba-4284-aba0-8a0948dbf5fd",
        "meta": {
          "profile": [
            "http://hl7.eu/fhir/laboratory/StructureDefinition/Observation-resultslab-eu-lab"
          ]
        },
        "performer": [
          {
            "display": "The Central European Lab"
          }
        ],
        "category": [
          {
            "coding": [
              {
                "system": "http://terminology.hl7.org/CodeSystem/observation-category",
                "code": "laboratory"
              }
            ]
          }
        ],
        "code": {
          "coding": [
            {
              "code": "777-3",
              "system": "http://loinc.org",
              "display": "Platelets [#/volume] in Blood by Automated count"
            }
          ],
          "text": "Platelets [#/volume] in Blood by Automated count"
        },
        "valueQuantity": {
          "system": "http://unitsofmeasure.org",
          "value": 247.5,
          "unit": "10*3/uL",
          "code": "10*3/uL"
        },
        "referenceRange": [
          {
            "low": {
              "value": 150,
              "code": "10*3/uL",
              "system": "http://unitsofmeasure.org"
            }
          },
          {
            "high": {
              "value": 450,
              "code": "10*3/uL",
              "system": "http://unitsofmeasure.org"
            }
          }
        ],
        "text": {
          "status": "generated",
          "div": "<div xmlns=\"http://www.w3.org/1999/xhtml\"><table class=\"hl7__eu__lab__report\"><tr><th>Test</th><th>22-Jul-2018</th><th>Reference&#xA0;Range</th><th>Unit</th></tr><tr><td>Platelets [#/volume] in Blood by Automated count</td><td>247.5</td><td>150 - 450</td><td></td><td>10*3/uL</td></tr></table></div>"
        },
        "status": "final",
        "subject": {
          "reference": "urn:uuid:b8d7fcdb-1885-40f4-9bb5-3e3e9a3d3653",
          "display": "Maria Nohlmans"
        },
        "effectiveDateTime": "2018-07-22T18:00:39Z",
        "specimen": {
          "reference": "urn:uuid:874b2a3d-5f1e-436f-88e0-a66d431ddf46"
        }
      }
    },
    {
      "fullUrl": "urn:uuid:477e8b4a-03ef-4087-ba49-3a754d9824ee",
      "resource": {
        "resourceType": "Observation",
        "id": "477e8b4a-03ef-4087-ba49-3a754d9824ee",
        "meta": {
          "profile": [
            "http://hl7.eu/fhir/laboratory/StructureDefinition/Observation-resultslab-eu-lab"
          ]
        },
        "performer": [
          {
            "display": "The Central European Lab"
          }
        ],
        "category": [
          {
            "coding": [
              {
                "system": "http://terminology.hl7.org/CodeSystem/observation-category",
                "code": "laboratory"
              }
            ]
          }
        ],
        "code": {
          "coding": [
            {
              "code": "32207-3",
              "system": "http://loinc.org",
              "display": "Platelet distribution width [Entitic volume] in Blood by Automated count"
            }
          ],
          "text": "Platelet distribution width [Entitic volume] in Blood by Automated count"
        },
        "valueQuantity": {
          "system": "http://unitsofmeasure.org",
          "value": 309.8,
          "unit": "fL",
          "code": "fL"
        },
        "referenceRange": [
          {
            "low": {
              "value": 15.5,
              "code": "fL",
              "system": "http://unitsofmeasure.org"
            }
          },
          {
            "high": {
              "value": 450,
              "code": "fL",
              "system": "http://unitsofmeasure.org"
            }
          }
        ],
        "text": {
          "status": "generated",
          "div": "<div xmlns=\"http://www.w3.org/1999/xhtml\"><table class=\"hl7__eu__lab__report\"><tr><th>Test</th><th>22-Jul-2018</th><th>Reference&#xA0;Range</th><th>Unit</th></tr><tr><td>Platelet distribution width [Entitic volume] in Blood by Automated count</td><td>309.8</td><td>15.5 - 450</td><td></td><td>fL</td></tr></table></div>"
        },
        "status": "final",
        "subject": {
          "reference": "urn:uuid:b8d7fcdb-1885-40f4-9bb5-3e3e9a3d3653",
          "display": "Maria Nohlmans"
        },
        "effectiveDateTime": "2018-07-22T18:00:39Z",
        "specimen": {
          "reference": "urn:uuid:874b2a3d-5f1e-436f-88e0-a66d431ddf46"
        }
      }
    },
    {
      "fullUrl": "urn:uuid:b91b97ce-4669-45b7-bf69-79249d911ecb",
      "resource": {
        "resourceType": "Observation",
        "id": "b91b97ce-4669-45b7-bf69-79249d911ecb",
        "meta": {
          "profile": [
            "http://hl7.eu/fhir/laboratory/StructureDefinition/Observation-resultslab-eu-lab"
          ]
        },
        "performer": [
          {
            "display": "The Central European Lab"
          }
        ],
        "category": [
          {
            "coding": [
              {
                "system": "http://terminology.hl7.org/CodeSystem/observation-category",
                "code": "laboratory"
              }
            ]
          }
        ],
        "code": {
          "coding": [
            {
              "code": "32623-1",
              "system": "http://loinc.org",
              "display": "Platelet mean volume [Entitic volume] in Blood by Automated count"
            }
          ],
          "text": "Platelet mean volume [Entitic volume] in Blood by Automated count"
        },
        "valueQuantity": {
          "system": "http://unitsofmeasure.org",
          "value": 11.7,
          "unit": "fL",
          "code": "fL"
        },
        "referenceRange": [
          {
            "low": {
              "value": 7.2,
              "code": "fL",
              "system": "http://unitsofmeasure.org"
            }
          },
          {
            "high": {
              "value": 13.5,
              "code": "fL",
              "system": "http://unitsofmeasure.org"
            }
          }
        ],
        "text": {
          "status": "generated",
          "div": "<div xmlns=\"http://www.w3.org/1999/xhtml\"><table class=\"hl7__eu__lab__report\"><tr><th>Test</th><th>22-Jul-2018</th><th>Reference&#xA0;Range</th><th>Unit</th></tr><tr><td>Platelet mean volume [Entitic volume] in Blood by Automated count</td><td>11.7</td><td>7.2 - 13.5</td><td></td><td>fL</td></tr></table></div>"
        },
        "status": "final",
        "subject": {
          "reference": "urn:uuid:b8d7fcdb-1885-40f4-9bb5-3e3e9a3d3653",
          "display": "Maria Nohlmans"
        },
        "effectiveDateTime": "2018-07-22T18:00:39Z",
        "specimen": {
          "reference": "urn:uuid:874b2a3d-5f1e-436f-88e0-a66d431ddf46"
        }
      }
    },
    {
      "fullUrl": "urn:uuid:7d00374f-5fd9-48b2-bbbb-c4bb9ce3dff3",
      "resource": {
        "resourceType": "Device",
        "id": "7d00374f-5fd9-48b2-bbbb-c4bb9ce3dff3",
        "deviceName": [
          {
            "name": "SYNDERAI Synthetic Generator",
            "type": "manufacturer-name"
          }
        ],
        "version": [
          {
            "value": "5.0"
          }
        ],
        "text": {
          "status": "generated",
          "div": "<div xmlns=\"http://www.w3.org/1999/xhtml\">SYNDERAI Synthetic Generator v5.0</div>"
        },
        "status": "active\"",
        "distinctIdentifier": "synderai-generator-50",
        "manufacturer": "SYNDERAI Project"
      }
    },
    {
      "fullUrl": "urn:uuid:e3ca13a0-ee34-46c7-bbbf-3d29cbd77e8d",
      "resource": {
        "resourceType": "Provenance",
        "id": "e3ca13a0-ee34-46c7-bbbf-3d29cbd77e8d",
        "target": [
          {
            "reference": "Patient/b8d7fcdb-1885-40f4-9bb5-3e3e9a3d3653"
          },
          {
            "reference": "Bundle/e83492e8-8550-44ed-85eb-a4533c426bb4"
          },
          {
            "reference": "Composition/7383f0f1-dbe5-46d2-8287-a643340c0376"
          },
          {
            "reference": "PractitionerRole/10405a17-4aeb-4491-8f29-76c17b430a33"
          },
          {
            "reference": "Practitioner/bb880170-0268-4ce4-ac1b-d0538e35d4db"
          },
          {
            "reference": "PractitionerRole/fcea1965-2e2b-4e52-ba82-9e219c0f995a"
          },
          {
            "reference": "Organization/e79f3fb8-18e9-4b34-9230-fe39623c010e"
          }
        ],
        "activity": {
          "text": "Synthetic Example Data Generation"
        },
        "policy": [
          "https://synderai.net/synderai-synthetic-data-policy"
        ],
        "agent": [
          {
            "type": {
              "text": "author"
            },
            "who": {
              "reference": "Device/7d00374f-5fd9-48b2-bbbb-c4bb9ce3dff3"
            }
          }
        ],
        "reason": [
          {
            "text": "Interoperability Testing and Training (non-clinical use)"
          }
        ],
        "text": {
          "status": "generated",
          "div": "<div xmlns=\"http://www.w3.org/1999/xhtml\">Provenance for SYNDERAI Synthetic Example Data Resource</div>"
        },
        "recorded": "2018-07-22T20:00:39Z"
      }
    },
    {
      "fullUrl": "urn:uuid:10405a17-4aeb-4491-8f29-76c17b430a33",
      "resource": {
        "resourceType": "PractitionerRole",
        "id": "10405a17-4aeb-4491-8f29-76c17b430a33",
        "meta": {
          "profile": [
            "http://hl7.eu/fhir/base/StructureDefinition/practitionerRole-eu"
          ]
        },
        "text": {
          "status": "generated",
          "div": "<div xmlns=\"http://www.w3.org/1999/xhtml\">Laboratory Role Id: 10405a17-4aeb-4491-8f29-76c17b430a33</div>"
        },
        "practitioner": {
          "reference": "urn:uuid:bb880170-0268-4ce4-ac1b-d0538e35d4db"
        }
      }
    },
    {
      "fullUrl": "urn:uuid:bb880170-0268-4ce4-ac1b-d0538e35d4db",
      "resource": {
        "resourceType": "Practitioner",
        "id": "bb880170-0268-4ce4-ac1b-d0538e35d4db",
        "meta": {
          "profile": [
            "http://hl7.eu/fhir/base/StructureDefinition/practitioner-eu"
          ]
        },
        "identifier": [
          {
            "assigner": {
              "display": "HL7 Europe"
            },
            "system": "urn:oid:2.16.840.1.113883.2.51.999",
            "value": "2cb5846d-4ae5-446c-90de-a46ced4090ee"
          }
        ],
        "name": [
          {
            "prefix": [
              "dr"
            ],
            "given": [
              "Ex"
            ],
            "family": "Ample"
          }
        ],
        "address": [
          {
            "line": [
              "Laboratoire Central Européenne",
              "Boulevard du Jardin Botanique 32"
            ],
            "postalCode": "1000",
            "city": "Brussels",
            "country": "Belgium"
          }
        ],
        "text": {
          "status": "generated",
          "div": "<div xmlns=\"http://www.w3.org/1999/xhtml\">Laboratory: Laboratoire Central Européenne, 1000 Brussels, Belgium</div>"
        }
      }
    }
  ],
  "type": "document",
  "timestamp": "2018-07-22T20:00:39Z"
}
