{
  "resourceType": "Bundle",
  "id": "4f5b6705-05d5-4496-8bee-c2e6822f7d2f",
  "meta": {
    "profile": [
      "http://hl7.eu/fhir/laboratory/StructureDefinition/Bundle-eu-lab"
    ]
  },
  "identifier": {
    "assigner": {
      "display": "HL7 Europe"
    },
    "system": "urn:oid:2.16.840.1.113883.2.51.999",
    "value": "3aec0d37-17d0-4d8a-b364-12922f2ecbe9"
  },
  "entry": [
    {
      "fullUrl": "urn:uuid:6c5aefb2-c642-4f1c-ad14-de15a72c8994",
      "resource": {
        "resourceType": "Composition",
        "id": "6c5aefb2-c642-4f1c-ad14-de15a72c8994",
        "meta": {
          "profile": [
            "http://hl7.eu/fhir/laboratory/StructureDefinition/Composition-eu-lab"
          ]
        },
        "identifier": {
          "assigner": {
            "display": "HL7 Europe"
          },
          "system": "urn:oid:2.16.840.1.113883.2.51.999",
          "value": "f3f6ab0c-be89-4265-b8d9-99544b2c3649"
        },
        "author": [
          {
            "reference": "urn:uuid:443e3b8c-d013-46cc-bf2d-b88069459226"
          }
        ],
        "category": [
          {
            "coding": [
              {
                "code": "26436-6",
                "system": "http://loinc.org",
                "display": "Laboratory studies (set)"
              }
            ]
          }
        ],
        "type": {
          "coding": [
            {
              "code": "11502-2",
              "system": "http://loinc.org",
              "display": "Laboratory report"
            }
          ],
          "text": "Laboratory Report"
        },
        "section": [
          {
            "code": {
              "coding": [
                {
                  "code": "26436-6",
                  "system": "http://loinc.org",
                  "display": "Laboratory studies (set)"
                }
              ],
              "text": "Laboratory studies"
            },
            "section": [
              {
                "code": {
                  "coding": [
                    {
                      "code": "$18719-5",
                      "system": "http://loinc.org",
                      "display": "Chemistry studies (set)"
                    }
                  ],
                  "text": "Chemistry"
                },
                "entry": [
                  {
                    "reference": "urn:uuid:c3765c4e-9561-49fc-9960-c5982d398542"
                  },
                  {
                    "reference": "urn:uuid:30a94cc4-2115-4e87-bcb2-949a2fa71d96"
                  },
                  {
                    "reference": "urn:uuid:04cba561-2941-4923-b981-a11104845a1f"
                  },
                  {
                    "reference": "urn:uuid:f449a3dd-5ee2-46eb-abfe-5a8d5623996d"
                  },
                  {
                    "reference": "urn:uuid:2b747988-92e0-4013-8925-5947498f7923"
                  },
                  {
                    "reference": "urn:uuid:3a13436f-270e-4b52-a7e5-398fd6b3a08f"
                  },
                  {
                    "reference": "urn:uuid:9cdc8477-b8bd-4456-a715-44226806d464"
                  },
                  {
                    "reference": "urn:uuid:d8f6c62d-50dd-470e-85af-acb121c28018"
                  },
                  {
                    "reference": "urn:uuid:630154e5-73c2-4208-9001-d1e870e24528"
                  },
                  {
                    "reference": "urn:uuid:cb62518b-c7f2-4162-a8dc-b973882c1731"
                  },
                  {
                    "reference": "urn:uuid:4e0abb4d-b2f5-4cf6-b5ae-895173dcbb88"
                  },
                  {
                    "reference": "urn:uuid:cb8edc08-d6be-4d4f-96dd-d37d5d0c135e"
                  },
                  {
                    "reference": "urn:uuid:5c28a268-699f-4e3e-acc2-50c1ba60161b"
                  },
                  {
                    "reference": "urn:uuid:8351c643-929b-4aad-a465-ba318ddd1427"
                  },
                  {
                    "reference": "urn:uuid:f0baa199-d5b6-407d-9851-b4d178109763"
                  },
                  {
                    "reference": "urn:uuid:5c481c74-8072-4bd5-be33-7250aa01d9c1"
                  },
                  {
                    "reference": "urn:uuid:5b12de48-04db-4f0b-a7d4-599274e6c65a"
                  },
                  {
                    "reference": "urn:uuid:e95d2793-4424-45c0-9f89-1491cfdfd5fa"
                  }
                ],
                "text": {
                  "status": "generated",
                  "div": "<div xmlns=\"http://www.w3.org/1999/xhtml\"><h3>Chemistry</h3><table class=\"hl7__eu__lab__report\"><thead><tr><th>Test</th><th>27-JAN-2017</th><th>Reference&#xA0;Range</th><th>Unit</th></tr></thead><tbody><tr><td>Glucose [Mass/volume] in Serum or Plasma</td><td>88.5</td><td>70 - 140</td><td>mg/dL</td></tr><tr><td>Urea nitrogen [Mass/volume] in Serum or Plasma</td><td>12.1</td><td>7 - 20</td><td>mg/dL</td></tr><tr><td>Creatinine [Mass/volume] in Serum or Plasma</td><td><strong>1.9 H</strong></td><td>0.9 - 1.3</td><td>mg/dL</td></tr><tr><td>Calcium [Mass/volume] in Serum or Plasma</td><td>9.6</td><td>8.5 - 10.5</td><td>mg/dL</td></tr><tr><td>Sodium [Moles/volume] in Serum or Plasma</td><td>140.9</td><td>135 - 145</td><td>mmol/L</td></tr><tr><td>Potassium [Moles/volume] in Serum or Plasma</td><td>5.0</td><td>3.5 - 5.3</td><td>mmol/L</td></tr><tr><td>Chloride [Moles/volume] in Serum or Plasma</td><td><strong>109.0 H</strong></td><td>98 - 107</td><td>mmol/L</td></tr><tr><td>Carbon dioxide, total [Moles/volume] in Serum or Plasma</td><td>26.0</td><td>22 - 33</td><td>mmol/L</td></tr><tr><td>Ketones [Presence] in Urine by Test strip</td><td>Urine ketone test = +</td><td></td><td></td></tr><tr><td>Hemoglobin A1c/Hemoglobin.total in Blood</td><td><strong>2.9 L</strong></td><td>4.3 - 6</td><td>%</td></tr><tr><td>Glucose [Mass/volume] in Blood</td><td>88.5</td><td>70 - 140</td><td>mg/dL</td></tr><tr><td>Urea nitrogen [Mass/volume] in Blood</td><td>12.1</td><td>7 - 20</td><td>mg/dL</td></tr><tr><td>Creatinine [Mass/volume] in Blood</td><td><strong>2.4 H</strong></td><td>0.9 - 1.3</td><td>mg/dL</td></tr><tr><td>Calcium [Mass/volume] in Blood</td><td>9.6</td><td>8.5 - 10.5</td><td>mg/dL</td></tr><tr><td>Sodium [Moles/volume] in Blood</td><td>140.9</td><td>135 - 145</td><td>mmol/L</td></tr><tr><td>Potassium [Moles/volume] in Blood</td><td>5.0</td><td>3.5 - 5.1</td><td>mmol/L</td></tr><tr><td>Chloride [Moles/volume] in Blood</td><td><strong>109.0 H</strong></td><td>98 - 108</td><td>mmol/L</td></tr><tr><td>Carbon dioxide, total [Moles/volume] in Blood</td><td>26.0</td><td>22 - 29</td><td>mmol/L</td></tr></tbody></table></div>"
                },
                "title": "Chemistry"
              },
              {
                "code": {
                  "coding": [
                    {
                      "code": "$18729-4",
                      "system": "http://loinc.org",
                      "display": "Urinalysis studies (set)"
                    }
                  ],
                  "text": "Urinalysis"
                },
                "entry": [
                  {
                    "reference": "urn:uuid:1fb99abc-4556-42fd-8d10-44c0b6c8fb7a"
                  },
                  {
                    "reference": "urn:uuid:e6c72d60-3031-4167-b729-9ecceea7c0a2"
                  },
                  {
                    "reference": "urn:uuid:2dbc5f8e-d575-4eb7-8735-f5353b79f21d"
                  },
                  {
                    "reference": "urn:uuid:addf582d-1253-45bf-b896-73e2660f91cc"
                  },
                  {
                    "reference": "urn:uuid:f1c2d3af-0cf6-475c-8fdd-abd19dd3098e"
                  },
                  {
                    "reference": "urn:uuid:3ca97dd0-7eb6-4df2-8949-76ba26d2ed0e"
                  },
                  {
                    "reference": "urn:uuid:9ac1ab09-0933-4fea-bf37-250490e49b07"
                  },
                  {
                    "reference": "urn:uuid:4a60d33d-4a58-4c54-85d0-3b060a635e90"
                  },
                  {
                    "reference": "urn:uuid:a56a3aac-c6a8-48a5-bd48-fc343c607665"
                  },
                  {
                    "reference": "urn:uuid:0ab428b0-34fb-4d73-aff4-f96dcc797444"
                  },
                  {
                    "reference": "urn:uuid:fc0b9bef-f981-49d9-a0bf-4cd415b8d102"
                  },
                  {
                    "reference": "urn:uuid:ba333933-89d3-4d88-8281-2d2a84c29c00"
                  }
                ],
                "text": {
                  "status": "generated",
                  "div": "<div xmlns=\"http://www.w3.org/1999/xhtml\"><h3>Urinalysis</h3><table class=\"hl7__eu__lab__report\"><thead><tr><th>Test</th><th>27-JAN-2017</th><th>Reference&#xA0;Range</th><th>Unit</th></tr></thead><tbody><tr><td>Glucose [Mass/volume] in Urine by Test strip</td><td>0.7</td><td>0 - 0.8</td><td>mg/dL</td></tr><tr><td>Glucose [Presence] in Urine by Test strip</td><td>++</td><td></td><td></td></tr><tr><td>Bilirubin.total [Mass/volume] in Urine by Test strip</td><td>0.2</td><td>0 - 1.9</td><td>mg/dL</td></tr><tr><td>Bilirubin.total [Presence] in Urine by Test strip</td><td>Finding of bilirubin in urine</td><td></td><td></td></tr><tr><td>Ketones [Mass/volume] in Urine by Test strip</td><td><strong>10.5 H</strong></td><td>0 - 3</td><td>mg/dL</td></tr><tr><td>Specific gravity of Urine by Test strip</td><td><strong>1.0 L</strong></td><td>1.01 - 1.03</td><td>{nominal}</td></tr><tr><td>pH of Urine by Test strip</td><td>6.9</td><td>4.5 - 7.5</td><td>pH</td></tr><tr><td>Protein [Mass/volume] in Urine by Test strip</td><td><strong>157.1 H</strong></td><td>0 - 149</td><td>mg/dL</td></tr><tr><td>Protein [Presence] in Urine by Test strip</td><td>Urine protein test = ++</td><td></td><td></td></tr><tr><td>Nitrite [Presence] in Urine by Test strip</td><td>Urine nitrite negative</td><td></td><td></td></tr><tr><td>Hemoglobin [Presence] in Urine by Test strip</td><td>Urine blood test = negative</td><td></td><td></td></tr><tr><td>Leukocyte esterase [Presence] in Urine by Test strip</td><td>Urine leukocyte test negative</td><td></td><td></td></tr></tbody></table></div>"
                },
                "title": "Urinalysis"
              },
              {
                "code": {
                  "coding": [
                    {
                      "code": "$LP7846-1",
                      "system": "http://loinc.org",
                      "display": "Specimen information"
                    }
                  ],
                  "text": "Specimen information"
                },
                "entry": [
                  {
                    "reference": "urn:uuid:2c2670d4-44ff-4c83-9d5d-7e2e32752751"
                  },
                  {
                    "reference": "urn:uuid:7d8e14db-88c1-4f75-aed3-3c9abb1ec1de"
                  },
                  {
                    "reference": "urn:uuid:8ffca5bb-458b-4b96-be53-8b7685f3e51c"
                  },
                  {
                    "reference": "urn:uuid:dfa9ed1f-5690-4ea7-8f8c-01278d2c0f1c"
                  }
                ],
                "text": {
                  "status": "generated",
                  "div": "<div xmlns=\"http://www.w3.org/1999/xhtml\"><h3>Specimen information</h3><table class=\"hl7__eu__lab__report\"><thead><tr><th>Test</th><th>27-JAN-2017</th><th>Specimen</th><th></th></tr></thead><tbody><tr><td>Appearance of Urine</td><td>Cloudy urine</td><td>Urine</td><td></td></tr><tr><td>Odor of Urine</td><td>Urine smell ammoniacal</td><td>Urine</td><td></td></tr><tr><td>Clarity of Urine</td><td>Translucent</td><td>Urine</td><td></td></tr><tr><td>Color of Urine</td><td>Brown color</td><td>Urine</td><td></td></tr></tbody></table></div>"
                },
                "title": "Specimen information"
              }
            ],
            "title": "Laboratory Report"
          },
          {
            "text": {
              "status": "generated",
              "div": "<div xmlns=\"http://www.w3.org/1999/xhtml\"><h3>Annotation</h3><table class=\"hl7__eu__lab__report\"><tr><th>Conclusion and Recommendations based on this report and previous findings known to us</th></tr><tr><td>The patient shows elevated creatinine, suggesting impaired renal function, and mild hyperchloremia. Urinalysis reveals proteinuria, ketonuria, glucosuria, low specific gravity, and abnormal urine appearance, indicating possible renal dysfunction and/or diabetes mellitus, though HbA1c is unexpectedly low. No evidence of urinary tract infection. Recommend further evaluation of renal function, review of diabetes status, and assessment for possible laboratory or sampling errors regarding HbA1c.</td></tr></table></div>"
            },
            "code": {
              "coding": [
                {
                  "system": "http://loinc.org",
                  "code": "48767-8",
                  "display": "Annotation comment"
                }
              ]
            },
            "title": "Annotation comment"
          }
        ],
        "status": "final",
        "subject": {
          "reference": "urn:uuid:d9210d13-e836-451a-ac80-b89d05a61750",
          "display": "Victor Lagarde"
        },
        "date": "2017-01-27T05:48:18Z",
        "title": "Laboratory Report",
        "confidentiality": "N"
      }
    },
    {
      "fullUrl": "urn:uuid:613e1115-0092-4560-912b-950c4df77530",
      "resource": {
        "resourceType": "DiagnosticReport",
        "id": "613e1115-0092-4560-912b-950c4df77530",
        "meta": {
          "profile": [
            "http://hl7.eu/fhir/laboratory/StructureDefinition/DiagnosticReport-eu-lab"
          ]
        },
        "identifier": [
          {
            "assigner": {
              "display": "HL7 Europe"
            },
            "system": "urn:oid:2.16.840.1.113883.2.51.999",
            "value": "ee8c68fd-2d29-4cb0-83cb-6a99b71bc0b7"
          }
        ],
        "extension": [
          {
            "url": "http://hl7.org/fhir/5.0/StructureDefinition/extension-DiagnosticReport.composition",
            "valueReference": {
              "reference": "urn:uuid:f3f6ab0c-be89-4265-b8d9-99544b2c3649"
            }
          }
        ],
        "category": [
          {
            "coding": [
              {
                "code": "26436-6",
                "system": "http://loinc.org",
                "display": "Laboratory studies (set)"
              }
            ]
          }
        ],
        "specimen": [
          {
            "reference": "urn:uuid:5842027b-ef33-42f6-b8f7-67ff62f63ed0"
          },
          {
            "reference": "urn:uuid:8a497037-0ed9-4eeb-8325-18a013d56cdd"
          },
          {
            "reference": "urn:uuid:4d3025a6-f426-4a3a-92d6-5c1fe0d908e6"
          }
        ],
        "result": [
          {
            "reference": "urn:uuid:c3765c4e-9561-49fc-9960-c5982d398542"
          },
          {
            "reference": "urn:uuid:30a94cc4-2115-4e87-bcb2-949a2fa71d96"
          },
          {
            "reference": "urn:uuid:04cba561-2941-4923-b981-a11104845a1f"
          },
          {
            "reference": "urn:uuid:f449a3dd-5ee2-46eb-abfe-5a8d5623996d"
          },
          {
            "reference": "urn:uuid:2b747988-92e0-4013-8925-5947498f7923"
          },
          {
            "reference": "urn:uuid:3a13436f-270e-4b52-a7e5-398fd6b3a08f"
          },
          {
            "reference": "urn:uuid:9cdc8477-b8bd-4456-a715-44226806d464"
          },
          {
            "reference": "urn:uuid:d8f6c62d-50dd-470e-85af-acb121c28018"
          },
          {
            "reference": "urn:uuid:2c2670d4-44ff-4c83-9d5d-7e2e32752751"
          },
          {
            "reference": "urn:uuid:7d8e14db-88c1-4f75-aed3-3c9abb1ec1de"
          },
          {
            "reference": "urn:uuid:8ffca5bb-458b-4b96-be53-8b7685f3e51c"
          },
          {
            "reference": "urn:uuid:dfa9ed1f-5690-4ea7-8f8c-01278d2c0f1c"
          },
          {
            "reference": "urn:uuid:1fb99abc-4556-42fd-8d10-44c0b6c8fb7a"
          },
          {
            "reference": "urn:uuid:e6c72d60-3031-4167-b729-9ecceea7c0a2"
          },
          {
            "reference": "urn:uuid:2dbc5f8e-d575-4eb7-8735-f5353b79f21d"
          },
          {
            "reference": "urn:uuid:addf582d-1253-45bf-b896-73e2660f91cc"
          },
          {
            "reference": "urn:uuid:f1c2d3af-0cf6-475c-8fdd-abd19dd3098e"
          },
          {
            "reference": "urn:uuid:630154e5-73c2-4208-9001-d1e870e24528"
          },
          {
            "reference": "urn:uuid:3ca97dd0-7eb6-4df2-8949-76ba26d2ed0e"
          },
          {
            "reference": "urn:uuid:9ac1ab09-0933-4fea-bf37-250490e49b07"
          },
          {
            "reference": "urn:uuid:4a60d33d-4a58-4c54-85d0-3b060a635e90"
          },
          {
            "reference": "urn:uuid:a56a3aac-c6a8-48a5-bd48-fc343c607665"
          },
          {
            "reference": "urn:uuid:0ab428b0-34fb-4d73-aff4-f96dcc797444"
          },
          {
            "reference": "urn:uuid:fc0b9bef-f981-49d9-a0bf-4cd415b8d102"
          },
          {
            "reference": "urn:uuid:ba333933-89d3-4d88-8281-2d2a84c29c00"
          },
          {
            "reference": "urn:uuid:cb62518b-c7f2-4162-a8dc-b973882c1731"
          },
          {
            "reference": "urn:uuid:4e0abb4d-b2f5-4cf6-b5ae-895173dcbb88"
          },
          {
            "reference": "urn:uuid:cb8edc08-d6be-4d4f-96dd-d37d5d0c135e"
          },
          {
            "reference": "urn:uuid:5c28a268-699f-4e3e-acc2-50c1ba60161b"
          },
          {
            "reference": "urn:uuid:8351c643-929b-4aad-a465-ba318ddd1427"
          },
          {
            "reference": "urn:uuid:f0baa199-d5b6-407d-9851-b4d178109763"
          },
          {
            "reference": "urn:uuid:5c481c74-8072-4bd5-be33-7250aa01d9c1"
          },
          {
            "reference": "urn:uuid:5b12de48-04db-4f0b-a7d4-599274e6c65a"
          },
          {
            "reference": "urn:uuid:e95d2793-4424-45c0-9f89-1491cfdfd5fa"
          }
        ],
        "status": "registered",
        "code": {
          "coding": [
            {
              "code": "11502-2",
              "system": "http://loinc.org",
              "display": "Laboratory report"
            }
          ]
        },
        "subject": {
          "reference": "urn:uuid:d9210d13-e836-451a-ac80-b89d05a61750",
          "display": "Victor Lagarde"
        }
      }
    },
    {
      "fullUrl": "urn:uuid:d9210d13-e836-451a-ac80-b89d05a61750",
      "resource": {
        "resourceType": "Patient",
        "id": "d9210d13-e836-451a-ac80-b89d05a61750",
        "meta": {
          "security": [
            {
              "system": "http://terminology.hl7.org/CodeSystem/v3-ActReason",
              "code": "HTEST"
            },
            {
              "system": "http://terminology.hl7.org/CodeSystem/v3-ActReason",
              "code": "TRAIN"
            }
          ],
          "tag": [
            {
              "system": "https://synderai.net/fhir/CodeSystem/tags",
              "code": "synthetic",
              "display": "SYNDERAI Synthetic data"
            }
          ],
          "profile": [
            "http://hl7.eu/fhir/base/StructureDefinition/patient-eu-core"
          ]
        },
        "identifier": [
          {
            "type": {
              "coding": [
                {
                  "code": "PT",
                  "system": "http://terminology.hl7.org/CodeSystem/v2-0203"
                }
              ]
            },
            "system": "http://ec.europa.eu/identifier/eci",
            "value": "9925-001801-9"
          },
          {
            "type": {
              "coding": [
                {
                  "code": "MR",
                  "system": "http://terminology.hl7.org/CodeSystem/v2-0203"
                }
              ]
            },
            "system": "http://local.setting.eu/identifier",
            "value": "22c2dfd0-ac57-8833-2532-848f180896a4"
          }
        ],
        "name": [
          {
            "family": "Lagarde"
          },
          {
            "given": [
              "Victor"
            ]
          },
          {
            "text": "Victor Lagarde"
          }
        ],
        "address": [
          {
            "line": [
              "avenue Robert"
            ],
            "use": "home",
            "type": "physical",
            "postalCode": "80300",
            "city": "Albert",
            "country": "France"
          }
        ],
        "telecom": [
          {
            "system": "phone",
            "value": "0177941801"
          }
        ],
        "extension": [
          {
            "url": "http://hl7.org/fhir/StructureDefinition/patient-nationality",
            "valueCodeableConcept": {
              "coding": [
                {
                  "code": "FR",
                  "system": "http://hl7.org/fhir/ValueSet/country"
                }
              ]
            }
          }
        ],
        "text": {
          "status": "generated",
          "div": "<div xmlns=\"http://www.w3.org/1999/xhtml\"><table class=\"hl7__ips\"><tr><td>Victor Lagarde</td><td>male</td><td>31-Aug-1939</td></tr></table></div>"
        },
        "gender": "male",
        "birthDate": "1939-08-31"
      }
    },
    {
      "fullUrl": "urn:uuid:33dfcc45-f135-46f0-8bb4-bc48b6c24a31",
      "resource": {
        "resourceType": "ServiceRequest",
        "id": "33dfcc45-f135-46f0-8bb4-bc48b6c24a31",
        "meta": {
          "profile": [
            "http://hl7.eu/fhir/laboratory/StructureDefinition/ServiceRequest-eu-lab"
          ]
        },
        "identifier": [
          {
            "system": "http://example.org",
            "value": "cfca3d48-abf8-49be-837b-ab69d602e4d1"
          }
        ],
        "specimen": [
          {
            "reference": "urn:uuid:5842027b-ef33-42f6-b8f7-67ff62f63ed0"
          },
          {
            "reference": "urn:uuid:8a497037-0ed9-4eeb-8325-18a013d56cdd"
          },
          {
            "reference": "urn:uuid:4d3025a6-f426-4a3a-92d6-5c1fe0d908e6"
          }
        ],
        "reasonCode": [
          {
            "coding": [
              {
                "code": "433144002",
                "system": "http://snomed.info/sct",
                "display": "Chronic kidney disease stage 3"
              }
            ]
          },
          {
            "coding": [
              {
                "code": "157141000119108",
                "system": "http://snomed.info/sct",
                "display": "Proteinuria due to type 2 diabetes mellitus"
              }
            ]
          },
          {
            "coding": [
              {
                "code": "431856006",
                "system": "http://snomed.info/sct",
                "display": "Chronic kidney disease stage 2"
              }
            ]
          },
          {
            "coding": [
              {
                "code": "90781000119102",
                "system": "http://snomed.info/sct",
                "display": "Microalbuminuria due to type 2 diabetes mellitus"
              }
            ]
          },
          {
            "coding": [
              {
                "code": "127013003",
                "system": "http://snomed.info/sct",
                "display": "Disorder of kidney due to diabetes mellitus"
              }
            ]
          },
          {
            "coding": [
              {
                "code": "431855005",
                "system": "http://snomed.info/sct",
                "display": "Chronic kidney disease stage 1"
              }
            ]
          },
          {
            "coding": [
              {
                "code": "55822004",
                "system": "http://snomed.info/sct",
                "display": "Hyperlipidemia"
              }
            ]
          },
          {
            "coding": [
              {
                "code": "59621000",
                "system": "http://snomed.info/sct",
                "display": "Essential hypertension"
              }
            ]
          },
          {
            "coding": [
              {
                "code": "237602007",
                "system": "http://snomed.info/sct",
                "display": "Metabolic syndrome X"
              }
            ]
          },
          {
            "coding": [
              {
                "code": "414545008",
                "system": "http://snomed.info/sct",
                "display": "Ischemic heart disease"
              }
            ]
          },
          {
            "coding": [
              {
                "code": "40055000",
                "system": "http://snomed.info/sct",
                "display": "Chronic sinusitis"
              }
            ]
          },
          {
            "coding": [
              {
                "code": "15777000",
                "system": "http://snomed.info/sct",
                "display": "Prediabetes"
              }
            ]
          },
          {
            "coding": [
              {
                "code": "271737000",
                "system": "http://snomed.info/sct",
                "display": "Anemia"
              }
            ]
          }
        ],
        "status": "active",
        "intent": "order",
        "code": {
          "coding": [
            {
              "code": "108252007",
              "system": "http://snomed.info/sct",
              "display": "Laboratory procedure"
            }
          ]
        },
        "subject": {
          "reference": "urn:uuid:d9210d13-e836-451a-ac80-b89d05a61750",
          "display": "Victor Lagarde"
        },
        "requester": {
          "reference": "urn:uuid:12308935-1c68-427f-b0b0-9733a846ac1d"
        }
      }
    },
    {
      "fullUrl": "urn:uuid:12308935-1c68-427f-b0b0-9733a846ac1d",
      "resource": {
        "resourceType": "PractitionerRole",
        "id": "12308935-1c68-427f-b0b0-9733a846ac1d",
        "meta": {
          "profile": [
            "http://hl7.eu/fhir/base/StructureDefinition/practitionerRole-eu"
          ]
        },
        "text": {
          "status": "generated",
          "div": "<div xmlns=\"http://www.w3.org/1999/xhtml\">Provider Role Id: 12308935-1c68-427f-b0b0-9733a846ac1d</div>"
        },
        "organization": {
          "reference": "urn:uuid:5ddcfe0f-8730-4e55-8a74-06ed66d0f046"
        }
      }
    },
    {
      "fullUrl": "urn:uuid:5ddcfe0f-8730-4e55-8a74-06ed66d0f046",
      "resource": {
        "resourceType": "Organization",
        "id": "5ddcfe0f-8730-4e55-8a74-06ed66d0f046",
        "meta": {
          "profile": [
            "http://hl7.eu/fhir/base/StructureDefinition/organization-eu"
          ]
        },
        "identifier": [
          {
            "assigner": {
              "display": "HL7 Europe"
            },
            "system": "urn:oid:2.16.840.1.113883.2.51.999",
            "value": "89e9da86-845c-4fd6-a88a-7e73ff69225c"
          }
        ],
        "address": [
          {
            "city": "Auxerre",
            "postalCode": "89000",
            "country": "France"
          }
        ],
        "text": {
          "status": "generated",
          "div": "<div xmlns=\"http://www.w3.org/1999/xhtml\">Provider Organization: Thiriot Didier (Cardiologie)</div>"
        },
        "name": "Thiriot Didier (Cardiologie)"
      }
    },
    {
      "fullUrl": "urn:uuid:5842027b-ef33-42f6-b8f7-67ff62f63ed0",
      "resource": {
        "resourceType": "Specimen",
        "id": "5842027b-ef33-42f6-b8f7-67ff62f63ed0",
        "meta": {
          "profile": [
            "http://hl7.eu/fhir/laboratory/StructureDefinition/Specimen-eu-lab"
          ]
        },
        "collection": {
          "collectedDateTime": "2017-01-27"
        },
        "text": {
          "status": "generated",
          "div": "<div xmlns=\"http://www.w3.org/1999/xhtml\"><table class=\"hl7__eu__lab__report\"><tr><th>Specimen</th><th>Collection Date</th></tr><tr><td>Acellular blood (serum or plasma) specimen</td><td><span class=\"nb\">27-Jan-2017</span></td></tr></table></div>"
        },
        "type": {
          "coding": [
            {
              "code": "122592007",
              "system": "http://snomed.info/sct",
              "display": "Acellular blood (serum or plasma) specimen"
            }
          ]
        }
      }
    },
    {
      "fullUrl": "urn:uuid:8a497037-0ed9-4eeb-8325-18a013d56cdd",
      "resource": {
        "resourceType": "Specimen",
        "id": "8a497037-0ed9-4eeb-8325-18a013d56cdd",
        "meta": {
          "profile": [
            "http://hl7.eu/fhir/laboratory/StructureDefinition/Specimen-eu-lab"
          ]
        },
        "collection": {
          "collectedDateTime": "2017-01-27"
        },
        "text": {
          "status": "generated",
          "div": "<div xmlns=\"http://www.w3.org/1999/xhtml\"><table class=\"hl7__eu__lab__report\"><tr><th>Specimen</th><th>Collection Date</th></tr><tr><td>Urine specimen</td><td><span class=\"nb\">27-Jan-2017</span></td></tr></table></div>"
        },
        "type": {
          "coding": [
            {
              "code": "122575003",
              "system": "http://snomed.info/sct",
              "display": "Urine specimen"
            }
          ]
        }
      }
    },
    {
      "fullUrl": "urn:uuid:4d3025a6-f426-4a3a-92d6-5c1fe0d908e6",
      "resource": {
        "resourceType": "Specimen",
        "id": "4d3025a6-f426-4a3a-92d6-5c1fe0d908e6",
        "meta": {
          "profile": [
            "http://hl7.eu/fhir/laboratory/StructureDefinition/Specimen-eu-lab"
          ]
        },
        "collection": {
          "collectedDateTime": "2017-01-27"
        },
        "text": {
          "status": "generated",
          "div": "<div xmlns=\"http://www.w3.org/1999/xhtml\"><table class=\"hl7__eu__lab__report\"><tr><th>Specimen</th><th>Collection Date</th></tr><tr><td>Whole blood specimen (specimen)</td><td><span class=\"nb\">27-Jan-2017</span></td></tr></table></div>"
        },
        "type": {
          "coding": [
            {
              "code": "258580003",
              "system": "http://snomed.info/sct",
              "display": "Whole blood specimen (specimen)"
            }
          ]
        }
      }
    },
    {
      "fullUrl": "urn:uuid:c3765c4e-9561-49fc-9960-c5982d398542",
      "resource": {
        "resourceType": "Observation",
        "id": "c3765c4e-9561-49fc-9960-c5982d398542",
        "meta": {
          "profile": [
            "http://hl7.eu/fhir/laboratory/StructureDefinition/Observation-resultslab-eu-lab"
          ]
        },
        "performer": [
          {
            "display": "The Central European Lab"
          }
        ],
        "category": [
          {
            "coding": [
              {
                "system": "http://terminology.hl7.org/CodeSystem/observation-category",
                "code": "laboratory"
              }
            ]
          }
        ],
        "code": {
          "coding": [
            {
              "code": "2345-7",
              "system": "http://loinc.org",
              "display": "Glucose [Mass/volume] in Serum or Plasma"
            }
          ],
          "text": "Glucose [Mass/volume] in Serum or Plasma"
        },
        "valueQuantity": {
          "system": "http://unitsofmeasure.org",
          "value": 88.5,
          "unit": "mg/dL",
          "code": "mg/dL"
        },
        "referenceRange": [
          {
            "low": {
              "value": 70,
              "code": "mg/dL",
              "system": "http://unitsofmeasure.org"
            }
          },
          {
            "high": {
              "value": 140,
              "code": "mg/dL",
              "system": "http://unitsofmeasure.org"
            }
          }
        ],
        "text": {
          "status": "generated",
          "div": "<div xmlns=\"http://www.w3.org/1999/xhtml\"><table class=\"hl7__eu__lab__report\"><tr><th>Test</th><th>27-Jan-2017</th><th>Reference&#xA0;Range</th><th>Unit</th></tr><tr><td>Glucose [Mass/volume] in Serum or Plasma</td><td>88.5</td><td>70 - 140</td><td></td><td>mg/dL</td></tr></table></div>"
        },
        "status": "final",
        "subject": {
          "reference": "urn:uuid:d9210d13-e836-451a-ac80-b89d05a61750",
          "display": "Victor Lagarde"
        },
        "effectiveDateTime": "2017-01-27T04:48:18Z",
        "specimen": {
          "reference": "urn:uuid:5842027b-ef33-42f6-b8f7-67ff62f63ed0"
        }
      }
    },
    {
      "fullUrl": "urn:uuid:30a94cc4-2115-4e87-bcb2-949a2fa71d96",
      "resource": {
        "resourceType": "Observation",
        "id": "30a94cc4-2115-4e87-bcb2-949a2fa71d96",
        "meta": {
          "profile": [
            "http://hl7.eu/fhir/laboratory/StructureDefinition/Observation-resultslab-eu-lab"
          ]
        },
        "performer": [
          {
            "display": "The Central European Lab"
          }
        ],
        "category": [
          {
            "coding": [
              {
                "system": "http://terminology.hl7.org/CodeSystem/observation-category",
                "code": "laboratory"
              }
            ]
          }
        ],
        "code": {
          "coding": [
            {
              "code": "3094-0",
              "system": "http://loinc.org",
              "display": "Urea nitrogen [Mass/volume] in Serum or Plasma"
            }
          ],
          "text": "Urea nitrogen [Mass/volume] in Serum or Plasma"
        },
        "valueQuantity": {
          "system": "http://unitsofmeasure.org",
          "value": 12.1,
          "unit": "mg/dL",
          "code": "mg/dL"
        },
        "referenceRange": [
          {
            "low": {
              "value": 7,
              "code": "mg/dL",
              "system": "http://unitsofmeasure.org"
            }
          },
          {
            "high": {
              "value": 20,
              "code": "mg/dL",
              "system": "http://unitsofmeasure.org"
            }
          }
        ],
        "text": {
          "status": "generated",
          "div": "<div xmlns=\"http://www.w3.org/1999/xhtml\"><table class=\"hl7__eu__lab__report\"><tr><th>Test</th><th>27-Jan-2017</th><th>Reference&#xA0;Range</th><th>Unit</th></tr><tr><td>Urea nitrogen [Mass/volume] in Serum or Plasma</td><td>12.1</td><td>7 - 20</td><td></td><td>mg/dL</td></tr></table></div>"
        },
        "status": "final",
        "subject": {
          "reference": "urn:uuid:d9210d13-e836-451a-ac80-b89d05a61750",
          "display": "Victor Lagarde"
        },
        "effectiveDateTime": "2017-01-27T04:48:18Z",
        "specimen": {
          "reference": "urn:uuid:5842027b-ef33-42f6-b8f7-67ff62f63ed0"
        }
      }
    },
    {
      "fullUrl": "urn:uuid:04cba561-2941-4923-b981-a11104845a1f",
      "resource": {
        "resourceType": "Observation",
        "id": "04cba561-2941-4923-b981-a11104845a1f",
        "meta": {
          "profile": [
            "http://hl7.eu/fhir/laboratory/StructureDefinition/Observation-resultslab-eu-lab"
          ]
        },
        "performer": [
          {
            "display": "The Central European Lab"
          }
        ],
        "category": [
          {
            "coding": [
              {
                "system": "http://terminology.hl7.org/CodeSystem/observation-category",
                "code": "laboratory"
              }
            ]
          }
        ],
        "code": {
          "coding": [
            {
              "code": "2160-0",
              "system": "http://loinc.org",
              "display": "Creatinine [Mass/volume] in Serum or Plasma"
            }
          ],
          "text": "Creatinine [Mass/volume] in Serum or Plasma"
        },
        "valueQuantity": {
          "system": "http://unitsofmeasure.org",
          "value": 1.9,
          "unit": "mg/dL",
          "code": "mg/dL"
        },
        "referenceRange": [
          {
            "low": {
              "value": 0.9,
              "code": "mg/dL",
              "system": "http://unitsofmeasure.org"
            }
          },
          {
            "high": {
              "value": 1.3,
              "code": "mg/dL",
              "system": "http://unitsofmeasure.org"
            }
          }
        ],
        "interpretation": [
          {
            "coding": [
              {
                "code": "H",
                "system": "http://terminology.hl7.org/CodeSystem/v3-ObservationInterpretation",
                "display": "High"
              }
            ]
          }
        ],
        "text": {
          "status": "generated",
          "div": "<div xmlns=\"http://www.w3.org/1999/xhtml\"><table class=\"hl7__eu__lab__report\"><tr><th>Test</th><th>27-Jan-2017</th><th>Reference&#xA0;Range</th><th>Unit</th></tr><tr><td>Creatinine [Mass/volume] in Serum or Plasma</td><td>1.9</td><td>0.9 - 1.3</td><td>H</td><td>mg/dL</td></tr></table></div>"
        },
        "status": "final",
        "subject": {
          "reference": "urn:uuid:d9210d13-e836-451a-ac80-b89d05a61750",
          "display": "Victor Lagarde"
        },
        "effectiveDateTime": "2017-01-27T04:48:18Z",
        "specimen": {
          "reference": "urn:uuid:5842027b-ef33-42f6-b8f7-67ff62f63ed0"
        }
      }
    },
    {
      "fullUrl": "urn:uuid:f449a3dd-5ee2-46eb-abfe-5a8d5623996d",
      "resource": {
        "resourceType": "Observation",
        "id": "f449a3dd-5ee2-46eb-abfe-5a8d5623996d",
        "meta": {
          "profile": [
            "http://hl7.eu/fhir/laboratory/StructureDefinition/Observation-resultslab-eu-lab"
          ]
        },
        "performer": [
          {
            "display": "The Central European Lab"
          }
        ],
        "category": [
          {
            "coding": [
              {
                "system": "http://terminology.hl7.org/CodeSystem/observation-category",
                "code": "laboratory"
              }
            ]
          }
        ],
        "code": {
          "coding": [
            {
              "code": "17861-6",
              "system": "http://loinc.org",
              "display": "Calcium [Mass/volume] in Serum or Plasma"
            }
          ],
          "text": "Calcium [Mass/volume] in Serum or Plasma"
        },
        "valueQuantity": {
          "system": "http://unitsofmeasure.org",
          "value": 9.6,
          "unit": "mg/dL",
          "code": "mg/dL"
        },
        "referenceRange": [
          {
            "low": {
              "value": 8.5,
              "code": "mg/dL",
              "system": "http://unitsofmeasure.org"
            }
          },
          {
            "high": {
              "value": 10.5,
              "code": "mg/dL",
              "system": "http://unitsofmeasure.org"
            }
          }
        ],
        "text": {
          "status": "generated",
          "div": "<div xmlns=\"http://www.w3.org/1999/xhtml\"><table class=\"hl7__eu__lab__report\"><tr><th>Test</th><th>27-Jan-2017</th><th>Reference&#xA0;Range</th><th>Unit</th></tr><tr><td>Calcium [Mass/volume] in Serum or Plasma</td><td>9.6</td><td>8.5 - 10.5</td><td></td><td>mg/dL</td></tr></table></div>"
        },
        "status": "final",
        "subject": {
          "reference": "urn:uuid:d9210d13-e836-451a-ac80-b89d05a61750",
          "display": "Victor Lagarde"
        },
        "effectiveDateTime": "2017-01-27T04:48:18Z",
        "specimen": {
          "reference": "urn:uuid:5842027b-ef33-42f6-b8f7-67ff62f63ed0"
        }
      }
    },
    {
      "fullUrl": "urn:uuid:2b747988-92e0-4013-8925-5947498f7923",
      "resource": {
        "resourceType": "Observation",
        "id": "2b747988-92e0-4013-8925-5947498f7923",
        "meta": {
          "profile": [
            "http://hl7.eu/fhir/laboratory/StructureDefinition/Observation-resultslab-eu-lab"
          ]
        },
        "performer": [
          {
            "display": "The Central European Lab"
          }
        ],
        "category": [
          {
            "coding": [
              {
                "system": "http://terminology.hl7.org/CodeSystem/observation-category",
                "code": "laboratory"
              }
            ]
          }
        ],
        "code": {
          "coding": [
            {
              "code": "2951-2",
              "system": "http://loinc.org",
              "display": "Sodium [Moles/volume] in Serum or Plasma"
            }
          ],
          "text": "Sodium [Moles/volume] in Serum or Plasma"
        },
        "valueQuantity": {
          "system": "http://unitsofmeasure.org",
          "value": 140.9,
          "unit": "mmol/L",
          "code": "mmol/L"
        },
        "referenceRange": [
          {
            "low": {
              "value": 135,
              "code": "mmol/L",
              "system": "http://unitsofmeasure.org"
            }
          },
          {
            "high": {
              "value": 145,
              "code": "mmol/L",
              "system": "http://unitsofmeasure.org"
            }
          }
        ],
        "text": {
          "status": "generated",
          "div": "<div xmlns=\"http://www.w3.org/1999/xhtml\"><table class=\"hl7__eu__lab__report\"><tr><th>Test</th><th>27-Jan-2017</th><th>Reference&#xA0;Range</th><th>Unit</th></tr><tr><td>Sodium [Moles/volume] in Serum or Plasma</td><td>140.9</td><td>135 - 145</td><td></td><td>mmol/L</td></tr></table></div>"
        },
        "status": "final",
        "subject": {
          "reference": "urn:uuid:d9210d13-e836-451a-ac80-b89d05a61750",
          "display": "Victor Lagarde"
        },
        "effectiveDateTime": "2017-01-27T04:48:18Z",
        "specimen": {
          "reference": "urn:uuid:5842027b-ef33-42f6-b8f7-67ff62f63ed0"
        }
      }
    },
    {
      "fullUrl": "urn:uuid:3a13436f-270e-4b52-a7e5-398fd6b3a08f",
      "resource": {
        "resourceType": "Observation",
        "id": "3a13436f-270e-4b52-a7e5-398fd6b3a08f",
        "meta": {
          "profile": [
            "http://hl7.eu/fhir/laboratory/StructureDefinition/Observation-resultslab-eu-lab"
          ]
        },
        "performer": [
          {
            "display": "The Central European Lab"
          }
        ],
        "category": [
          {
            "coding": [
              {
                "system": "http://terminology.hl7.org/CodeSystem/observation-category",
                "code": "laboratory"
              }
            ]
          }
        ],
        "code": {
          "coding": [
            {
              "code": "2823-3",
              "system": "http://loinc.org",
              "display": "Potassium [Moles/volume] in Serum or Plasma"
            }
          ],
          "text": "Potassium [Moles/volume] in Serum or Plasma"
        },
        "valueQuantity": {
          "system": "http://unitsofmeasure.org",
          "value": 5,
          "unit": "mmol/L",
          "code": "mmol/L"
        },
        "referenceRange": [
          {
            "low": {
              "value": 3.5,
              "code": "mmol/L",
              "system": "http://unitsofmeasure.org"
            }
          },
          {
            "high": {
              "value": 5.3,
              "code": "mmol/L",
              "system": "http://unitsofmeasure.org"
            }
          }
        ],
        "text": {
          "status": "generated",
          "div": "<div xmlns=\"http://www.w3.org/1999/xhtml\"><table class=\"hl7__eu__lab__report\"><tr><th>Test</th><th>27-Jan-2017</th><th>Reference&#xA0;Range</th><th>Unit</th></tr><tr><td>Potassium [Moles/volume] in Serum or Plasma</td><td>5.0</td><td>3.5 - 5.3</td><td></td><td>mmol/L</td></tr></table></div>"
        },
        "status": "final",
        "subject": {
          "reference": "urn:uuid:d9210d13-e836-451a-ac80-b89d05a61750",
          "display": "Victor Lagarde"
        },
        "effectiveDateTime": "2017-01-27T04:48:18Z",
        "specimen": {
          "reference": "urn:uuid:5842027b-ef33-42f6-b8f7-67ff62f63ed0"
        }
      }
    },
    {
      "fullUrl": "urn:uuid:9cdc8477-b8bd-4456-a715-44226806d464",
      "resource": {
        "resourceType": "Observation",
        "id": "9cdc8477-b8bd-4456-a715-44226806d464",
        "meta": {
          "profile": [
            "http://hl7.eu/fhir/laboratory/StructureDefinition/Observation-resultslab-eu-lab"
          ]
        },
        "performer": [
          {
            "display": "The Central European Lab"
          }
        ],
        "category": [
          {
            "coding": [
              {
                "system": "http://terminology.hl7.org/CodeSystem/observation-category",
                "code": "laboratory"
              }
            ]
          }
        ],
        "code": {
          "coding": [
            {
              "code": "2075-0",
              "system": "http://loinc.org",
              "display": "Chloride [Moles/volume] in Serum or Plasma"
            }
          ],
          "text": "Chloride [Moles/volume] in Serum or Plasma"
        },
        "valueQuantity": {
          "system": "http://unitsofmeasure.org",
          "value": 109,
          "unit": "mmol/L",
          "code": "mmol/L"
        },
        "referenceRange": [
          {
            "low": {
              "value": 98,
              "code": "mmol/L",
              "system": "http://unitsofmeasure.org"
            }
          },
          {
            "high": {
              "value": 107,
              "code": "mmol/L",
              "system": "http://unitsofmeasure.org"
            }
          }
        ],
        "interpretation": [
          {
            "coding": [
              {
                "code": "H",
                "system": "http://terminology.hl7.org/CodeSystem/v3-ObservationInterpretation",
                "display": "High"
              }
            ]
          }
        ],
        "text": {
          "status": "generated",
          "div": "<div xmlns=\"http://www.w3.org/1999/xhtml\"><table class=\"hl7__eu__lab__report\"><tr><th>Test</th><th>27-Jan-2017</th><th>Reference&#xA0;Range</th><th>Unit</th></tr><tr><td>Chloride [Moles/volume] in Serum or Plasma</td><td>109.0</td><td>98 - 107</td><td>H</td><td>mmol/L</td></tr></table></div>"
        },
        "status": "final",
        "subject": {
          "reference": "urn:uuid:d9210d13-e836-451a-ac80-b89d05a61750",
          "display": "Victor Lagarde"
        },
        "effectiveDateTime": "2017-01-27T04:48:18Z",
        "specimen": {
          "reference": "urn:uuid:5842027b-ef33-42f6-b8f7-67ff62f63ed0"
        }
      }
    },
    {
      "fullUrl": "urn:uuid:d8f6c62d-50dd-470e-85af-acb121c28018",
      "resource": {
        "resourceType": "Observation",
        "id": "d8f6c62d-50dd-470e-85af-acb121c28018",
        "meta": {
          "profile": [
            "http://hl7.eu/fhir/laboratory/StructureDefinition/Observation-resultslab-eu-lab"
          ]
        },
        "performer": [
          {
            "display": "The Central European Lab"
          }
        ],
        "category": [
          {
            "coding": [
              {
                "system": "http://terminology.hl7.org/CodeSystem/observation-category",
                "code": "laboratory"
              }
            ]
          }
        ],
        "code": {
          "coding": [
            {
              "code": "2028-9",
              "system": "http://loinc.org",
              "display": "Carbon dioxide, total [Moles/volume] in Serum or Plasma"
            }
          ],
          "text": "Carbon dioxide, total [Moles/volume] in Serum or Plasma"
        },
        "valueQuantity": {
          "system": "http://unitsofmeasure.org",
          "value": 26,
          "unit": "mmol/L",
          "code": "mmol/L"
        },
        "referenceRange": [
          {
            "low": {
              "value": 22,
              "code": "mmol/L",
              "system": "http://unitsofmeasure.org"
            }
          },
          {
            "high": {
              "value": 33,
              "code": "mmol/L",
              "system": "http://unitsofmeasure.org"
            }
          }
        ],
        "text": {
          "status": "generated",
          "div": "<div xmlns=\"http://www.w3.org/1999/xhtml\"><table class=\"hl7__eu__lab__report\"><tr><th>Test</th><th>27-Jan-2017</th><th>Reference&#xA0;Range</th><th>Unit</th></tr><tr><td>Carbon dioxide, total [Moles/volume] in Serum or Plasma</td><td>26.0</td><td>22 - 33</td><td></td><td>mmol/L</td></tr></table></div>"
        },
        "status": "final",
        "subject": {
          "reference": "urn:uuid:d9210d13-e836-451a-ac80-b89d05a61750",
          "display": "Victor Lagarde"
        },
        "effectiveDateTime": "2017-01-27T04:48:18Z",
        "specimen": {
          "reference": "urn:uuid:5842027b-ef33-42f6-b8f7-67ff62f63ed0"
        }
      }
    },
    {
      "fullUrl": "urn:uuid:2c2670d4-44ff-4c83-9d5d-7e2e32752751",
      "resource": {
        "resourceType": "Observation",
        "id": "2c2670d4-44ff-4c83-9d5d-7e2e32752751",
        "meta": {
          "profile": [
            "http://hl7.eu/fhir/laboratory/StructureDefinition/Observation-resultslab-eu-lab"
          ]
        },
        "performer": [
          {
            "display": "The Central European Lab"
          }
        ],
        "category": [
          {
            "coding": [
              {
                "system": "http://terminology.hl7.org/CodeSystem/observation-category",
                "code": "laboratory"
              }
            ]
          }
        ],
        "code": {
          "coding": [
            {
              "code": "5767-9",
              "system": "http://loinc.org",
              "display": "Appearance of Urine"
            }
          ],
          "text": "Appearance of Urine"
        },
        "text": {
          "status": "generated",
          "div": "<div xmlns=\"http://www.w3.org/1999/xhtml\"><table class=\"hl7__eu__lab__report\"><tr><th>Test</th><th>27-Jan-2017</th><th>Reference&#xA0;Range</th><th>Unit</th></tr><tr><td>Appearance of Urine</td></tr></table></div>"
        },
        "status": "final",
        "subject": {
          "reference": "urn:uuid:d9210d13-e836-451a-ac80-b89d05a61750",
          "display": "Victor Lagarde"
        },
        "effectiveDateTime": "2017-01-27T04:48:18Z",
        "specimen": {
          "reference": "urn:uuid:8a497037-0ed9-4eeb-8325-18a013d56cdd"
        }
      }
    },
    {
      "fullUrl": "urn:uuid:7d8e14db-88c1-4f75-aed3-3c9abb1ec1de",
      "resource": {
        "resourceType": "Observation",
        "id": "7d8e14db-88c1-4f75-aed3-3c9abb1ec1de",
        "meta": {
          "profile": [
            "http://hl7.eu/fhir/laboratory/StructureDefinition/Observation-resultslab-eu-lab"
          ]
        },
        "performer": [
          {
            "display": "The Central European Lab"
          }
        ],
        "category": [
          {
            "coding": [
              {
                "system": "http://terminology.hl7.org/CodeSystem/observation-category",
                "code": "laboratory"
              }
            ]
          }
        ],
        "code": {
          "coding": [
            {
              "code": "34533-0",
              "system": "http://loinc.org",
              "display": "Odor of Urine"
            }
          ],
          "text": "Odor of Urine"
        },
        "text": {
          "status": "generated",
          "div": "<div xmlns=\"http://www.w3.org/1999/xhtml\"><table class=\"hl7__eu__lab__report\"><tr><th>Test</th><th>27-Jan-2017</th><th>Reference&#xA0;Range</th><th>Unit</th></tr><tr><td>Odor of Urine</td></tr></table></div>"
        },
        "status": "final",
        "subject": {
          "reference": "urn:uuid:d9210d13-e836-451a-ac80-b89d05a61750",
          "display": "Victor Lagarde"
        },
        "effectiveDateTime": "2017-01-27T04:48:18Z",
        "specimen": {
          "reference": "urn:uuid:8a497037-0ed9-4eeb-8325-18a013d56cdd"
        }
      }
    },
    {
      "fullUrl": "urn:uuid:8ffca5bb-458b-4b96-be53-8b7685f3e51c",
      "resource": {
        "resourceType": "Observation",
        "id": "8ffca5bb-458b-4b96-be53-8b7685f3e51c",
        "meta": {
          "profile": [
            "http://hl7.eu/fhir/laboratory/StructureDefinition/Observation-resultslab-eu-lab"
          ]
        },
        "performer": [
          {
            "display": "The Central European Lab"
          }
        ],
        "category": [
          {
            "coding": [
              {
                "system": "http://terminology.hl7.org/CodeSystem/observation-category",
                "code": "laboratory"
              }
            ]
          }
        ],
        "code": {
          "coding": [
            {
              "code": "32167-9",
              "system": "http://loinc.org",
              "display": "Clarity of Urine"
            }
          ],
          "text": "Clarity of Urine"
        },
        "text": {
          "status": "generated",
          "div": "<div xmlns=\"http://www.w3.org/1999/xhtml\"><table class=\"hl7__eu__lab__report\"><tr><th>Test</th><th>27-Jan-2017</th><th>Reference&#xA0;Range</th><th>Unit</th></tr><tr><td>Clarity of Urine</td></tr></table></div>"
        },
        "status": "final",
        "subject": {
          "reference": "urn:uuid:d9210d13-e836-451a-ac80-b89d05a61750",
          "display": "Victor Lagarde"
        },
        "effectiveDateTime": "2017-01-27T04:48:18Z",
        "specimen": {
          "reference": "urn:uuid:8a497037-0ed9-4eeb-8325-18a013d56cdd"
        }
      }
    },
    {
      "fullUrl": "urn:uuid:dfa9ed1f-5690-4ea7-8f8c-01278d2c0f1c",
      "resource": {
        "resourceType": "Observation",
        "id": "dfa9ed1f-5690-4ea7-8f8c-01278d2c0f1c",
        "meta": {
          "profile": [
            "http://hl7.eu/fhir/laboratory/StructureDefinition/Observation-resultslab-eu-lab"
          ]
        },
        "performer": [
          {
            "display": "The Central European Lab"
          }
        ],
        "category": [
          {
            "coding": [
              {
                "system": "http://terminology.hl7.org/CodeSystem/observation-category",
                "code": "laboratory"
              }
            ]
          }
        ],
        "code": {
          "coding": [
            {
              "code": "5778-6",
              "system": "http://loinc.org",
              "display": "Color of Urine"
            }
          ],
          "text": "Color of Urine"
        },
        "text": {
          "status": "generated",
          "div": "<div xmlns=\"http://www.w3.org/1999/xhtml\"><table class=\"hl7__eu__lab__report\"><tr><th>Test</th><th>27-Jan-2017</th><th>Reference&#xA0;Range</th><th>Unit</th></tr><tr><td>Color of Urine</td></tr></table></div>"
        },
        "status": "final",
        "subject": {
          "reference": "urn:uuid:d9210d13-e836-451a-ac80-b89d05a61750",
          "display": "Victor Lagarde"
        },
        "effectiveDateTime": "2017-01-27T04:48:18Z",
        "specimen": {
          "reference": "urn:uuid:8a497037-0ed9-4eeb-8325-18a013d56cdd"
        }
      }
    },
    {
      "fullUrl": "urn:uuid:1fb99abc-4556-42fd-8d10-44c0b6c8fb7a",
      "resource": {
        "resourceType": "Observation",
        "id": "1fb99abc-4556-42fd-8d10-44c0b6c8fb7a",
        "meta": {
          "profile": [
            "http://hl7.eu/fhir/laboratory/StructureDefinition/Observation-resultslab-eu-lab"
          ]
        },
        "performer": [
          {
            "display": "The Central European Lab"
          }
        ],
        "category": [
          {
            "coding": [
              {
                "system": "http://terminology.hl7.org/CodeSystem/observation-category",
                "code": "laboratory"
              }
            ]
          }
        ],
        "code": {
          "coding": [
            {
              "code": "5792-7",
              "system": "http://loinc.org",
              "display": "Glucose [Mass/volume] in Urine by Test strip"
            }
          ],
          "text": "Glucose [Mass/volume] in Urine by Test strip"
        },
        "valueQuantity": {
          "system": "http://unitsofmeasure.org",
          "value": 0.7,
          "unit": "mg/dL",
          "code": "mg/dL"
        },
        "referenceRange": [
          {
            "low": {
              "value": 0,
              "code": "mg/dL",
              "system": "http://unitsofmeasure.org"
            }
          },
          {
            "high": {
              "value": 0.8,
              "code": "mg/dL",
              "system": "http://unitsofmeasure.org"
            }
          }
        ],
        "text": {
          "status": "generated",
          "div": "<div xmlns=\"http://www.w3.org/1999/xhtml\"><table class=\"hl7__eu__lab__report\"><tr><th>Test</th><th>27-Jan-2017</th><th>Reference&#xA0;Range</th><th>Unit</th></tr><tr><td>Glucose [Mass/volume] in Urine by Test strip</td><td>0.7</td><td>0 - 0.8</td><td></td><td>mg/dL</td></tr></table></div>"
        },
        "status": "final",
        "subject": {
          "reference": "urn:uuid:d9210d13-e836-451a-ac80-b89d05a61750",
          "display": "Victor Lagarde"
        },
        "effectiveDateTime": "2017-01-27T04:48:18Z",
        "specimen": {
          "reference": "urn:uuid:8a497037-0ed9-4eeb-8325-18a013d56cdd"
        }
      }
    },
    {
      "fullUrl": "urn:uuid:e6c72d60-3031-4167-b729-9ecceea7c0a2",
      "resource": {
        "resourceType": "Observation",
        "id": "e6c72d60-3031-4167-b729-9ecceea7c0a2",
        "meta": {
          "profile": [
            "http://hl7.eu/fhir/laboratory/StructureDefinition/Observation-resultslab-eu-lab"
          ]
        },
        "performer": [
          {
            "display": "The Central European Lab"
          }
        ],
        "category": [
          {
            "coding": [
              {
                "system": "http://terminology.hl7.org/CodeSystem/observation-category",
                "code": "laboratory"
              }
            ]
          }
        ],
        "code": {
          "coding": [
            {
              "code": "25428-4",
              "system": "http://loinc.org",
              "display": "Glucose [Presence] in Urine by Test strip"
            }
          ],
          "text": "Glucose [Presence] in Urine by Test strip"
        },
        "text": {
          "status": "generated",
          "div": "<div xmlns=\"http://www.w3.org/1999/xhtml\"><table class=\"hl7__eu__lab__report\"><tr><th>Test</th><th>27-Jan-2017</th><th>Reference&#xA0;Range</th><th>Unit</th></tr><tr><td>Glucose [Presence] in Urine by Test strip</td></tr></table></div>"
        },
        "status": "final",
        "subject": {
          "reference": "urn:uuid:d9210d13-e836-451a-ac80-b89d05a61750",
          "display": "Victor Lagarde"
        },
        "effectiveDateTime": "2017-01-27T04:48:18Z",
        "specimen": {
          "reference": "urn:uuid:8a497037-0ed9-4eeb-8325-18a013d56cdd"
        }
      }
    },
    {
      "fullUrl": "urn:uuid:2dbc5f8e-d575-4eb7-8735-f5353b79f21d",
      "resource": {
        "resourceType": "Observation",
        "id": "2dbc5f8e-d575-4eb7-8735-f5353b79f21d",
        "meta": {
          "profile": [
            "http://hl7.eu/fhir/laboratory/StructureDefinition/Observation-resultslab-eu-lab"
          ]
        },
        "performer": [
          {
            "display": "The Central European Lab"
          }
        ],
        "category": [
          {
            "coding": [
              {
                "system": "http://terminology.hl7.org/CodeSystem/observation-category",
                "code": "laboratory"
              }
            ]
          }
        ],
        "code": {
          "coding": [
            {
              "code": "20505-4",
              "system": "http://loinc.org",
              "display": "Bilirubin.total [Mass/volume] in Urine by Test strip"
            }
          ],
          "text": "Bilirubin.total [Mass/volume] in Urine by Test strip"
        },
        "valueQuantity": {
          "system": "http://unitsofmeasure.org",
          "value": 0.2,
          "unit": "mg/dL",
          "code": "mg/dL"
        },
        "referenceRange": [
          {
            "low": {
              "value": 0,
              "code": "mg/dL",
              "system": "http://unitsofmeasure.org"
            }
          },
          {
            "high": {
              "value": 1.9,
              "code": "mg/dL",
              "system": "http://unitsofmeasure.org"
            }
          }
        ],
        "text": {
          "status": "generated",
          "div": "<div xmlns=\"http://www.w3.org/1999/xhtml\"><table class=\"hl7__eu__lab__report\"><tr><th>Test</th><th>27-Jan-2017</th><th>Reference&#xA0;Range</th><th>Unit</th></tr><tr><td>Bilirubin.total [Mass/volume] in Urine by Test strip</td><td>0.2</td><td>0 - 1.9</td><td></td><td>mg/dL</td></tr></table></div>"
        },
        "status": "final",
        "subject": {
          "reference": "urn:uuid:d9210d13-e836-451a-ac80-b89d05a61750",
          "display": "Victor Lagarde"
        },
        "effectiveDateTime": "2017-01-27T04:48:18Z",
        "specimen": {
          "reference": "urn:uuid:8a497037-0ed9-4eeb-8325-18a013d56cdd"
        }
      }
    },
    {
      "fullUrl": "urn:uuid:addf582d-1253-45bf-b896-73e2660f91cc",
      "resource": {
        "resourceType": "Observation",
        "id": "addf582d-1253-45bf-b896-73e2660f91cc",
        "meta": {
          "profile": [
            "http://hl7.eu/fhir/laboratory/StructureDefinition/Observation-resultslab-eu-lab"
          ]
        },
        "performer": [
          {
            "display": "The Central European Lab"
          }
        ],
        "category": [
          {
            "coding": [
              {
                "system": "http://terminology.hl7.org/CodeSystem/observation-category",
                "code": "laboratory"
              }
            ]
          }
        ],
        "code": {
          "coding": [
            {
              "code": "5770-3",
              "system": "http://loinc.org",
              "display": "Bilirubin.total [Presence] in Urine by Test strip"
            }
          ],
          "text": "Bilirubin.total [Presence] in Urine by Test strip"
        },
        "text": {
          "status": "generated",
          "div": "<div xmlns=\"http://www.w3.org/1999/xhtml\"><table class=\"hl7__eu__lab__report\"><tr><th>Test</th><th>27-Jan-2017</th><th>Reference&#xA0;Range</th><th>Unit</th></tr><tr><td>Bilirubin.total [Presence] in Urine by Test strip</td></tr></table></div>"
        },
        "status": "final",
        "subject": {
          "reference": "urn:uuid:d9210d13-e836-451a-ac80-b89d05a61750",
          "display": "Victor Lagarde"
        },
        "effectiveDateTime": "2017-01-27T04:48:18Z",
        "specimen": {
          "reference": "urn:uuid:8a497037-0ed9-4eeb-8325-18a013d56cdd"
        }
      }
    },
    {
      "fullUrl": "urn:uuid:f1c2d3af-0cf6-475c-8fdd-abd19dd3098e",
      "resource": {
        "resourceType": "Observation",
        "id": "f1c2d3af-0cf6-475c-8fdd-abd19dd3098e",
        "meta": {
          "profile": [
            "http://hl7.eu/fhir/laboratory/StructureDefinition/Observation-resultslab-eu-lab"
          ]
        },
        "performer": [
          {
            "display": "The Central European Lab"
          }
        ],
        "category": [
          {
            "coding": [
              {
                "system": "http://terminology.hl7.org/CodeSystem/observation-category",
                "code": "laboratory"
              }
            ]
          }
        ],
        "code": {
          "coding": [
            {
              "code": "5797-6",
              "system": "http://loinc.org",
              "display": "Ketones [Mass/volume] in Urine by Test strip"
            }
          ],
          "text": "Ketones [Mass/volume] in Urine by Test strip"
        },
        "valueQuantity": {
          "system": "http://unitsofmeasure.org",
          "value": 10.5,
          "unit": "mg/dL",
          "code": "mg/dL"
        },
        "referenceRange": [
          {
            "low": {
              "value": 0,
              "code": "mg/dL",
              "system": "http://unitsofmeasure.org"
            }
          },
          {
            "high": {
              "value": 3,
              "code": "mg/dL",
              "system": "http://unitsofmeasure.org"
            }
          }
        ],
        "interpretation": [
          {
            "coding": [
              {
                "code": "H",
                "system": "http://terminology.hl7.org/CodeSystem/v3-ObservationInterpretation",
                "display": "High"
              }
            ]
          }
        ],
        "text": {
          "status": "generated",
          "div": "<div xmlns=\"http://www.w3.org/1999/xhtml\"><table class=\"hl7__eu__lab__report\"><tr><th>Test</th><th>27-Jan-2017</th><th>Reference&#xA0;Range</th><th>Unit</th></tr><tr><td>Ketones [Mass/volume] in Urine by Test strip</td><td>10.5</td><td>0 - 3</td><td>H</td><td>mg/dL</td></tr></table></div>"
        },
        "status": "final",
        "subject": {
          "reference": "urn:uuid:d9210d13-e836-451a-ac80-b89d05a61750",
          "display": "Victor Lagarde"
        },
        "effectiveDateTime": "2017-01-27T04:48:18Z",
        "specimen": {
          "reference": "urn:uuid:8a497037-0ed9-4eeb-8325-18a013d56cdd"
        }
      }
    },
    {
      "fullUrl": "urn:uuid:630154e5-73c2-4208-9001-d1e870e24528",
      "resource": {
        "resourceType": "Observation",
        "id": "630154e5-73c2-4208-9001-d1e870e24528",
        "meta": {
          "profile": [
            "http://hl7.eu/fhir/laboratory/StructureDefinition/Observation-resultslab-eu-lab"
          ]
        },
        "performer": [
          {
            "display": "The Central European Lab"
          }
        ],
        "category": [
          {
            "coding": [
              {
                "system": "http://terminology.hl7.org/CodeSystem/observation-category",
                "code": "laboratory"
              }
            ]
          }
        ],
        "code": {
          "coding": [
            {
              "code": "2514-8",
              "system": "http://loinc.org",
              "display": "Ketones [Presence] in Urine by Test strip"
            }
          ],
          "text": "Ketones [Presence] in Urine by Test strip"
        },
        "text": {
          "status": "generated",
          "div": "<div xmlns=\"http://www.w3.org/1999/xhtml\"><table class=\"hl7__eu__lab__report\"><tr><th>Test</th><th>27-Jan-2017</th><th>Reference&#xA0;Range</th><th>Unit</th></tr><tr><td>Ketones [Presence] in Urine by Test strip</td></tr></table></div>"
        },
        "status": "final",
        "subject": {
          "reference": "urn:uuid:d9210d13-e836-451a-ac80-b89d05a61750",
          "display": "Victor Lagarde"
        },
        "effectiveDateTime": "2017-01-27T04:48:18Z",
        "specimen": {
          "reference": "urn:uuid:8a497037-0ed9-4eeb-8325-18a013d56cdd"
        }
      }
    },
    {
      "fullUrl": "urn:uuid:3ca97dd0-7eb6-4df2-8949-76ba26d2ed0e",
      "resource": {
        "resourceType": "Observation",
        "id": "3ca97dd0-7eb6-4df2-8949-76ba26d2ed0e",
        "meta": {
          "profile": [
            "http://hl7.eu/fhir/laboratory/StructureDefinition/Observation-resultslab-eu-lab"
          ]
        },
        "performer": [
          {
            "display": "The Central European Lab"
          }
        ],
        "category": [
          {
            "coding": [
              {
                "system": "http://terminology.hl7.org/CodeSystem/observation-category",
                "code": "laboratory"
              }
            ]
          }
        ],
        "code": {
          "coding": [
            {
              "code": "5811-5",
              "system": "http://loinc.org",
              "display": "Specific gravity of Urine by Test strip"
            }
          ],
          "text": "Specific gravity of Urine by Test strip"
        },
        "valueQuantity": {
          "system": "http://unitsofmeasure.org",
          "value": 1,
          "unit": "{nominal}",
          "code": "{nominal}"
        },
        "referenceRange": [
          {
            "low": {
              "value": 1.01,
              "code": "g/mL",
              "system": "http://unitsofmeasure.org"
            }
          },
          {
            "high": {
              "value": 1.03,
              "code": "g/mL",
              "system": "http://unitsofmeasure.org"
            }
          }
        ],
        "interpretation": [
          {
            "coding": [
              {
                "code": "L",
                "system": "http://terminology.hl7.org/CodeSystem/v3-ObservationInterpretation",
                "display": "Low"
              }
            ]
          }
        ],
        "text": {
          "status": "generated",
          "div": "<div xmlns=\"http://www.w3.org/1999/xhtml\"><table class=\"hl7__eu__lab__report\"><tr><th>Test</th><th>27-Jan-2017</th><th>Reference&#xA0;Range</th><th>Unit</th></tr><tr><td>Specific gravity of Urine by Test strip</td><td>1.0</td><td>1.01 - 1.03</td><td>L</td><td>{nominal}</td></tr></table></div>"
        },
        "status": "final",
        "subject": {
          "reference": "urn:uuid:d9210d13-e836-451a-ac80-b89d05a61750",
          "display": "Victor Lagarde"
        },
        "effectiveDateTime": "2017-01-27T04:48:18Z",
        "specimen": {
          "reference": "urn:uuid:8a497037-0ed9-4eeb-8325-18a013d56cdd"
        }
      }
    },
    {
      "fullUrl": "urn:uuid:9ac1ab09-0933-4fea-bf37-250490e49b07",
      "resource": {
        "resourceType": "Observation",
        "id": "9ac1ab09-0933-4fea-bf37-250490e49b07",
        "meta": {
          "profile": [
            "http://hl7.eu/fhir/laboratory/StructureDefinition/Observation-resultslab-eu-lab"
          ]
        },
        "performer": [
          {
            "display": "The Central European Lab"
          }
        ],
        "category": [
          {
            "coding": [
              {
                "system": "http://terminology.hl7.org/CodeSystem/observation-category",
                "code": "laboratory"
              }
            ]
          }
        ],
        "code": {
          "coding": [
            {
              "code": "5803-2",
              "system": "http://loinc.org",
              "display": "pH of Urine by Test strip"
            }
          ],
          "text": "pH of Urine by Test strip"
        },
        "valueQuantity": {
          "system": "http://unitsofmeasure.org",
          "value": 6.9,
          "unit": "pH",
          "code": "pH"
        },
        "referenceRange": [
          {
            "low": {
              "value": 4.5,
              "code": "pH",
              "system": "http://unitsofmeasure.org"
            }
          },
          {
            "high": {
              "value": 7.5,
              "code": "pH",
              "system": "http://unitsofmeasure.org"
            }
          }
        ],
        "text": {
          "status": "generated",
          "div": "<div xmlns=\"http://www.w3.org/1999/xhtml\"><table class=\"hl7__eu__lab__report\"><tr><th>Test</th><th>27-Jan-2017</th><th>Reference&#xA0;Range</th><th>Unit</th></tr><tr><td>pH of Urine by Test strip</td><td>6.9</td><td>4.5 - 7.5</td><td></td><td>pH</td></tr></table></div>"
        },
        "status": "final",
        "subject": {
          "reference": "urn:uuid:d9210d13-e836-451a-ac80-b89d05a61750",
          "display": "Victor Lagarde"
        },
        "effectiveDateTime": "2017-01-27T04:48:18Z",
        "specimen": {
          "reference": "urn:uuid:8a497037-0ed9-4eeb-8325-18a013d56cdd"
        }
      }
    },
    {
      "fullUrl": "urn:uuid:4a60d33d-4a58-4c54-85d0-3b060a635e90",
      "resource": {
        "resourceType": "Observation",
        "id": "4a60d33d-4a58-4c54-85d0-3b060a635e90",
        "meta": {
          "profile": [
            "http://hl7.eu/fhir/laboratory/StructureDefinition/Observation-resultslab-eu-lab"
          ]
        },
        "performer": [
          {
            "display": "The Central European Lab"
          }
        ],
        "category": [
          {
            "coding": [
              {
                "system": "http://terminology.hl7.org/CodeSystem/observation-category",
                "code": "laboratory"
              }
            ]
          }
        ],
        "code": {
          "coding": [
            {
              "code": "5804-0",
              "system": "http://loinc.org",
              "display": "Protein [Mass/volume] in Urine by Test strip"
            }
          ],
          "text": "Protein [Mass/volume] in Urine by Test strip"
        },
        "valueQuantity": {
          "system": "http://unitsofmeasure.org",
          "value": 157.1,
          "unit": "mg/dL",
          "code": "mg/dL"
        },
        "referenceRange": [
          {
            "low": {
              "value": 0,
              "code": "mg/dL",
              "system": "http://unitsofmeasure.org"
            }
          },
          {
            "high": {
              "value": 149,
              "code": "mg/dL",
              "system": "http://unitsofmeasure.org"
            }
          }
        ],
        "interpretation": [
          {
            "coding": [
              {
                "code": "H",
                "system": "http://terminology.hl7.org/CodeSystem/v3-ObservationInterpretation",
                "display": "High"
              }
            ]
          }
        ],
        "text": {
          "status": "generated",
          "div": "<div xmlns=\"http://www.w3.org/1999/xhtml\"><table class=\"hl7__eu__lab__report\"><tr><th>Test</th><th>27-Jan-2017</th><th>Reference&#xA0;Range</th><th>Unit</th></tr><tr><td>Protein [Mass/volume] in Urine by Test strip</td><td>157.1</td><td>0 - 149</td><td>H</td><td>mg/dL</td></tr></table></div>"
        },
        "status": "final",
        "subject": {
          "reference": "urn:uuid:d9210d13-e836-451a-ac80-b89d05a61750",
          "display": "Victor Lagarde"
        },
        "effectiveDateTime": "2017-01-27T04:48:18Z",
        "specimen": {
          "reference": "urn:uuid:8a497037-0ed9-4eeb-8325-18a013d56cdd"
        }
      }
    },
    {
      "fullUrl": "urn:uuid:a56a3aac-c6a8-48a5-bd48-fc343c607665",
      "resource": {
        "resourceType": "Observation",
        "id": "a56a3aac-c6a8-48a5-bd48-fc343c607665",
        "meta": {
          "profile": [
            "http://hl7.eu/fhir/laboratory/StructureDefinition/Observation-resultslab-eu-lab"
          ]
        },
        "performer": [
          {
            "display": "The Central European Lab"
          }
        ],
        "category": [
          {
            "coding": [
              {
                "system": "http://terminology.hl7.org/CodeSystem/observation-category",
                "code": "laboratory"
              }
            ]
          }
        ],
        "code": {
          "coding": [
            {
              "code": "20454-5",
              "system": "http://loinc.org",
              "display": "Protein [Presence] in Urine by Test strip"
            }
          ],
          "text": "Protein [Presence] in Urine by Test strip"
        },
        "text": {
          "status": "generated",
          "div": "<div xmlns=\"http://www.w3.org/1999/xhtml\"><table class=\"hl7__eu__lab__report\"><tr><th>Test</th><th>27-Jan-2017</th><th>Reference&#xA0;Range</th><th>Unit</th></tr><tr><td>Protein [Presence] in Urine by Test strip</td></tr></table></div>"
        },
        "status": "final",
        "subject": {
          "reference": "urn:uuid:d9210d13-e836-451a-ac80-b89d05a61750",
          "display": "Victor Lagarde"
        },
        "effectiveDateTime": "2017-01-27T04:48:18Z",
        "specimen": {
          "reference": "urn:uuid:8a497037-0ed9-4eeb-8325-18a013d56cdd"
        }
      }
    },
    {
      "fullUrl": "urn:uuid:0ab428b0-34fb-4d73-aff4-f96dcc797444",
      "resource": {
        "resourceType": "Observation",
        "id": "0ab428b0-34fb-4d73-aff4-f96dcc797444",
        "meta": {
          "profile": [
            "http://hl7.eu/fhir/laboratory/StructureDefinition/Observation-resultslab-eu-lab"
          ]
        },
        "performer": [
          {
            "display": "The Central European Lab"
          }
        ],
        "category": [
          {
            "coding": [
              {
                "system": "http://terminology.hl7.org/CodeSystem/observation-category",
                "code": "laboratory"
              }
            ]
          }
        ],
        "code": {
          "coding": [
            {
              "code": "5802-4",
              "system": "http://loinc.org",
              "display": "Nitrite [Presence] in Urine by Test strip"
            }
          ],
          "text": "Nitrite [Presence] in Urine by Test strip"
        },
        "text": {
          "status": "generated",
          "div": "<div xmlns=\"http://www.w3.org/1999/xhtml\"><table class=\"hl7__eu__lab__report\"><tr><th>Test</th><th>27-Jan-2017</th><th>Reference&#xA0;Range</th><th>Unit</th></tr><tr><td>Nitrite [Presence] in Urine by Test strip</td></tr></table></div>"
        },
        "status": "final",
        "subject": {
          "reference": "urn:uuid:d9210d13-e836-451a-ac80-b89d05a61750",
          "display": "Victor Lagarde"
        },
        "effectiveDateTime": "2017-01-27T04:48:18Z",
        "specimen": {
          "reference": "urn:uuid:8a497037-0ed9-4eeb-8325-18a013d56cdd"
        }
      }
    },
    {
      "fullUrl": "urn:uuid:fc0b9bef-f981-49d9-a0bf-4cd415b8d102",
      "resource": {
        "resourceType": "Observation",
        "id": "fc0b9bef-f981-49d9-a0bf-4cd415b8d102",
        "meta": {
          "profile": [
            "http://hl7.eu/fhir/laboratory/StructureDefinition/Observation-resultslab-eu-lab"
          ]
        },
        "performer": [
          {
            "display": "The Central European Lab"
          }
        ],
        "category": [
          {
            "coding": [
              {
                "system": "http://terminology.hl7.org/CodeSystem/observation-category",
                "code": "laboratory"
              }
            ]
          }
        ],
        "code": {
          "coding": [
            {
              "code": "5794-3",
              "system": "http://loinc.org",
              "display": "Hemoglobin [Presence] in Urine by Test strip"
            }
          ],
          "text": "Hemoglobin [Presence] in Urine by Test strip"
        },
        "text": {
          "status": "generated",
          "div": "<div xmlns=\"http://www.w3.org/1999/xhtml\"><table class=\"hl7__eu__lab__report\"><tr><th>Test</th><th>27-Jan-2017</th><th>Reference&#xA0;Range</th><th>Unit</th></tr><tr><td>Hemoglobin [Presence] in Urine by Test strip</td></tr></table></div>"
        },
        "status": "final",
        "subject": {
          "reference": "urn:uuid:d9210d13-e836-451a-ac80-b89d05a61750",
          "display": "Victor Lagarde"
        },
        "effectiveDateTime": "2017-01-27T04:48:18Z",
        "specimen": {
          "reference": "urn:uuid:8a497037-0ed9-4eeb-8325-18a013d56cdd"
        }
      }
    },
    {
      "fullUrl": "urn:uuid:ba333933-89d3-4d88-8281-2d2a84c29c00",
      "resource": {
        "resourceType": "Observation",
        "id": "ba333933-89d3-4d88-8281-2d2a84c29c00",
        "meta": {
          "profile": [
            "http://hl7.eu/fhir/laboratory/StructureDefinition/Observation-resultslab-eu-lab"
          ]
        },
        "performer": [
          {
            "display": "The Central European Lab"
          }
        ],
        "category": [
          {
            "coding": [
              {
                "system": "http://terminology.hl7.org/CodeSystem/observation-category",
                "code": "laboratory"
              }
            ]
          }
        ],
        "code": {
          "coding": [
            {
              "code": "5799-2",
              "system": "http://loinc.org",
              "display": "Leukocyte esterase [Presence] in Urine by Test strip"
            }
          ],
          "text": "Leukocyte esterase [Presence] in Urine by Test strip"
        },
        "text": {
          "status": "generated",
          "div": "<div xmlns=\"http://www.w3.org/1999/xhtml\"><table class=\"hl7__eu__lab__report\"><tr><th>Test</th><th>27-Jan-2017</th><th>Reference&#xA0;Range</th><th>Unit</th></tr><tr><td>Leukocyte esterase [Presence] in Urine by Test strip</td></tr></table></div>"
        },
        "status": "final",
        "subject": {
          "reference": "urn:uuid:d9210d13-e836-451a-ac80-b89d05a61750",
          "display": "Victor Lagarde"
        },
        "effectiveDateTime": "2017-01-27T04:48:18Z",
        "specimen": {
          "reference": "urn:uuid:8a497037-0ed9-4eeb-8325-18a013d56cdd"
        }
      }
    },
    {
      "fullUrl": "urn:uuid:cb62518b-c7f2-4162-a8dc-b973882c1731",
      "resource": {
        "resourceType": "Observation",
        "id": "cb62518b-c7f2-4162-a8dc-b973882c1731",
        "meta": {
          "profile": [
            "http://hl7.eu/fhir/laboratory/StructureDefinition/Observation-resultslab-eu-lab"
          ]
        },
        "performer": [
          {
            "display": "The Central European Lab"
          }
        ],
        "category": [
          {
            "coding": [
              {
                "system": "http://terminology.hl7.org/CodeSystem/observation-category",
                "code": "laboratory"
              }
            ]
          }
        ],
        "code": {
          "coding": [
            {
              "code": "4548-4",
              "system": "http://loinc.org",
              "display": "Hemoglobin A1c/Hemoglobin.total in Blood"
            }
          ],
          "text": "Hemoglobin A1c/Hemoglobin.total in Blood"
        },
        "valueQuantity": {
          "system": "http://unitsofmeasure.org",
          "value": 2.9,
          "unit": "%",
          "code": "%"
        },
        "referenceRange": [
          {
            "low": {
              "value": 4.3,
              "code": "%",
              "system": "http://unitsofmeasure.org"
            }
          },
          {
            "high": {
              "value": 6,
              "code": "%",
              "system": "http://unitsofmeasure.org"
            }
          }
        ],
        "interpretation": [
          {
            "coding": [
              {
                "code": "L",
                "system": "http://terminology.hl7.org/CodeSystem/v3-ObservationInterpretation",
                "display": "Low"
              }
            ]
          }
        ],
        "text": {
          "status": "generated",
          "div": "<div xmlns=\"http://www.w3.org/1999/xhtml\"><table class=\"hl7__eu__lab__report\"><tr><th>Test</th><th>27-Jan-2017</th><th>Reference&#xA0;Range</th><th>Unit</th></tr><tr><td>Hemoglobin A1c/Hemoglobin.total in Blood</td><td>2.9</td><td>4.3 - 6</td><td>L</td><td>%</td></tr></table></div>"
        },
        "status": "final",
        "subject": {
          "reference": "urn:uuid:d9210d13-e836-451a-ac80-b89d05a61750",
          "display": "Victor Lagarde"
        },
        "effectiveDateTime": "2017-01-27T04:48:18Z",
        "specimen": {
          "reference": "urn:uuid:4d3025a6-f426-4a3a-92d6-5c1fe0d908e6"
        }
      }
    },
    {
      "fullUrl": "urn:uuid:4e0abb4d-b2f5-4cf6-b5ae-895173dcbb88",
      "resource": {
        "resourceType": "Observation",
        "id": "4e0abb4d-b2f5-4cf6-b5ae-895173dcbb88",
        "meta": {
          "profile": [
            "http://hl7.eu/fhir/laboratory/StructureDefinition/Observation-resultslab-eu-lab"
          ]
        },
        "performer": [
          {
            "display": "The Central European Lab"
          }
        ],
        "category": [
          {
            "coding": [
              {
                "system": "http://terminology.hl7.org/CodeSystem/observation-category",
                "code": "laboratory"
              }
            ]
          }
        ],
        "code": {
          "coding": [
            {
              "code": "2339-0",
              "system": "http://loinc.org",
              "display": "Glucose [Mass/volume] in Blood"
            }
          ],
          "text": "Glucose [Mass/volume] in Blood"
        },
        "valueQuantity": {
          "system": "http://unitsofmeasure.org",
          "value": 88.5,
          "unit": "mg/dL",
          "code": "mg/dL"
        },
        "referenceRange": [
          {
            "low": {
              "value": 70,
              "code": "mg/dL",
              "system": "http://unitsofmeasure.org"
            }
          },
          {
            "high": {
              "value": 140,
              "code": "mg/dL",
              "system": "http://unitsofmeasure.org"
            }
          }
        ],
        "text": {
          "status": "generated",
          "div": "<div xmlns=\"http://www.w3.org/1999/xhtml\"><table class=\"hl7__eu__lab__report\"><tr><th>Test</th><th>27-Jan-2017</th><th>Reference&#xA0;Range</th><th>Unit</th></tr><tr><td>Glucose [Mass/volume] in Blood</td><td>88.5</td><td>70 - 140</td><td></td><td>mg/dL</td></tr></table></div>"
        },
        "status": "final",
        "subject": {
          "reference": "urn:uuid:d9210d13-e836-451a-ac80-b89d05a61750",
          "display": "Victor Lagarde"
        },
        "effectiveDateTime": "2017-01-27T04:48:18Z",
        "specimen": {
          "reference": "urn:uuid:4d3025a6-f426-4a3a-92d6-5c1fe0d908e6"
        }
      }
    },
    {
      "fullUrl": "urn:uuid:cb8edc08-d6be-4d4f-96dd-d37d5d0c135e",
      "resource": {
        "resourceType": "Observation",
        "id": "cb8edc08-d6be-4d4f-96dd-d37d5d0c135e",
        "meta": {
          "profile": [
            "http://hl7.eu/fhir/laboratory/StructureDefinition/Observation-resultslab-eu-lab"
          ]
        },
        "performer": [
          {
            "display": "The Central European Lab"
          }
        ],
        "category": [
          {
            "coding": [
              {
                "system": "http://terminology.hl7.org/CodeSystem/observation-category",
                "code": "laboratory"
              }
            ]
          }
        ],
        "code": {
          "coding": [
            {
              "code": "6299-2",
              "system": "http://loinc.org",
              "display": "Urea nitrogen [Mass/volume] in Blood"
            }
          ],
          "text": "Urea nitrogen [Mass/volume] in Blood"
        },
        "valueQuantity": {
          "system": "http://unitsofmeasure.org",
          "value": 12.1,
          "unit": "mg/dL",
          "code": "mg/dL"
        },
        "referenceRange": [
          {
            "low": {
              "value": 7,
              "code": "mg/dL",
              "system": "http://unitsofmeasure.org"
            }
          },
          {
            "high": {
              "value": 20,
              "code": "mg/dL",
              "system": "http://unitsofmeasure.org"
            }
          }
        ],
        "text": {
          "status": "generated",
          "div": "<div xmlns=\"http://www.w3.org/1999/xhtml\"><table class=\"hl7__eu__lab__report\"><tr><th>Test</th><th>27-Jan-2017</th><th>Reference&#xA0;Range</th><th>Unit</th></tr><tr><td>Urea nitrogen [Mass/volume] in Blood</td><td>12.1</td><td>7 - 20</td><td></td><td>mg/dL</td></tr></table></div>"
        },
        "status": "final",
        "subject": {
          "reference": "urn:uuid:d9210d13-e836-451a-ac80-b89d05a61750",
          "display": "Victor Lagarde"
        },
        "effectiveDateTime": "2017-01-27T04:48:18Z",
        "specimen": {
          "reference": "urn:uuid:4d3025a6-f426-4a3a-92d6-5c1fe0d908e6"
        }
      }
    },
    {
      "fullUrl": "urn:uuid:5c28a268-699f-4e3e-acc2-50c1ba60161b",
      "resource": {
        "resourceType": "Observation",
        "id": "5c28a268-699f-4e3e-acc2-50c1ba60161b",
        "meta": {
          "profile": [
            "http://hl7.eu/fhir/laboratory/StructureDefinition/Observation-resultslab-eu-lab"
          ]
        },
        "performer": [
          {
            "display": "The Central European Lab"
          }
        ],
        "category": [
          {
            "coding": [
              {
                "system": "http://terminology.hl7.org/CodeSystem/observation-category",
                "code": "laboratory"
              }
            ]
          }
        ],
        "code": {
          "coding": [
            {
              "code": "38483-4",
              "system": "http://loinc.org",
              "display": "Creatinine [Mass/volume] in Blood"
            }
          ],
          "text": "Creatinine [Mass/volume] in Blood"
        },
        "valueQuantity": {
          "system": "http://unitsofmeasure.org",
          "value": 2.4,
          "unit": "mg/dL",
          "code": "mg/dL"
        },
        "referenceRange": [
          {
            "low": {
              "value": 0.9,
              "code": "mg/dL",
              "system": "http://unitsofmeasure.org"
            }
          },
          {
            "high": {
              "value": 1.3,
              "code": "mg/dL",
              "system": "http://unitsofmeasure.org"
            }
          }
        ],
        "interpretation": [
          {
            "coding": [
              {
                "code": "H",
                "system": "http://terminology.hl7.org/CodeSystem/v3-ObservationInterpretation",
                "display": "High"
              }
            ]
          }
        ],
        "text": {
          "status": "generated",
          "div": "<div xmlns=\"http://www.w3.org/1999/xhtml\"><table class=\"hl7__eu__lab__report\"><tr><th>Test</th><th>27-Jan-2017</th><th>Reference&#xA0;Range</th><th>Unit</th></tr><tr><td>Creatinine [Mass/volume] in Blood</td><td>2.4</td><td>0.9 - 1.3</td><td>H</td><td>mg/dL</td></tr></table></div>"
        },
        "status": "final",
        "subject": {
          "reference": "urn:uuid:d9210d13-e836-451a-ac80-b89d05a61750",
          "display": "Victor Lagarde"
        },
        "effectiveDateTime": "2017-01-27T04:48:18Z",
        "specimen": {
          "reference": "urn:uuid:4d3025a6-f426-4a3a-92d6-5c1fe0d908e6"
        }
      }
    },
    {
      "fullUrl": "urn:uuid:8351c643-929b-4aad-a465-ba318ddd1427",
      "resource": {
        "resourceType": "Observation",
        "id": "8351c643-929b-4aad-a465-ba318ddd1427",
        "meta": {
          "profile": [
            "http://hl7.eu/fhir/laboratory/StructureDefinition/Observation-resultslab-eu-lab"
          ]
        },
        "performer": [
          {
            "display": "The Central European Lab"
          }
        ],
        "category": [
          {
            "coding": [
              {
                "system": "http://terminology.hl7.org/CodeSystem/observation-category",
                "code": "laboratory"
              }
            ]
          }
        ],
        "code": {
          "coding": [
            {
              "code": "49765-1",
              "system": "http://loinc.org",
              "display": "Calcium [Mass/volume] in Blood"
            }
          ],
          "text": "Calcium [Mass/volume] in Blood"
        },
        "valueQuantity": {
          "system": "http://unitsofmeasure.org",
          "value": 9.6,
          "unit": "mg/dL",
          "code": "mg/dL"
        },
        "referenceRange": [
          {
            "low": {
              "value": 8.5,
              "code": "mg/dL",
              "system": "http://unitsofmeasure.org"
            }
          },
          {
            "high": {
              "value": 10.5,
              "code": "mg/dL",
              "system": "http://unitsofmeasure.org"
            }
          }
        ],
        "text": {
          "status": "generated",
          "div": "<div xmlns=\"http://www.w3.org/1999/xhtml\"><table class=\"hl7__eu__lab__report\"><tr><th>Test</th><th>27-Jan-2017</th><th>Reference&#xA0;Range</th><th>Unit</th></tr><tr><td>Calcium [Mass/volume] in Blood</td><td>9.6</td><td>8.5 - 10.5</td><td></td><td>mg/dL</td></tr></table></div>"
        },
        "status": "final",
        "subject": {
          "reference": "urn:uuid:d9210d13-e836-451a-ac80-b89d05a61750",
          "display": "Victor Lagarde"
        },
        "effectiveDateTime": "2017-01-27T04:48:18Z",
        "specimen": {
          "reference": "urn:uuid:4d3025a6-f426-4a3a-92d6-5c1fe0d908e6"
        }
      }
    },
    {
      "fullUrl": "urn:uuid:f0baa199-d5b6-407d-9851-b4d178109763",
      "resource": {
        "resourceType": "Observation",
        "id": "f0baa199-d5b6-407d-9851-b4d178109763",
        "meta": {
          "profile": [
            "http://hl7.eu/fhir/laboratory/StructureDefinition/Observation-resultslab-eu-lab"
          ]
        },
        "performer": [
          {
            "display": "The Central European Lab"
          }
        ],
        "category": [
          {
            "coding": [
              {
                "system": "http://terminology.hl7.org/CodeSystem/observation-category",
                "code": "laboratory"
              }
            ]
          }
        ],
        "code": {
          "coding": [
            {
              "code": "2947-0",
              "system": "http://loinc.org",
              "display": "Sodium [Moles/volume] in Blood"
            }
          ],
          "text": "Sodium [Moles/volume] in Blood"
        },
        "valueQuantity": {
          "system": "http://unitsofmeasure.org",
          "value": 140.9,
          "unit": "mmol/L",
          "code": "mmol/L"
        },
        "referenceRange": [
          {
            "low": {
              "value": 135,
              "code": "mmol/L",
              "system": "http://unitsofmeasure.org"
            }
          },
          {
            "high": {
              "value": 145,
              "code": "mmol/L",
              "system": "http://unitsofmeasure.org"
            }
          }
        ],
        "text": {
          "status": "generated",
          "div": "<div xmlns=\"http://www.w3.org/1999/xhtml\"><table class=\"hl7__eu__lab__report\"><tr><th>Test</th><th>27-Jan-2017</th><th>Reference&#xA0;Range</th><th>Unit</th></tr><tr><td>Sodium [Moles/volume] in Blood</td><td>140.9</td><td>135 - 145</td><td></td><td>mmol/L</td></tr></table></div>"
        },
        "status": "final",
        "subject": {
          "reference": "urn:uuid:d9210d13-e836-451a-ac80-b89d05a61750",
          "display": "Victor Lagarde"
        },
        "effectiveDateTime": "2017-01-27T04:48:18Z",
        "specimen": {
          "reference": "urn:uuid:4d3025a6-f426-4a3a-92d6-5c1fe0d908e6"
        }
      }
    },
    {
      "fullUrl": "urn:uuid:5c481c74-8072-4bd5-be33-7250aa01d9c1",
      "resource": {
        "resourceType": "Observation",
        "id": "5c481c74-8072-4bd5-be33-7250aa01d9c1",
        "meta": {
          "profile": [
            "http://hl7.eu/fhir/laboratory/StructureDefinition/Observation-resultslab-eu-lab"
          ]
        },
        "performer": [
          {
            "display": "The Central European Lab"
          }
        ],
        "category": [
          {
            "coding": [
              {
                "system": "http://terminology.hl7.org/CodeSystem/observation-category",
                "code": "laboratory"
              }
            ]
          }
        ],
        "code": {
          "coding": [
            {
              "code": "6298-4",
              "system": "http://loinc.org",
              "display": "Potassium [Moles/volume] in Blood"
            }
          ],
          "text": "Potassium [Moles/volume] in Blood"
        },
        "valueQuantity": {
          "system": "http://unitsofmeasure.org",
          "value": 5,
          "unit": "mmol/L",
          "code": "mmol/L"
        },
        "referenceRange": [
          {
            "low": {
              "value": 3.5,
              "code": "mmol/L",
              "system": "http://unitsofmeasure.org"
            }
          },
          {
            "high": {
              "value": 5.1,
              "code": "mmol/L",
              "system": "http://unitsofmeasure.org"
            }
          }
        ],
        "text": {
          "status": "generated",
          "div": "<div xmlns=\"http://www.w3.org/1999/xhtml\"><table class=\"hl7__eu__lab__report\"><tr><th>Test</th><th>27-Jan-2017</th><th>Reference&#xA0;Range</th><th>Unit</th></tr><tr><td>Potassium [Moles/volume] in Blood</td><td>5.0</td><td>3.5 - 5.1</td><td></td><td>mmol/L</td></tr></table></div>"
        },
        "status": "final",
        "subject": {
          "reference": "urn:uuid:d9210d13-e836-451a-ac80-b89d05a61750",
          "display": "Victor Lagarde"
        },
        "effectiveDateTime": "2017-01-27T04:48:18Z",
        "specimen": {
          "reference": "urn:uuid:4d3025a6-f426-4a3a-92d6-5c1fe0d908e6"
        }
      }
    },
    {
      "fullUrl": "urn:uuid:5b12de48-04db-4f0b-a7d4-599274e6c65a",
      "resource": {
        "resourceType": "Observation",
        "id": "5b12de48-04db-4f0b-a7d4-599274e6c65a",
        "meta": {
          "profile": [
            "http://hl7.eu/fhir/laboratory/StructureDefinition/Observation-resultslab-eu-lab"
          ]
        },
        "performer": [
          {
            "display": "The Central European Lab"
          }
        ],
        "category": [
          {
            "coding": [
              {
                "system": "http://terminology.hl7.org/CodeSystem/observation-category",
                "code": "laboratory"
              }
            ]
          }
        ],
        "code": {
          "coding": [
            {
              "code": "2069-3",
              "system": "http://loinc.org",
              "display": "Chloride [Moles/volume] in Blood"
            }
          ],
          "text": "Chloride [Moles/volume] in Blood"
        },
        "valueQuantity": {
          "system": "http://unitsofmeasure.org",
          "value": 109,
          "unit": "mmol/L",
          "code": "mmol/L"
        },
        "referenceRange": [
          {
            "low": {
              "value": 98,
              "code": "mmol/L",
              "system": "http://unitsofmeasure.org"
            }
          },
          {
            "high": {
              "value": 108,
              "code": "mmol/L",
              "system": "http://unitsofmeasure.org"
            }
          }
        ],
        "interpretation": [
          {
            "coding": [
              {
                "code": "H",
                "system": "http://terminology.hl7.org/CodeSystem/v3-ObservationInterpretation",
                "display": "High"
              }
            ]
          }
        ],
        "text": {
          "status": "generated",
          "div": "<div xmlns=\"http://www.w3.org/1999/xhtml\"><table class=\"hl7__eu__lab__report\"><tr><th>Test</th><th>27-Jan-2017</th><th>Reference&#xA0;Range</th><th>Unit</th></tr><tr><td>Chloride [Moles/volume] in Blood</td><td>109.0</td><td>98 - 108</td><td>H</td><td>mmol/L</td></tr></table></div>"
        },
        "status": "final",
        "subject": {
          "reference": "urn:uuid:d9210d13-e836-451a-ac80-b89d05a61750",
          "display": "Victor Lagarde"
        },
        "effectiveDateTime": "2017-01-27T04:48:18Z",
        "specimen": {
          "reference": "urn:uuid:4d3025a6-f426-4a3a-92d6-5c1fe0d908e6"
        }
      }
    },
    {
      "fullUrl": "urn:uuid:e95d2793-4424-45c0-9f89-1491cfdfd5fa",
      "resource": {
        "resourceType": "Observation",
        "id": "e95d2793-4424-45c0-9f89-1491cfdfd5fa",
        "meta": {
          "profile": [
            "http://hl7.eu/fhir/laboratory/StructureDefinition/Observation-resultslab-eu-lab"
          ]
        },
        "performer": [
          {
            "display": "The Central European Lab"
          }
        ],
        "category": [
          {
            "coding": [
              {
                "system": "http://terminology.hl7.org/CodeSystem/observation-category",
                "code": "laboratory"
              }
            ]
          }
        ],
        "code": {
          "coding": [
            {
              "code": "20565-8",
              "system": "http://loinc.org",
              "display": "Carbon dioxide, total [Moles/volume] in Blood"
            }
          ],
          "text": "Carbon dioxide, total [Moles/volume] in Blood"
        },
        "valueQuantity": {
          "system": "http://unitsofmeasure.org",
          "value": 26,
          "unit": "mmol/L",
          "code": "mmol/L"
        },
        "referenceRange": [
          {
            "low": {
              "value": 22,
              "code": "mmol/L",
              "system": "http://unitsofmeasure.org"
            }
          },
          {
            "high": {
              "value": 29,
              "code": "mmol/L",
              "system": "http://unitsofmeasure.org"
            }
          }
        ],
        "text": {
          "status": "generated",
          "div": "<div xmlns=\"http://www.w3.org/1999/xhtml\"><table class=\"hl7__eu__lab__report\"><tr><th>Test</th><th>27-Jan-2017</th><th>Reference&#xA0;Range</th><th>Unit</th></tr><tr><td>Carbon dioxide, total [Moles/volume] in Blood</td><td>26.0</td><td>22 - 29</td><td></td><td>mmol/L</td></tr></table></div>"
        },
        "status": "final",
        "subject": {
          "reference": "urn:uuid:d9210d13-e836-451a-ac80-b89d05a61750",
          "display": "Victor Lagarde"
        },
        "effectiveDateTime": "2017-01-27T04:48:18Z",
        "specimen": {
          "reference": "urn:uuid:4d3025a6-f426-4a3a-92d6-5c1fe0d908e6"
        }
      }
    },
    {
      "fullUrl": "urn:uuid:da57b072-4087-449e-94c0-a793287a606d",
      "resource": {
        "resourceType": "Device",
        "id": "da57b072-4087-449e-94c0-a793287a606d",
        "deviceName": [
          {
            "name": "SYNDERAI Synthetic Generator",
            "type": "manufacturer-name"
          }
        ],
        "version": [
          {
            "value": "5.0"
          }
        ],
        "text": {
          "status": "generated",
          "div": "<div xmlns=\"http://www.w3.org/1999/xhtml\">SYNDERAI Synthetic Generator v5.0</div>"
        },
        "status": "active\"",
        "distinctIdentifier": "synderai-generator-50",
        "manufacturer": "SYNDERAI Project"
      }
    },
    {
      "fullUrl": "urn:uuid:c09cb615-0bbc-4bc3-9880-60158cd9e569",
      "resource": {
        "resourceType": "Provenance",
        "id": "c09cb615-0bbc-4bc3-9880-60158cd9e569",
        "target": [
          {
            "reference": "Patient/d9210d13-e836-451a-ac80-b89d05a61750"
          },
          {
            "reference": "Bundle/4f5b6705-05d5-4496-8bee-c2e6822f7d2f"
          },
          {
            "reference": "Composition/6c5aefb2-c642-4f1c-ad14-de15a72c8994"
          },
          {
            "reference": "PractitionerRole/443e3b8c-d013-46cc-bf2d-b88069459226"
          },
          {
            "reference": "Practitioner/d1a0c03b-2418-4ed1-a23c-8a1eac081d06"
          },
          {
            "reference": "PractitionerRole/12308935-1c68-427f-b0b0-9733a846ac1d"
          },
          {
            "reference": "Organization/5ddcfe0f-8730-4e55-8a74-06ed66d0f046"
          }
        ],
        "activity": {
          "text": "Synthetic Example Data Generation"
        },
        "policy": [
          "https://synderai.net/synderai-synthetic-data-policy"
        ],
        "agent": [
          {
            "type": {
              "text": "author"
            },
            "who": {
              "reference": "Device/da57b072-4087-449e-94c0-a793287a606d"
            }
          }
        ],
        "reason": [
          {
            "text": "Interoperability Testing and Training (non-clinical use)"
          }
        ],
        "text": {
          "status": "generated",
          "div": "<div xmlns=\"http://www.w3.org/1999/xhtml\">Provenance for SYNDERAI Synthetic Example Data Resource</div>"
        },
        "recorded": "2017-01-27T05:48:18Z"
      }
    },
    {
      "fullUrl": "urn:uuid:443e3b8c-d013-46cc-bf2d-b88069459226",
      "resource": {
        "resourceType": "PractitionerRole",
        "id": "443e3b8c-d013-46cc-bf2d-b88069459226",
        "meta": {
          "profile": [
            "http://hl7.eu/fhir/base/StructureDefinition/practitionerRole-eu"
          ]
        },
        "text": {
          "status": "generated",
          "div": "<div xmlns=\"http://www.w3.org/1999/xhtml\">Laboratory Role Id: 443e3b8c-d013-46cc-bf2d-b88069459226</div>"
        },
        "practitioner": {
          "reference": "urn:uuid:d1a0c03b-2418-4ed1-a23c-8a1eac081d06"
        }
      }
    },
    {
      "fullUrl": "urn:uuid:d1a0c03b-2418-4ed1-a23c-8a1eac081d06",
      "resource": {
        "resourceType": "Practitioner",
        "id": "d1a0c03b-2418-4ed1-a23c-8a1eac081d06",
        "meta": {
          "profile": [
            "http://hl7.eu/fhir/base/StructureDefinition/practitioner-eu"
          ]
        },
        "identifier": [
          {
            "assigner": {
              "display": "HL7 Europe"
            },
            "system": "urn:oid:2.16.840.1.113883.2.51.999",
            "value": "4e6645d7-5667-49cb-a667-6804434b222c"
          }
        ],
        "name": [
          {
            "prefix": [
              "dr"
            ],
            "given": [
              "Ex"
            ],
            "family": "Ample"
          }
        ],
        "address": [
          {
            "line": [
              "Laboratoire Central Europenne",
              "Boulevard du Jardin Botanique 32"
            ],
            "postalCode": "1000",
            "city": "Brussels",
            "country": "Belgium"
          }
        ],
        "text": {
          "status": "generated",
          "div": "<div xmlns=\"http://www.w3.org/1999/xhtml\">Laboratory: Laboratoire Central Europenne, 1000 Brussels, Belgium</div>"
        }
      }
    }
  ],
  "type": "document",
  "timestamp": "2017-01-27T05:48:18Z"
}
