{
  "resourceType": "Bundle",
  "id": "9543be76-63c2-4724-beca-2be74a61842b",
  "meta": {
    "profile": [
      "http://hl7.eu/fhir/laboratory/StructureDefinition/Bundle-eu-lab"
    ]
  },
  "identifier": {
    "assigner": {
      "display": "HL7 Europe"
    },
    "system": "urn:oid:2.16.840.1.113883.2.51.999",
    "value": "3079b5ce-f7dd-42bf-82c2-6489ecc82635"
  },
  "entry": [
    {
      "fullUrl": "urn:uuid:52886e55-4b74-42b6-83bc-b90a94583eeb",
      "resource": {
        "resourceType": "Composition",
        "id": "52886e55-4b74-42b6-83bc-b90a94583eeb",
        "meta": {
          "profile": [
            "http://hl7.eu/fhir/laboratory/StructureDefinition/Composition-eu-lab"
          ]
        },
        "identifier": {
          "assigner": {
            "display": "HL7 Europe"
          },
          "system": "urn:oid:2.16.840.1.113883.2.51.999",
          "value": "b61b4ac6-0d3c-485d-b15d-68d570afd21d"
        },
        "author": [
          {
            "reference": "urn:uuid:82650f80-aff1-4524-8e16-de3b661e1e11"
          }
        ],
        "category": [
          {
            "coding": [
              {
                "code": "26436-6",
                "system": "http://loinc.org",
                "display": "Laboratory studies (set)"
              }
            ]
          }
        ],
        "type": {
          "coding": [
            {
              "code": "11502-2",
              "system": "http://loinc.org",
              "display": "Laboratory report"
            }
          ],
          "text": "Laboratory Report"
        },
        "section": [
          {
            "code": {
              "coding": [
                {
                  "code": "26436-6",
                  "system": "http://loinc.org",
                  "display": "Laboratory studies (set)"
                }
              ],
              "text": "Laboratory studies"
            },
            "section": [
              {
                "code": {
                  "coding": [
                    {
                      "code": "$18719-5",
                      "system": "http://loinc.org",
                      "display": "Chemistry studies (set)"
                    }
                  ],
                  "text": "Chemistry"
                },
                "entry": [
                  {
                    "reference": "urn:uuid:5d414500-7033-4b98-b076-5b95f8bf2821"
                  },
                  {
                    "reference": "urn:uuid:d7c2c675-2e98-4e01-9953-36c6224a7987"
                  },
                  {
                    "reference": "urn:uuid:d4172197-a06b-4541-a3a6-af7be5f10a62"
                  },
                  {
                    "reference": "urn:uuid:d62f5384-9f15-46cc-80cf-e5a815e66d95"
                  },
                  {
                    "reference": "urn:uuid:4b179699-7ad5-4ddb-943f-0f1ccc21549f"
                  },
                  {
                    "reference": "urn:uuid:8c2c437a-f212-4e72-93b9-1d6b562727b5"
                  },
                  {
                    "reference": "urn:uuid:69b9465e-6826-4d1f-94d5-278bd6b3607f"
                  },
                  {
                    "reference": "urn:uuid:b9c3dcbe-c4a9-4f9f-b407-7689bec8a3c8"
                  },
                  {
                    "reference": "urn:uuid:5040520c-cea0-428f-893e-4040a2fddf00"
                  },
                  {
                    "reference": "urn:uuid:92cbaa8f-ed23-4cb2-8f03-c9a0b10253f9"
                  },
                  {
                    "reference": "urn:uuid:7bc51320-baf5-40a8-8336-0d163b95683c"
                  },
                  {
                    "reference": "urn:uuid:71095708-44ae-44ea-ba93-9b52d7e2cd96"
                  },
                  {
                    "reference": "urn:uuid:3e46b788-3513-4043-b344-de0d226a5fae"
                  },
                  {
                    "reference": "urn:uuid:0a40b2ef-5cea-4d2e-aae0-e702670fd692"
                  },
                  {
                    "reference": "urn:uuid:608b8991-50f9-47f0-b95d-a309812c1325"
                  },
                  {
                    "reference": "urn:uuid:be592d50-9cfa-435b-9efe-f59e3bee9a53"
                  },
                  {
                    "reference": "urn:uuid:7b9a44d7-7d48-4a7f-87fc-b7817b776780"
                  },
                  {
                    "reference": "urn:uuid:d6fcc145-211a-4d7c-9cc5-c4058f1d3c85"
                  }
                ],
                "text": {
                  "status": "generated",
                  "div": "<div xmlns=\"http://www.w3.org/1999/xhtml\"><h3>Chemistry</h3><table class=\"hl7__eu__lab__report\"><thead><tr><th>Test</th><th>11-MAR-2021</th><th>Reference&#xA0;Range</th><th>Unit</th></tr></thead><tbody><tr><td>Glucose [Mass/volume] in Serum or Plasma</td><td>96.8</td><td>70 - 140</td><td>mg/dL</td></tr><tr><td>Urea nitrogen [Mass/volume] in Serum or Plasma</td><td>14.6</td><td>7 - 25</td><td>mg/dL</td></tr><tr><td>Creatinine [Mass/volume] in Serum or Plasma</td><td><strong>2.0 H</strong></td><td>0.9 - 1.3</td><td>mg/dL</td></tr><tr><td>Calcium [Mass/volume] in Serum or Plasma</td><td>9.7</td><td>8.5 - 10.5</td><td>mg/dL</td></tr><tr><td>Sodium [Moles/volume] in Serum or Plasma</td><td>143.5</td><td>135 - 145</td><td>mmol/L</td></tr><tr><td>Potassium [Moles/volume] in Serum or Plasma</td><td>4.8</td><td>3.5 - 5.3</td><td>mmol/L</td></tr><tr><td>Chloride [Moles/volume] in Serum or Plasma</td><td>104.6</td><td>98 - 107</td><td>mmol/L</td></tr><tr><td>Carbon dioxide, total [Moles/volume] in Serum or Plasma</td><td>25.3</td><td>22 - 29</td><td>mmol/L</td></tr><tr><td>Ketones [Presence] in Urine by Test strip</td><td>Urine ketone test = +</td><td></td><td></td></tr><tr><td>Hemoglobin A1c/Hemoglobin.total in Blood</td><td><strong>3.0 L</strong></td><td>4.5 - 6.4</td><td>%</td></tr><tr><td>Glucose [Mass/volume] in Blood</td><td>96.8</td><td>70 - 140</td><td>mg/dL</td></tr><tr><td>Urea nitrogen [Mass/volume] in Blood</td><td>14.6</td><td>7 - 25</td><td>mg/dL</td></tr><tr><td>Creatinine [Mass/volume] in Blood</td><td><strong>1.8 H</strong></td><td>0.9 - 1.3</td><td>mg/dL</td></tr><tr><td>Calcium [Mass/volume] in Blood</td><td>9.7</td><td>8.6 - 10.2</td><td>mg/dL</td></tr><tr><td>Sodium [Moles/volume] in Blood</td><td>143.5</td><td>135 - 145</td><td>mmol/L</td></tr><tr><td>Potassium [Moles/volume] in Blood</td><td>4.8</td><td>3.5 - 5.1</td><td>mmol/L</td></tr><tr><td>Chloride [Moles/volume] in Blood</td><td>104.6</td><td>98 - 108</td><td>mmol/L</td></tr><tr><td>Carbon dioxide, total [Moles/volume] in Blood</td><td>25.3</td><td>22 - 32</td><td>mmol/L</td></tr></tbody></table></div>"
                },
                "title": "Chemistry"
              },
              {
                "code": {
                  "coding": [
                    {
                      "code": "$18729-4",
                      "system": "http://loinc.org",
                      "display": "Urinalysis studies (set)"
                    }
                  ],
                  "text": "Urinalysis"
                },
                "entry": [
                  {
                    "reference": "urn:uuid:60c9a917-9c80-4dab-a24b-88c9d561a275"
                  },
                  {
                    "reference": "urn:uuid:7f4e6451-1925-4144-aaee-1626e92444b5"
                  },
                  {
                    "reference": "urn:uuid:c38b3685-d335-4a80-9d8c-7a2a45b5fc9d"
                  },
                  {
                    "reference": "urn:uuid:d779063d-e4ae-4a73-ac8d-fdd622ff0b56"
                  },
                  {
                    "reference": "urn:uuid:4681a7be-cb1a-4200-9bc8-79bb2404f0ab"
                  },
                  {
                    "reference": "urn:uuid:bd548ac9-5ff2-4134-a343-5d356014fff2"
                  },
                  {
                    "reference": "urn:uuid:6409edbe-9bb3-41ad-8c9e-e7416101c1cd"
                  },
                  {
                    "reference": "urn:uuid:011b49f5-f4b4-42e7-aa7a-75f886293562"
                  },
                  {
                    "reference": "urn:uuid:17c5ba41-6dea-420a-a01c-3b9ab29b4b89"
                  },
                  {
                    "reference": "urn:uuid:feeb04f8-0b5f-489b-add2-f6e88bbabacd"
                  },
                  {
                    "reference": "urn:uuid:665886f6-3935-4deb-99a5-368432736a77"
                  },
                  {
                    "reference": "urn:uuid:3728317f-97b0-4f0c-b08f-4515c660d984"
                  }
                ],
                "text": {
                  "status": "generated",
                  "div": "<div xmlns=\"http://www.w3.org/1999/xhtml\"><h3>Urinalysis</h3><table class=\"hl7__eu__lab__report\"><thead><tr><th>Test</th><th>11-MAR-2021</th><th>Reference&#xA0;Range</th><th>Unit</th></tr></thead><tbody><tr><td>Glucose [Mass/volume] in Urine by Test strip</td><td><strong>0.7 L</strong></td><td>0.8 - 0</td><td>mg/dL</td></tr><tr><td>Glucose [Presence] in Urine by Test strip</td><td>++</td><td></td><td></td></tr><tr><td>Bilirubin.total [Mass/volume] in Urine by Test strip</td><td>0.8</td><td>0.2 - 1.5</td><td>mg/dL</td></tr><tr><td>Bilirubin.total [Presence] in Urine by Test strip</td><td>Finding of bilirubin in urine</td><td></td><td></td></tr><tr><td>Ketones [Mass/volume] in Urine by Test strip</td><td><strong>19.9 H</strong></td><td>0 - 4</td><td>mg/dL</td></tr><tr><td>Specific gravity of Urine by Test strip</td><td><strong>1.0 L</strong></td><td>1.01 - 1.03</td><td>{nominal}</td></tr><tr><td>pH of Urine by Test strip</td><td>5.7</td><td>4.5 - 7.5</td><td>pH</td></tr><tr><td>Protein [Mass/volume] in Urine by Test strip</td><td><strong>280.8 H</strong></td><td>0 - 150</td><td>mg/dL</td></tr><tr><td>Protein [Presence] in Urine by Test strip</td><td>Urine protein test = ++</td><td></td><td></td></tr><tr><td>Nitrite [Presence] in Urine by Test strip</td><td>Urine nitrite negative</td><td></td><td></td></tr><tr><td>Hemoglobin [Presence] in Urine by Test strip</td><td>Urine blood test = negative</td><td></td><td></td></tr><tr><td>Leukocyte esterase [Presence] in Urine by Test strip</td><td>Urine leukocyte test negative</td><td></td><td></td></tr></tbody></table></div>"
                },
                "title": "Urinalysis"
              },
              {
                "code": {
                  "coding": [
                    {
                      "code": "$LP7846-1",
                      "system": "http://loinc.org",
                      "display": "Specimen information"
                    }
                  ],
                  "text": "Specimen information"
                },
                "entry": [
                  {
                    "reference": "urn:uuid:4d9f9bb6-0581-478f-9651-4bc6358ed57b"
                  },
                  {
                    "reference": "urn:uuid:357e628d-8559-4741-8b91-3400ca122f4f"
                  },
                  {
                    "reference": "urn:uuid:501352ff-ded3-443b-a766-207ccba93c19"
                  },
                  {
                    "reference": "urn:uuid:9ba58046-62d8-4856-a004-0e68a848a42b"
                  }
                ],
                "text": {
                  "status": "generated",
                  "div": "<div xmlns=\"http://www.w3.org/1999/xhtml\"><h3>Specimen information</h3><table class=\"hl7__eu__lab__report\"><thead><tr><th>Test</th><th>11-MAR-2021</th><th>Specimen</th><th></th></tr></thead><tbody><tr><td>Appearance of Urine</td><td>Cloudy urine</td><td>Urine</td><td></td></tr><tr><td>Odor of Urine</td><td>Urine smell ammoniacal</td><td>Urine</td><td></td></tr><tr><td>Clarity of Urine</td><td>Translucent</td><td>Urine</td><td></td></tr><tr><td>Color of Urine</td><td>Brown color</td><td>Urine</td><td></td></tr></tbody></table></div>"
                },
                "title": "Specimen information"
              }
            ],
            "title": "Laboratory Report"
          },
          {
            "text": {
              "status": "generated",
              "div": "<div xmlns=\"http://www.w3.org/1999/xhtml\"><h3>Annotation</h3><table class=\"hl7__eu__lab__report\"><tr><th>Conclusion and Recommendations based on this report and previous findings known to us</th></tr><tr><td>The patient shows elevated creatinine, suggesting impaired renal function. Urinalysis reveals proteinuria, ketonuria, glucosuria, low specific gravity, and abnormal urine appearance (cloudy, brown, ammoniacal), indicating possible renal pathology (e.g., nephrotic syndrome, diabetic nephropathy) or urinary tract issues. HbA1c is low, which may reflect recent hypoglycemia or anemia. No evidence of infection (negative nitrites/leukocytes). Recommend further renal evaluation and clinical correlation for underlying causes and management.</td></tr></table></div>"
            },
            "code": {
              "coding": [
                {
                  "system": "http://loinc.org",
                  "code": "48767-8",
                  "display": "Annotation comment"
                }
              ]
            },
            "title": "Annotation comment"
          }
        ],
        "status": "final",
        "subject": {
          "reference": "urn:uuid:70b352e1-3dd2-47a4-ad64-869df5b654d7",
          "display": "Pelayo Casal"
        },
        "date": "2021-03-11T06:38:59Z",
        "title": "Laboratory Report",
        "confidentiality": "N"
      }
    },
    {
      "fullUrl": "urn:uuid:771558b3-6025-4705-8ef6-b247a1b7cd21",
      "resource": {
        "resourceType": "DiagnosticReport",
        "id": "771558b3-6025-4705-8ef6-b247a1b7cd21",
        "meta": {
          "profile": [
            "http://hl7.eu/fhir/laboratory/StructureDefinition/DiagnosticReport-eu-lab"
          ]
        },
        "identifier": [
          {
            "assigner": {
              "display": "HL7 Europe"
            },
            "system": "urn:oid:2.16.840.1.113883.2.51.999",
            "value": "30380e65-8e7d-4722-8bfe-240358a85872"
          }
        ],
        "extension": [
          {
            "url": "http://hl7.org/fhir/5.0/StructureDefinition/extension-DiagnosticReport.composition",
            "valueReference": {
              "reference": "urn:uuid:b61b4ac6-0d3c-485d-b15d-68d570afd21d"
            }
          }
        ],
        "category": [
          {
            "coding": [
              {
                "code": "26436-6",
                "system": "http://loinc.org",
                "display": "Laboratory studies (set)"
              }
            ]
          }
        ],
        "specimen": [
          {
            "reference": "urn:uuid:9b84208b-62e7-429c-a738-70b19f8dc608"
          },
          {
            "reference": "urn:uuid:676fbfd4-bb5a-4a83-91fb-2bb37d90d194"
          },
          {
            "reference": "urn:uuid:1d676418-fa8f-4817-8a0d-94aae4eabe7b"
          }
        ],
        "result": [
          {
            "reference": "urn:uuid:5d414500-7033-4b98-b076-5b95f8bf2821"
          },
          {
            "reference": "urn:uuid:d7c2c675-2e98-4e01-9953-36c6224a7987"
          },
          {
            "reference": "urn:uuid:d4172197-a06b-4541-a3a6-af7be5f10a62"
          },
          {
            "reference": "urn:uuid:d62f5384-9f15-46cc-80cf-e5a815e66d95"
          },
          {
            "reference": "urn:uuid:4b179699-7ad5-4ddb-943f-0f1ccc21549f"
          },
          {
            "reference": "urn:uuid:8c2c437a-f212-4e72-93b9-1d6b562727b5"
          },
          {
            "reference": "urn:uuid:69b9465e-6826-4d1f-94d5-278bd6b3607f"
          },
          {
            "reference": "urn:uuid:b9c3dcbe-c4a9-4f9f-b407-7689bec8a3c8"
          },
          {
            "reference": "urn:uuid:4d9f9bb6-0581-478f-9651-4bc6358ed57b"
          },
          {
            "reference": "urn:uuid:357e628d-8559-4741-8b91-3400ca122f4f"
          },
          {
            "reference": "urn:uuid:501352ff-ded3-443b-a766-207ccba93c19"
          },
          {
            "reference": "urn:uuid:9ba58046-62d8-4856-a004-0e68a848a42b"
          },
          {
            "reference": "urn:uuid:60c9a917-9c80-4dab-a24b-88c9d561a275"
          },
          {
            "reference": "urn:uuid:7f4e6451-1925-4144-aaee-1626e92444b5"
          },
          {
            "reference": "urn:uuid:c38b3685-d335-4a80-9d8c-7a2a45b5fc9d"
          },
          {
            "reference": "urn:uuid:d779063d-e4ae-4a73-ac8d-fdd622ff0b56"
          },
          {
            "reference": "urn:uuid:4681a7be-cb1a-4200-9bc8-79bb2404f0ab"
          },
          {
            "reference": "urn:uuid:5040520c-cea0-428f-893e-4040a2fddf00"
          },
          {
            "reference": "urn:uuid:bd548ac9-5ff2-4134-a343-5d356014fff2"
          },
          {
            "reference": "urn:uuid:6409edbe-9bb3-41ad-8c9e-e7416101c1cd"
          },
          {
            "reference": "urn:uuid:011b49f5-f4b4-42e7-aa7a-75f886293562"
          },
          {
            "reference": "urn:uuid:17c5ba41-6dea-420a-a01c-3b9ab29b4b89"
          },
          {
            "reference": "urn:uuid:feeb04f8-0b5f-489b-add2-f6e88bbabacd"
          },
          {
            "reference": "urn:uuid:665886f6-3935-4deb-99a5-368432736a77"
          },
          {
            "reference": "urn:uuid:3728317f-97b0-4f0c-b08f-4515c660d984"
          },
          {
            "reference": "urn:uuid:92cbaa8f-ed23-4cb2-8f03-c9a0b10253f9"
          },
          {
            "reference": "urn:uuid:7bc51320-baf5-40a8-8336-0d163b95683c"
          },
          {
            "reference": "urn:uuid:71095708-44ae-44ea-ba93-9b52d7e2cd96"
          },
          {
            "reference": "urn:uuid:3e46b788-3513-4043-b344-de0d226a5fae"
          },
          {
            "reference": "urn:uuid:0a40b2ef-5cea-4d2e-aae0-e702670fd692"
          },
          {
            "reference": "urn:uuid:608b8991-50f9-47f0-b95d-a309812c1325"
          },
          {
            "reference": "urn:uuid:be592d50-9cfa-435b-9efe-f59e3bee9a53"
          },
          {
            "reference": "urn:uuid:7b9a44d7-7d48-4a7f-87fc-b7817b776780"
          },
          {
            "reference": "urn:uuid:d6fcc145-211a-4d7c-9cc5-c4058f1d3c85"
          }
        ],
        "status": "registered",
        "code": {
          "coding": [
            {
              "code": "11502-2",
              "system": "http://loinc.org",
              "display": "Laboratory report"
            }
          ]
        },
        "subject": {
          "reference": "urn:uuid:70b352e1-3dd2-47a4-ad64-869df5b654d7",
          "display": "Pelayo Casal"
        }
      }
    },
    {
      "fullUrl": "urn:uuid:70b352e1-3dd2-47a4-ad64-869df5b654d7",
      "resource": {
        "resourceType": "Patient",
        "id": "70b352e1-3dd2-47a4-ad64-869df5b654d7",
        "meta": {
          "security": [
            {
              "system": "http://terminology.hl7.org/CodeSystem/v3-ActReason",
              "code": "HTEST"
            },
            {
              "system": "http://terminology.hl7.org/CodeSystem/v3-ActReason",
              "code": "TRAIN"
            }
          ],
          "tag": [
            {
              "system": "https://synderai.net/fhir/CodeSystem/tags",
              "code": "synthetic",
              "display": "SYNDERAI Synthetic data"
            }
          ],
          "profile": [
            "http://hl7.eu/fhir/base/StructureDefinition/patient-eu-core"
          ]
        },
        "identifier": [
          {
            "type": {
              "coding": [
                {
                  "code": "PT",
                  "system": "http://terminology.hl7.org/CodeSystem/v2-0203"
                }
              ]
            },
            "system": "http://ec.europa.eu/identifier/eci",
            "value": "7707-510028-7"
          },
          {
            "type": {
              "coding": [
                {
                  "code": "MR",
                  "system": "http://terminology.hl7.org/CodeSystem/v2-0203"
                }
              ]
            },
            "system": "http://local.setting.eu/identifier",
            "value": "d88e82c6-df33-82d2-8538-f8b57da06491"
          }
        ],
        "name": [
          {
            "family": "Casal"
          },
          {
            "given": [
              "Pelayo"
            ]
          },
          {
            "text": "Pelayo Casal"
          }
        ],
        "address": [
          {
            "line": [
              "Callejón de Ignacio Pedrosa 67 Apt. 68 "
            ],
            "use": "home",
            "type": "physical",
            "postalCode": "35001",
            "city": "Las Palmas",
            "country": "Spain"
          }
        ],
        "telecom": [
          {
            "system": "phone",
            "value": "+34 875724898"
          }
        ],
        "extension": [
          {
            "url": "http://hl7.org/fhir/StructureDefinition/patient-nationality",
            "valueCodeableConcept": {
              "coding": [
                {
                  "code": "ES",
                  "system": "http://hl7.org/fhir/ValueSet/country"
                }
              ]
            }
          }
        ],
        "text": {
          "status": "generated",
          "div": "<div xmlns=\"http://www.w3.org/1999/xhtml\"><table class=\"hl7__ips\"><tr><td>Pelayo Casal</td><td>male</td><td>19-Apr-1940</td></tr></table></div>"
        },
        "gender": "male",
        "birthDate": "1940-04-19"
      }
    },
    {
      "fullUrl": "urn:uuid:4e420a98-98d2-47d2-a48e-8bdf5651b273",
      "resource": {
        "resourceType": "ServiceRequest",
        "id": "4e420a98-98d2-47d2-a48e-8bdf5651b273",
        "meta": {
          "profile": [
            "http://hl7.eu/fhir/laboratory/StructureDefinition/ServiceRequest-eu-lab"
          ]
        },
        "identifier": [
          {
            "system": "http://example.org",
            "value": "aac2f094-9beb-4c96-8243-66cf95b98bc1"
          }
        ],
        "specimen": [
          {
            "reference": "urn:uuid:9b84208b-62e7-429c-a738-70b19f8dc608"
          },
          {
            "reference": "urn:uuid:676fbfd4-bb5a-4a83-91fb-2bb37d90d194"
          },
          {
            "reference": "urn:uuid:1d676418-fa8f-4817-8a0d-94aae4eabe7b"
          }
        ],
        "reasonCode": [
          {
            "coding": [
              {
                "code": "431856006",
                "system": "http://snomed.info/sct",
                "display": "Chronic kidney disease stage 2"
              }
            ]
          },
          {
            "coding": [
              {
                "code": "90781000119102",
                "system": "http://snomed.info/sct",
                "display": "Microalbuminuria due to type 2 diabetes mellitus"
              }
            ]
          },
          {
            "coding": [
              {
                "code": "127013003",
                "system": "http://snomed.info/sct",
                "display": "Disorder of kidney due to diabetes mellitus"
              }
            ]
          },
          {
            "coding": [
              {
                "code": "431855005",
                "system": "http://snomed.info/sct",
                "display": "Chronic kidney disease stage 1"
              }
            ]
          },
          {
            "coding": [
              {
                "code": "64859006",
                "system": "http://snomed.info/sct",
                "display": "Osteoporosis"
              }
            ]
          },
          {
            "coding": [
              {
                "code": "414545008",
                "system": "http://snomed.info/sct",
                "display": "Ischemic heart disease"
              }
            ]
          },
          {
            "coding": [
              {
                "code": "237602007",
                "system": "http://snomed.info/sct",
                "display": "Metabolic syndrome X"
              }
            ]
          },
          {
            "coding": [
              {
                "code": "59621000",
                "system": "http://snomed.info/sct",
                "display": "Essential hypertension"
              }
            ]
          },
          {
            "coding": [
              {
                "code": "271737000",
                "system": "http://snomed.info/sct",
                "display": "Anemia"
              }
            ]
          },
          {
            "coding": [
              {
                "code": "15777000",
                "system": "http://snomed.info/sct",
                "display": "Prediabetes"
              }
            ]
          }
        ],
        "status": "active",
        "intent": "order",
        "code": {
          "coding": [
            {
              "code": "108252007",
              "system": "http://snomed.info/sct",
              "display": "Laboratory procedure"
            }
          ]
        },
        "subject": {
          "reference": "urn:uuid:70b352e1-3dd2-47a4-ad64-869df5b654d7",
          "display": "Pelayo Casal"
        },
        "requester": {
          "reference": "urn:uuid:a8f5a301-9116-4802-bcf6-b5a9c1f7b494"
        }
      }
    },
    {
      "fullUrl": "urn:uuid:a8f5a301-9116-4802-bcf6-b5a9c1f7b494",
      "resource": {
        "resourceType": "PractitionerRole",
        "id": "a8f5a301-9116-4802-bcf6-b5a9c1f7b494",
        "meta": {
          "profile": [
            "http://hl7.eu/fhir/base/StructureDefinition/practitionerRole-eu"
          ]
        },
        "text": {
          "status": "generated",
          "div": "<div xmlns=\"http://www.w3.org/1999/xhtml\">Provider Role Id: a8f5a301-9116-4802-bcf6-b5a9c1f7b494</div>"
        },
        "organization": {
          "reference": "urn:uuid:4287a00c-ce12-495a-b473-b10eb618ff17"
        }
      }
    },
    {
      "fullUrl": "urn:uuid:4287a00c-ce12-495a-b473-b10eb618ff17",
      "resource": {
        "resourceType": "Organization",
        "id": "4287a00c-ce12-495a-b473-b10eb618ff17",
        "meta": {
          "profile": [
            "http://hl7.eu/fhir/base/StructureDefinition/organization-eu"
          ]
        },
        "identifier": [
          {
            "assigner": {
              "display": "HL7 Europe"
            },
            "system": "urn:oid:2.16.840.1.113883.2.51.999",
            "value": "9b3e8e59-78c4-43de-b4d7-93e99fec718f"
          }
        ],
        "address": [
          {
            "country": "Spain"
          }
        ],
        "text": {
          "status": "generated",
          "div": "<div xmlns=\"http://www.w3.org/1999/xhtml\">Provider Organization: Centro de Salud de Guanarteme</div>"
        },
        "name": "Centro de Salud de Guanarteme"
      }
    },
    {
      "fullUrl": "urn:uuid:9b84208b-62e7-429c-a738-70b19f8dc608",
      "resource": {
        "resourceType": "Specimen",
        "id": "9b84208b-62e7-429c-a738-70b19f8dc608",
        "meta": {
          "profile": [
            "http://hl7.eu/fhir/laboratory/StructureDefinition/Specimen-eu-lab"
          ]
        },
        "collection": {
          "collectedDateTime": "2021-03-11"
        },
        "text": {
          "status": "generated",
          "div": "<div xmlns=\"http://www.w3.org/1999/xhtml\"><table class=\"hl7__eu__lab__report\"><tr><th>Specimen</th><th>Collection Date</th></tr><tr><td>Acellular blood (serum or plasma) specimen</td><td><span class=\"nb\">11-Mar-2021</span></td></tr></table></div>"
        },
        "type": {
          "coding": [
            {
              "code": "122592007",
              "system": "http://snomed.info/sct",
              "display": "Acellular blood (serum or plasma) specimen"
            }
          ]
        }
      }
    },
    {
      "fullUrl": "urn:uuid:676fbfd4-bb5a-4a83-91fb-2bb37d90d194",
      "resource": {
        "resourceType": "Specimen",
        "id": "676fbfd4-bb5a-4a83-91fb-2bb37d90d194",
        "meta": {
          "profile": [
            "http://hl7.eu/fhir/laboratory/StructureDefinition/Specimen-eu-lab"
          ]
        },
        "collection": {
          "collectedDateTime": "2021-03-11"
        },
        "text": {
          "status": "generated",
          "div": "<div xmlns=\"http://www.w3.org/1999/xhtml\"><table class=\"hl7__eu__lab__report\"><tr><th>Specimen</th><th>Collection Date</th></tr><tr><td>Urine specimen</td><td><span class=\"nb\">11-Mar-2021</span></td></tr></table></div>"
        },
        "type": {
          "coding": [
            {
              "code": "122575003",
              "system": "http://snomed.info/sct",
              "display": "Urine specimen"
            }
          ]
        }
      }
    },
    {
      "fullUrl": "urn:uuid:1d676418-fa8f-4817-8a0d-94aae4eabe7b",
      "resource": {
        "resourceType": "Specimen",
        "id": "1d676418-fa8f-4817-8a0d-94aae4eabe7b",
        "meta": {
          "profile": [
            "http://hl7.eu/fhir/laboratory/StructureDefinition/Specimen-eu-lab"
          ]
        },
        "collection": {
          "collectedDateTime": "2021-03-11"
        },
        "text": {
          "status": "generated",
          "div": "<div xmlns=\"http://www.w3.org/1999/xhtml\"><table class=\"hl7__eu__lab__report\"><tr><th>Specimen</th><th>Collection Date</th></tr><tr><td>Whole blood specimen (specimen)</td><td><span class=\"nb\">11-Mar-2021</span></td></tr></table></div>"
        },
        "type": {
          "coding": [
            {
              "code": "258580003",
              "system": "http://snomed.info/sct",
              "display": "Whole blood specimen (specimen)"
            }
          ]
        }
      }
    },
    {
      "fullUrl": "urn:uuid:5d414500-7033-4b98-b076-5b95f8bf2821",
      "resource": {
        "resourceType": "Observation",
        "id": "5d414500-7033-4b98-b076-5b95f8bf2821",
        "meta": {
          "profile": [
            "http://hl7.eu/fhir/laboratory/StructureDefinition/Observation-resultslab-eu-lab"
          ]
        },
        "performer": [
          {
            "display": "The Central European Lab"
          }
        ],
        "category": [
          {
            "coding": [
              {
                "system": "http://terminology.hl7.org/CodeSystem/observation-category",
                "code": "laboratory"
              }
            ]
          }
        ],
        "code": {
          "coding": [
            {
              "code": "2345-7",
              "system": "http://loinc.org",
              "display": "Glucose [Mass/volume] in Serum or Plasma"
            }
          ],
          "text": "Glucose [Mass/volume] in Serum or Plasma"
        },
        "valueQuantity": {
          "system": "http://unitsofmeasure.org",
          "value": 96.8,
          "unit": "mg/dL",
          "code": "mg/dL"
        },
        "referenceRange": [
          {
            "low": {
              "value": 70,
              "code": "mg/dL",
              "system": "http://unitsofmeasure.org"
            }
          },
          {
            "high": {
              "value": 140,
              "code": "mg/dL",
              "system": "http://unitsofmeasure.org"
            }
          }
        ],
        "text": {
          "status": "generated",
          "div": "<div xmlns=\"http://www.w3.org/1999/xhtml\"><table class=\"hl7__eu__lab__report\"><tr><th>Test</th><th>11-Mar-2021</th><th>Reference&#xA0;Range</th><th>Unit</th></tr><tr><td>Glucose [Mass/volume] in Serum or Plasma</td><td>96.8</td><td>70 - 140</td><td></td><td>mg/dL</td></tr></table></div>"
        },
        "status": "final",
        "subject": {
          "reference": "urn:uuid:70b352e1-3dd2-47a4-ad64-869df5b654d7",
          "display": "Pelayo Casal"
        },
        "effectiveDateTime": "2021-03-11T05:38:59Z",
        "specimen": {
          "reference": "urn:uuid:9b84208b-62e7-429c-a738-70b19f8dc608"
        }
      }
    },
    {
      "fullUrl": "urn:uuid:d7c2c675-2e98-4e01-9953-36c6224a7987",
      "resource": {
        "resourceType": "Observation",
        "id": "d7c2c675-2e98-4e01-9953-36c6224a7987",
        "meta": {
          "profile": [
            "http://hl7.eu/fhir/laboratory/StructureDefinition/Observation-resultslab-eu-lab"
          ]
        },
        "performer": [
          {
            "display": "The Central European Lab"
          }
        ],
        "category": [
          {
            "coding": [
              {
                "system": "http://terminology.hl7.org/CodeSystem/observation-category",
                "code": "laboratory"
              }
            ]
          }
        ],
        "code": {
          "coding": [
            {
              "code": "3094-0",
              "system": "http://loinc.org",
              "display": "Urea nitrogen [Mass/volume] in Serum or Plasma"
            }
          ],
          "text": "Urea nitrogen [Mass/volume] in Serum or Plasma"
        },
        "valueQuantity": {
          "system": "http://unitsofmeasure.org",
          "value": 14.6,
          "unit": "mg/dL",
          "code": "mg/dL"
        },
        "referenceRange": [
          {
            "low": {
              "value": 7,
              "code": "mg/dL",
              "system": "http://unitsofmeasure.org"
            }
          },
          {
            "high": {
              "value": 25,
              "code": "mg/dL",
              "system": "http://unitsofmeasure.org"
            }
          }
        ],
        "text": {
          "status": "generated",
          "div": "<div xmlns=\"http://www.w3.org/1999/xhtml\"><table class=\"hl7__eu__lab__report\"><tr><th>Test</th><th>11-Mar-2021</th><th>Reference&#xA0;Range</th><th>Unit</th></tr><tr><td>Urea nitrogen [Mass/volume] in Serum or Plasma</td><td>14.6</td><td>7 - 25</td><td></td><td>mg/dL</td></tr></table></div>"
        },
        "status": "final",
        "subject": {
          "reference": "urn:uuid:70b352e1-3dd2-47a4-ad64-869df5b654d7",
          "display": "Pelayo Casal"
        },
        "effectiveDateTime": "2021-03-11T05:38:59Z",
        "specimen": {
          "reference": "urn:uuid:9b84208b-62e7-429c-a738-70b19f8dc608"
        }
      }
    },
    {
      "fullUrl": "urn:uuid:d4172197-a06b-4541-a3a6-af7be5f10a62",
      "resource": {
        "resourceType": "Observation",
        "id": "d4172197-a06b-4541-a3a6-af7be5f10a62",
        "meta": {
          "profile": [
            "http://hl7.eu/fhir/laboratory/StructureDefinition/Observation-resultslab-eu-lab"
          ]
        },
        "performer": [
          {
            "display": "The Central European Lab"
          }
        ],
        "category": [
          {
            "coding": [
              {
                "system": "http://terminology.hl7.org/CodeSystem/observation-category",
                "code": "laboratory"
              }
            ]
          }
        ],
        "code": {
          "coding": [
            {
              "code": "2160-0",
              "system": "http://loinc.org",
              "display": "Creatinine [Mass/volume] in Serum or Plasma"
            }
          ],
          "text": "Creatinine [Mass/volume] in Serum or Plasma"
        },
        "valueQuantity": {
          "system": "http://unitsofmeasure.org",
          "value": 2,
          "unit": "mg/dL",
          "code": "mg/dL"
        },
        "referenceRange": [
          {
            "low": {
              "value": 0.9,
              "code": "mg/dL",
              "system": "http://unitsofmeasure.org"
            }
          },
          {
            "high": {
              "value": 1.3,
              "code": "mg/dL",
              "system": "http://unitsofmeasure.org"
            }
          }
        ],
        "interpretation": [
          {
            "coding": [
              {
                "code": "H",
                "system": "http://terminology.hl7.org/CodeSystem/v3-ObservationInterpretation",
                "display": "High"
              }
            ]
          }
        ],
        "text": {
          "status": "generated",
          "div": "<div xmlns=\"http://www.w3.org/1999/xhtml\"><table class=\"hl7__eu__lab__report\"><tr><th>Test</th><th>11-Mar-2021</th><th>Reference&#xA0;Range</th><th>Unit</th></tr><tr><td>Creatinine [Mass/volume] in Serum or Plasma</td><td>2.0</td><td>0.9 - 1.3</td><td>H</td><td>mg/dL</td></tr></table></div>"
        },
        "status": "final",
        "subject": {
          "reference": "urn:uuid:70b352e1-3dd2-47a4-ad64-869df5b654d7",
          "display": "Pelayo Casal"
        },
        "effectiveDateTime": "2021-03-11T05:38:59Z",
        "specimen": {
          "reference": "urn:uuid:9b84208b-62e7-429c-a738-70b19f8dc608"
        }
      }
    },
    {
      "fullUrl": "urn:uuid:d62f5384-9f15-46cc-80cf-e5a815e66d95",
      "resource": {
        "resourceType": "Observation",
        "id": "d62f5384-9f15-46cc-80cf-e5a815e66d95",
        "meta": {
          "profile": [
            "http://hl7.eu/fhir/laboratory/StructureDefinition/Observation-resultslab-eu-lab"
          ]
        },
        "performer": [
          {
            "display": "The Central European Lab"
          }
        ],
        "category": [
          {
            "coding": [
              {
                "system": "http://terminology.hl7.org/CodeSystem/observation-category",
                "code": "laboratory"
              }
            ]
          }
        ],
        "code": {
          "coding": [
            {
              "code": "17861-6",
              "system": "http://loinc.org",
              "display": "Calcium [Mass/volume] in Serum or Plasma"
            }
          ],
          "text": "Calcium [Mass/volume] in Serum or Plasma"
        },
        "valueQuantity": {
          "system": "http://unitsofmeasure.org",
          "value": 9.7,
          "unit": "mg/dL",
          "code": "mg/dL"
        },
        "referenceRange": [
          {
            "low": {
              "value": 8.5,
              "code": "mg/dL",
              "system": "http://unitsofmeasure.org"
            }
          },
          {
            "high": {
              "value": 10.5,
              "code": "mg/dL",
              "system": "http://unitsofmeasure.org"
            }
          }
        ],
        "text": {
          "status": "generated",
          "div": "<div xmlns=\"http://www.w3.org/1999/xhtml\"><table class=\"hl7__eu__lab__report\"><tr><th>Test</th><th>11-Mar-2021</th><th>Reference&#xA0;Range</th><th>Unit</th></tr><tr><td>Calcium [Mass/volume] in Serum or Plasma</td><td>9.7</td><td>8.5 - 10.5</td><td></td><td>mg/dL</td></tr></table></div>"
        },
        "status": "final",
        "subject": {
          "reference": "urn:uuid:70b352e1-3dd2-47a4-ad64-869df5b654d7",
          "display": "Pelayo Casal"
        },
        "effectiveDateTime": "2021-03-11T05:38:59Z",
        "specimen": {
          "reference": "urn:uuid:9b84208b-62e7-429c-a738-70b19f8dc608"
        }
      }
    },
    {
      "fullUrl": "urn:uuid:4b179699-7ad5-4ddb-943f-0f1ccc21549f",
      "resource": {
        "resourceType": "Observation",
        "id": "4b179699-7ad5-4ddb-943f-0f1ccc21549f",
        "meta": {
          "profile": [
            "http://hl7.eu/fhir/laboratory/StructureDefinition/Observation-resultslab-eu-lab"
          ]
        },
        "performer": [
          {
            "display": "The Central European Lab"
          }
        ],
        "category": [
          {
            "coding": [
              {
                "system": "http://terminology.hl7.org/CodeSystem/observation-category",
                "code": "laboratory"
              }
            ]
          }
        ],
        "code": {
          "coding": [
            {
              "code": "2951-2",
              "system": "http://loinc.org",
              "display": "Sodium [Moles/volume] in Serum or Plasma"
            }
          ],
          "text": "Sodium [Moles/volume] in Serum or Plasma"
        },
        "valueQuantity": {
          "system": "http://unitsofmeasure.org",
          "value": 143.5,
          "unit": "mmol/L",
          "code": "mmol/L"
        },
        "referenceRange": [
          {
            "low": {
              "value": 135,
              "code": "mmol/L",
              "system": "http://unitsofmeasure.org"
            }
          },
          {
            "high": {
              "value": 145,
              "code": "mmol/L",
              "system": "http://unitsofmeasure.org"
            }
          }
        ],
        "text": {
          "status": "generated",
          "div": "<div xmlns=\"http://www.w3.org/1999/xhtml\"><table class=\"hl7__eu__lab__report\"><tr><th>Test</th><th>11-Mar-2021</th><th>Reference&#xA0;Range</th><th>Unit</th></tr><tr><td>Sodium [Moles/volume] in Serum or Plasma</td><td>143.5</td><td>135 - 145</td><td></td><td>mmol/L</td></tr></table></div>"
        },
        "status": "final",
        "subject": {
          "reference": "urn:uuid:70b352e1-3dd2-47a4-ad64-869df5b654d7",
          "display": "Pelayo Casal"
        },
        "effectiveDateTime": "2021-03-11T05:38:59Z",
        "specimen": {
          "reference": "urn:uuid:9b84208b-62e7-429c-a738-70b19f8dc608"
        }
      }
    },
    {
      "fullUrl": "urn:uuid:8c2c437a-f212-4e72-93b9-1d6b562727b5",
      "resource": {
        "resourceType": "Observation",
        "id": "8c2c437a-f212-4e72-93b9-1d6b562727b5",
        "meta": {
          "profile": [
            "http://hl7.eu/fhir/laboratory/StructureDefinition/Observation-resultslab-eu-lab"
          ]
        },
        "performer": [
          {
            "display": "The Central European Lab"
          }
        ],
        "category": [
          {
            "coding": [
              {
                "system": "http://terminology.hl7.org/CodeSystem/observation-category",
                "code": "laboratory"
              }
            ]
          }
        ],
        "code": {
          "coding": [
            {
              "code": "2823-3",
              "system": "http://loinc.org",
              "display": "Potassium [Moles/volume] in Serum or Plasma"
            }
          ],
          "text": "Potassium [Moles/volume] in Serum or Plasma"
        },
        "valueQuantity": {
          "system": "http://unitsofmeasure.org",
          "value": 4.8,
          "unit": "mmol/L",
          "code": "mmol/L"
        },
        "referenceRange": [
          {
            "low": {
              "value": 3.5,
              "code": "mmol/L",
              "system": "http://unitsofmeasure.org"
            }
          },
          {
            "high": {
              "value": 5.3,
              "code": "mmol/L",
              "system": "http://unitsofmeasure.org"
            }
          }
        ],
        "text": {
          "status": "generated",
          "div": "<div xmlns=\"http://www.w3.org/1999/xhtml\"><table class=\"hl7__eu__lab__report\"><tr><th>Test</th><th>11-Mar-2021</th><th>Reference&#xA0;Range</th><th>Unit</th></tr><tr><td>Potassium [Moles/volume] in Serum or Plasma</td><td>4.8</td><td>3.5 - 5.3</td><td></td><td>mmol/L</td></tr></table></div>"
        },
        "status": "final",
        "subject": {
          "reference": "urn:uuid:70b352e1-3dd2-47a4-ad64-869df5b654d7",
          "display": "Pelayo Casal"
        },
        "effectiveDateTime": "2021-03-11T05:38:59Z",
        "specimen": {
          "reference": "urn:uuid:9b84208b-62e7-429c-a738-70b19f8dc608"
        }
      }
    },
    {
      "fullUrl": "urn:uuid:69b9465e-6826-4d1f-94d5-278bd6b3607f",
      "resource": {
        "resourceType": "Observation",
        "id": "69b9465e-6826-4d1f-94d5-278bd6b3607f",
        "meta": {
          "profile": [
            "http://hl7.eu/fhir/laboratory/StructureDefinition/Observation-resultslab-eu-lab"
          ]
        },
        "performer": [
          {
            "display": "The Central European Lab"
          }
        ],
        "category": [
          {
            "coding": [
              {
                "system": "http://terminology.hl7.org/CodeSystem/observation-category",
                "code": "laboratory"
              }
            ]
          }
        ],
        "code": {
          "coding": [
            {
              "code": "2075-0",
              "system": "http://loinc.org",
              "display": "Chloride [Moles/volume] in Serum or Plasma"
            }
          ],
          "text": "Chloride [Moles/volume] in Serum or Plasma"
        },
        "valueQuantity": {
          "system": "http://unitsofmeasure.org",
          "value": 104.6,
          "unit": "mmol/L",
          "code": "mmol/L"
        },
        "referenceRange": [
          {
            "low": {
              "value": 98,
              "code": "mmol/L",
              "system": "http://unitsofmeasure.org"
            }
          },
          {
            "high": {
              "value": 107,
              "code": "mmol/L",
              "system": "http://unitsofmeasure.org"
            }
          }
        ],
        "text": {
          "status": "generated",
          "div": "<div xmlns=\"http://www.w3.org/1999/xhtml\"><table class=\"hl7__eu__lab__report\"><tr><th>Test</th><th>11-Mar-2021</th><th>Reference&#xA0;Range</th><th>Unit</th></tr><tr><td>Chloride [Moles/volume] in Serum or Plasma</td><td>104.6</td><td>98 - 107</td><td></td><td>mmol/L</td></tr></table></div>"
        },
        "status": "final",
        "subject": {
          "reference": "urn:uuid:70b352e1-3dd2-47a4-ad64-869df5b654d7",
          "display": "Pelayo Casal"
        },
        "effectiveDateTime": "2021-03-11T05:38:59Z",
        "specimen": {
          "reference": "urn:uuid:9b84208b-62e7-429c-a738-70b19f8dc608"
        }
      }
    },
    {
      "fullUrl": "urn:uuid:b9c3dcbe-c4a9-4f9f-b407-7689bec8a3c8",
      "resource": {
        "resourceType": "Observation",
        "id": "b9c3dcbe-c4a9-4f9f-b407-7689bec8a3c8",
        "meta": {
          "profile": [
            "http://hl7.eu/fhir/laboratory/StructureDefinition/Observation-resultslab-eu-lab"
          ]
        },
        "performer": [
          {
            "display": "The Central European Lab"
          }
        ],
        "category": [
          {
            "coding": [
              {
                "system": "http://terminology.hl7.org/CodeSystem/observation-category",
                "code": "laboratory"
              }
            ]
          }
        ],
        "code": {
          "coding": [
            {
              "code": "2028-9",
              "system": "http://loinc.org",
              "display": "Carbon dioxide, total [Moles/volume] in Serum or Plasma"
            }
          ],
          "text": "Carbon dioxide, total [Moles/volume] in Serum or Plasma"
        },
        "valueQuantity": {
          "system": "http://unitsofmeasure.org",
          "value": 25.3,
          "unit": "mmol/L",
          "code": "mmol/L"
        },
        "referenceRange": [
          {
            "low": {
              "value": 22,
              "code": "mmol/L",
              "system": "http://unitsofmeasure.org"
            }
          },
          {
            "high": {
              "value": 29,
              "code": "mmol/L",
              "system": "http://unitsofmeasure.org"
            }
          }
        ],
        "text": {
          "status": "generated",
          "div": "<div xmlns=\"http://www.w3.org/1999/xhtml\"><table class=\"hl7__eu__lab__report\"><tr><th>Test</th><th>11-Mar-2021</th><th>Reference&#xA0;Range</th><th>Unit</th></tr><tr><td>Carbon dioxide, total [Moles/volume] in Serum or Plasma</td><td>25.3</td><td>22 - 29</td><td></td><td>mmol/L</td></tr></table></div>"
        },
        "status": "final",
        "subject": {
          "reference": "urn:uuid:70b352e1-3dd2-47a4-ad64-869df5b654d7",
          "display": "Pelayo Casal"
        },
        "effectiveDateTime": "2021-03-11T05:38:59Z",
        "specimen": {
          "reference": "urn:uuid:9b84208b-62e7-429c-a738-70b19f8dc608"
        }
      }
    },
    {
      "fullUrl": "urn:uuid:4d9f9bb6-0581-478f-9651-4bc6358ed57b",
      "resource": {
        "resourceType": "Observation",
        "id": "4d9f9bb6-0581-478f-9651-4bc6358ed57b",
        "meta": {
          "profile": [
            "http://hl7.eu/fhir/laboratory/StructureDefinition/Observation-resultslab-eu-lab"
          ]
        },
        "performer": [
          {
            "display": "The Central European Lab"
          }
        ],
        "category": [
          {
            "coding": [
              {
                "system": "http://terminology.hl7.org/CodeSystem/observation-category",
                "code": "laboratory"
              }
            ]
          }
        ],
        "code": {
          "coding": [
            {
              "code": "5767-9",
              "system": "http://loinc.org",
              "display": "Appearance of Urine"
            }
          ],
          "text": "Appearance of Urine"
        },
        "text": {
          "status": "generated",
          "div": "<div xmlns=\"http://www.w3.org/1999/xhtml\"><table class=\"hl7__eu__lab__report\"><tr><th>Test</th><th>11-Mar-2021</th><th>Reference&#xA0;Range</th><th>Unit</th></tr><tr><td>Appearance of Urine</td></tr></table></div>"
        },
        "status": "final",
        "subject": {
          "reference": "urn:uuid:70b352e1-3dd2-47a4-ad64-869df5b654d7",
          "display": "Pelayo Casal"
        },
        "effectiveDateTime": "2021-03-11T05:38:59Z",
        "specimen": {
          "reference": "urn:uuid:676fbfd4-bb5a-4a83-91fb-2bb37d90d194"
        }
      }
    },
    {
      "fullUrl": "urn:uuid:357e628d-8559-4741-8b91-3400ca122f4f",
      "resource": {
        "resourceType": "Observation",
        "id": "357e628d-8559-4741-8b91-3400ca122f4f",
        "meta": {
          "profile": [
            "http://hl7.eu/fhir/laboratory/StructureDefinition/Observation-resultslab-eu-lab"
          ]
        },
        "performer": [
          {
            "display": "The Central European Lab"
          }
        ],
        "category": [
          {
            "coding": [
              {
                "system": "http://terminology.hl7.org/CodeSystem/observation-category",
                "code": "laboratory"
              }
            ]
          }
        ],
        "code": {
          "coding": [
            {
              "code": "34533-0",
              "system": "http://loinc.org",
              "display": "Odor of Urine"
            }
          ],
          "text": "Odor of Urine"
        },
        "text": {
          "status": "generated",
          "div": "<div xmlns=\"http://www.w3.org/1999/xhtml\"><table class=\"hl7__eu__lab__report\"><tr><th>Test</th><th>11-Mar-2021</th><th>Reference&#xA0;Range</th><th>Unit</th></tr><tr><td>Odor of Urine</td></tr></table></div>"
        },
        "status": "final",
        "subject": {
          "reference": "urn:uuid:70b352e1-3dd2-47a4-ad64-869df5b654d7",
          "display": "Pelayo Casal"
        },
        "effectiveDateTime": "2021-03-11T05:38:59Z",
        "specimen": {
          "reference": "urn:uuid:676fbfd4-bb5a-4a83-91fb-2bb37d90d194"
        }
      }
    },
    {
      "fullUrl": "urn:uuid:501352ff-ded3-443b-a766-207ccba93c19",
      "resource": {
        "resourceType": "Observation",
        "id": "501352ff-ded3-443b-a766-207ccba93c19",
        "meta": {
          "profile": [
            "http://hl7.eu/fhir/laboratory/StructureDefinition/Observation-resultslab-eu-lab"
          ]
        },
        "performer": [
          {
            "display": "The Central European Lab"
          }
        ],
        "category": [
          {
            "coding": [
              {
                "system": "http://terminology.hl7.org/CodeSystem/observation-category",
                "code": "laboratory"
              }
            ]
          }
        ],
        "code": {
          "coding": [
            {
              "code": "32167-9",
              "system": "http://loinc.org",
              "display": "Clarity of Urine"
            }
          ],
          "text": "Clarity of Urine"
        },
        "text": {
          "status": "generated",
          "div": "<div xmlns=\"http://www.w3.org/1999/xhtml\"><table class=\"hl7__eu__lab__report\"><tr><th>Test</th><th>11-Mar-2021</th><th>Reference&#xA0;Range</th><th>Unit</th></tr><tr><td>Clarity of Urine</td></tr></table></div>"
        },
        "status": "final",
        "subject": {
          "reference": "urn:uuid:70b352e1-3dd2-47a4-ad64-869df5b654d7",
          "display": "Pelayo Casal"
        },
        "effectiveDateTime": "2021-03-11T05:38:59Z",
        "specimen": {
          "reference": "urn:uuid:676fbfd4-bb5a-4a83-91fb-2bb37d90d194"
        }
      }
    },
    {
      "fullUrl": "urn:uuid:9ba58046-62d8-4856-a004-0e68a848a42b",
      "resource": {
        "resourceType": "Observation",
        "id": "9ba58046-62d8-4856-a004-0e68a848a42b",
        "meta": {
          "profile": [
            "http://hl7.eu/fhir/laboratory/StructureDefinition/Observation-resultslab-eu-lab"
          ]
        },
        "performer": [
          {
            "display": "The Central European Lab"
          }
        ],
        "category": [
          {
            "coding": [
              {
                "system": "http://terminology.hl7.org/CodeSystem/observation-category",
                "code": "laboratory"
              }
            ]
          }
        ],
        "code": {
          "coding": [
            {
              "code": "5778-6",
              "system": "http://loinc.org",
              "display": "Color of Urine"
            }
          ],
          "text": "Color of Urine"
        },
        "text": {
          "status": "generated",
          "div": "<div xmlns=\"http://www.w3.org/1999/xhtml\"><table class=\"hl7__eu__lab__report\"><tr><th>Test</th><th>11-Mar-2021</th><th>Reference&#xA0;Range</th><th>Unit</th></tr><tr><td>Color of Urine</td></tr></table></div>"
        },
        "status": "final",
        "subject": {
          "reference": "urn:uuid:70b352e1-3dd2-47a4-ad64-869df5b654d7",
          "display": "Pelayo Casal"
        },
        "effectiveDateTime": "2021-03-11T05:38:59Z",
        "specimen": {
          "reference": "urn:uuid:676fbfd4-bb5a-4a83-91fb-2bb37d90d194"
        }
      }
    },
    {
      "fullUrl": "urn:uuid:60c9a917-9c80-4dab-a24b-88c9d561a275",
      "resource": {
        "resourceType": "Observation",
        "id": "60c9a917-9c80-4dab-a24b-88c9d561a275",
        "meta": {
          "profile": [
            "http://hl7.eu/fhir/laboratory/StructureDefinition/Observation-resultslab-eu-lab"
          ]
        },
        "performer": [
          {
            "display": "The Central European Lab"
          }
        ],
        "category": [
          {
            "coding": [
              {
                "system": "http://terminology.hl7.org/CodeSystem/observation-category",
                "code": "laboratory"
              }
            ]
          }
        ],
        "code": {
          "coding": [
            {
              "code": "5792-7",
              "system": "http://loinc.org",
              "display": "Glucose [Mass/volume] in Urine by Test strip"
            }
          ],
          "text": "Glucose [Mass/volume] in Urine by Test strip"
        },
        "valueQuantity": {
          "system": "http://unitsofmeasure.org",
          "value": 0.7,
          "unit": "mg/dL",
          "code": "mg/dL"
        },
        "referenceRange": [
          {
            "low": {
              "value": 0.8,
              "code": "mg/dL",
              "system": "http://unitsofmeasure.org"
            }
          },
          {
            "high": {
              "value": 0,
              "code": "mg/dL",
              "system": "http://unitsofmeasure.org"
            }
          }
        ],
        "interpretation": [
          {
            "coding": [
              {
                "code": "L",
                "system": "http://terminology.hl7.org/CodeSystem/v3-ObservationInterpretation",
                "display": "Low"
              }
            ]
          }
        ],
        "text": {
          "status": "generated",
          "div": "<div xmlns=\"http://www.w3.org/1999/xhtml\"><table class=\"hl7__eu__lab__report\"><tr><th>Test</th><th>11-Mar-2021</th><th>Reference&#xA0;Range</th><th>Unit</th></tr><tr><td>Glucose [Mass/volume] in Urine by Test strip</td><td>0.7</td><td>0.8 - 0</td><td>L</td><td>mg/dL</td></tr></table></div>"
        },
        "status": "final",
        "subject": {
          "reference": "urn:uuid:70b352e1-3dd2-47a4-ad64-869df5b654d7",
          "display": "Pelayo Casal"
        },
        "effectiveDateTime": "2021-03-11T05:38:59Z",
        "specimen": {
          "reference": "urn:uuid:676fbfd4-bb5a-4a83-91fb-2bb37d90d194"
        }
      }
    },
    {
      "fullUrl": "urn:uuid:7f4e6451-1925-4144-aaee-1626e92444b5",
      "resource": {
        "resourceType": "Observation",
        "id": "7f4e6451-1925-4144-aaee-1626e92444b5",
        "meta": {
          "profile": [
            "http://hl7.eu/fhir/laboratory/StructureDefinition/Observation-resultslab-eu-lab"
          ]
        },
        "performer": [
          {
            "display": "The Central European Lab"
          }
        ],
        "category": [
          {
            "coding": [
              {
                "system": "http://terminology.hl7.org/CodeSystem/observation-category",
                "code": "laboratory"
              }
            ]
          }
        ],
        "code": {
          "coding": [
            {
              "code": "25428-4",
              "system": "http://loinc.org",
              "display": "Glucose [Presence] in Urine by Test strip"
            }
          ],
          "text": "Glucose [Presence] in Urine by Test strip"
        },
        "text": {
          "status": "generated",
          "div": "<div xmlns=\"http://www.w3.org/1999/xhtml\"><table class=\"hl7__eu__lab__report\"><tr><th>Test</th><th>11-Mar-2021</th><th>Reference&#xA0;Range</th><th>Unit</th></tr><tr><td>Glucose [Presence] in Urine by Test strip</td></tr></table></div>"
        },
        "status": "final",
        "subject": {
          "reference": "urn:uuid:70b352e1-3dd2-47a4-ad64-869df5b654d7",
          "display": "Pelayo Casal"
        },
        "effectiveDateTime": "2021-03-11T05:38:59Z",
        "specimen": {
          "reference": "urn:uuid:676fbfd4-bb5a-4a83-91fb-2bb37d90d194"
        }
      }
    },
    {
      "fullUrl": "urn:uuid:c38b3685-d335-4a80-9d8c-7a2a45b5fc9d",
      "resource": {
        "resourceType": "Observation",
        "id": "c38b3685-d335-4a80-9d8c-7a2a45b5fc9d",
        "meta": {
          "profile": [
            "http://hl7.eu/fhir/laboratory/StructureDefinition/Observation-resultslab-eu-lab"
          ]
        },
        "performer": [
          {
            "display": "The Central European Lab"
          }
        ],
        "category": [
          {
            "coding": [
              {
                "system": "http://terminology.hl7.org/CodeSystem/observation-category",
                "code": "laboratory"
              }
            ]
          }
        ],
        "code": {
          "coding": [
            {
              "code": "20505-4",
              "system": "http://loinc.org",
              "display": "Bilirubin.total [Mass/volume] in Urine by Test strip"
            }
          ],
          "text": "Bilirubin.total [Mass/volume] in Urine by Test strip"
        },
        "valueQuantity": {
          "system": "http://unitsofmeasure.org",
          "value": 0.8,
          "unit": "mg/dL",
          "code": "mg/dL"
        },
        "referenceRange": [
          {
            "low": {
              "value": 0.2,
              "code": "mg/dL",
              "system": "http://unitsofmeasure.org"
            }
          },
          {
            "high": {
              "value": 1.5,
              "code": "mg/dL",
              "system": "http://unitsofmeasure.org"
            }
          }
        ],
        "text": {
          "status": "generated",
          "div": "<div xmlns=\"http://www.w3.org/1999/xhtml\"><table class=\"hl7__eu__lab__report\"><tr><th>Test</th><th>11-Mar-2021</th><th>Reference&#xA0;Range</th><th>Unit</th></tr><tr><td>Bilirubin.total [Mass/volume] in Urine by Test strip</td><td>0.8</td><td>0.2 - 1.5</td><td></td><td>mg/dL</td></tr></table></div>"
        },
        "status": "final",
        "subject": {
          "reference": "urn:uuid:70b352e1-3dd2-47a4-ad64-869df5b654d7",
          "display": "Pelayo Casal"
        },
        "effectiveDateTime": "2021-03-11T05:38:59Z",
        "specimen": {
          "reference": "urn:uuid:676fbfd4-bb5a-4a83-91fb-2bb37d90d194"
        }
      }
    },
    {
      "fullUrl": "urn:uuid:d779063d-e4ae-4a73-ac8d-fdd622ff0b56",
      "resource": {
        "resourceType": "Observation",
        "id": "d779063d-e4ae-4a73-ac8d-fdd622ff0b56",
        "meta": {
          "profile": [
            "http://hl7.eu/fhir/laboratory/StructureDefinition/Observation-resultslab-eu-lab"
          ]
        },
        "performer": [
          {
            "display": "The Central European Lab"
          }
        ],
        "category": [
          {
            "coding": [
              {
                "system": "http://terminology.hl7.org/CodeSystem/observation-category",
                "code": "laboratory"
              }
            ]
          }
        ],
        "code": {
          "coding": [
            {
              "code": "5770-3",
              "system": "http://loinc.org",
              "display": "Bilirubin.total [Presence] in Urine by Test strip"
            }
          ],
          "text": "Bilirubin.total [Presence] in Urine by Test strip"
        },
        "text": {
          "status": "generated",
          "div": "<div xmlns=\"http://www.w3.org/1999/xhtml\"><table class=\"hl7__eu__lab__report\"><tr><th>Test</th><th>11-Mar-2021</th><th>Reference&#xA0;Range</th><th>Unit</th></tr><tr><td>Bilirubin.total [Presence] in Urine by Test strip</td></tr></table></div>"
        },
        "status": "final",
        "subject": {
          "reference": "urn:uuid:70b352e1-3dd2-47a4-ad64-869df5b654d7",
          "display": "Pelayo Casal"
        },
        "effectiveDateTime": "2021-03-11T05:38:59Z",
        "specimen": {
          "reference": "urn:uuid:676fbfd4-bb5a-4a83-91fb-2bb37d90d194"
        }
      }
    },
    {
      "fullUrl": "urn:uuid:4681a7be-cb1a-4200-9bc8-79bb2404f0ab",
      "resource": {
        "resourceType": "Observation",
        "id": "4681a7be-cb1a-4200-9bc8-79bb2404f0ab",
        "meta": {
          "profile": [
            "http://hl7.eu/fhir/laboratory/StructureDefinition/Observation-resultslab-eu-lab"
          ]
        },
        "performer": [
          {
            "display": "The Central European Lab"
          }
        ],
        "category": [
          {
            "coding": [
              {
                "system": "http://terminology.hl7.org/CodeSystem/observation-category",
                "code": "laboratory"
              }
            ]
          }
        ],
        "code": {
          "coding": [
            {
              "code": "5797-6",
              "system": "http://loinc.org",
              "display": "Ketones [Mass/volume] in Urine by Test strip"
            }
          ],
          "text": "Ketones [Mass/volume] in Urine by Test strip"
        },
        "valueQuantity": {
          "system": "http://unitsofmeasure.org",
          "value": 19.9,
          "unit": "mg/dL",
          "code": "mg/dL"
        },
        "referenceRange": [
          {
            "low": {
              "value": 0,
              "code": "mg/dL",
              "system": "http://unitsofmeasure.org"
            }
          },
          {
            "high": {
              "value": 4,
              "code": "mg/dL",
              "system": "http://unitsofmeasure.org"
            }
          }
        ],
        "interpretation": [
          {
            "coding": [
              {
                "code": "H",
                "system": "http://terminology.hl7.org/CodeSystem/v3-ObservationInterpretation",
                "display": "High"
              }
            ]
          }
        ],
        "text": {
          "status": "generated",
          "div": "<div xmlns=\"http://www.w3.org/1999/xhtml\"><table class=\"hl7__eu__lab__report\"><tr><th>Test</th><th>11-Mar-2021</th><th>Reference&#xA0;Range</th><th>Unit</th></tr><tr><td>Ketones [Mass/volume] in Urine by Test strip</td><td>19.9</td><td>0 - 4</td><td>H</td><td>mg/dL</td></tr></table></div>"
        },
        "status": "final",
        "subject": {
          "reference": "urn:uuid:70b352e1-3dd2-47a4-ad64-869df5b654d7",
          "display": "Pelayo Casal"
        },
        "effectiveDateTime": "2021-03-11T05:38:59Z",
        "specimen": {
          "reference": "urn:uuid:676fbfd4-bb5a-4a83-91fb-2bb37d90d194"
        }
      }
    },
    {
      "fullUrl": "urn:uuid:5040520c-cea0-428f-893e-4040a2fddf00",
      "resource": {
        "resourceType": "Observation",
        "id": "5040520c-cea0-428f-893e-4040a2fddf00",
        "meta": {
          "profile": [
            "http://hl7.eu/fhir/laboratory/StructureDefinition/Observation-resultslab-eu-lab"
          ]
        },
        "performer": [
          {
            "display": "The Central European Lab"
          }
        ],
        "category": [
          {
            "coding": [
              {
                "system": "http://terminology.hl7.org/CodeSystem/observation-category",
                "code": "laboratory"
              }
            ]
          }
        ],
        "code": {
          "coding": [
            {
              "code": "2514-8",
              "system": "http://loinc.org",
              "display": "Ketones [Presence] in Urine by Test strip"
            }
          ],
          "text": "Ketones [Presence] in Urine by Test strip"
        },
        "text": {
          "status": "generated",
          "div": "<div xmlns=\"http://www.w3.org/1999/xhtml\"><table class=\"hl7__eu__lab__report\"><tr><th>Test</th><th>11-Mar-2021</th><th>Reference&#xA0;Range</th><th>Unit</th></tr><tr><td>Ketones [Presence] in Urine by Test strip</td></tr></table></div>"
        },
        "status": "final",
        "subject": {
          "reference": "urn:uuid:70b352e1-3dd2-47a4-ad64-869df5b654d7",
          "display": "Pelayo Casal"
        },
        "effectiveDateTime": "2021-03-11T05:38:59Z",
        "specimen": {
          "reference": "urn:uuid:676fbfd4-bb5a-4a83-91fb-2bb37d90d194"
        }
      }
    },
    {
      "fullUrl": "urn:uuid:bd548ac9-5ff2-4134-a343-5d356014fff2",
      "resource": {
        "resourceType": "Observation",
        "id": "bd548ac9-5ff2-4134-a343-5d356014fff2",
        "meta": {
          "profile": [
            "http://hl7.eu/fhir/laboratory/StructureDefinition/Observation-resultslab-eu-lab"
          ]
        },
        "performer": [
          {
            "display": "The Central European Lab"
          }
        ],
        "category": [
          {
            "coding": [
              {
                "system": "http://terminology.hl7.org/CodeSystem/observation-category",
                "code": "laboratory"
              }
            ]
          }
        ],
        "code": {
          "coding": [
            {
              "code": "5811-5",
              "system": "http://loinc.org",
              "display": "Specific gravity of Urine by Test strip"
            }
          ],
          "text": "Specific gravity of Urine by Test strip"
        },
        "valueQuantity": {
          "system": "http://unitsofmeasure.org",
          "value": 1,
          "unit": "{nominal}",
          "code": "{nominal}"
        },
        "referenceRange": [
          {
            "low": {
              "value": 1.01,
              "code": "g/mL",
              "system": "http://unitsofmeasure.org"
            }
          },
          {
            "high": {
              "value": 1.03,
              "code": "g/mL",
              "system": "http://unitsofmeasure.org"
            }
          }
        ],
        "interpretation": [
          {
            "coding": [
              {
                "code": "L",
                "system": "http://terminology.hl7.org/CodeSystem/v3-ObservationInterpretation",
                "display": "Low"
              }
            ]
          }
        ],
        "text": {
          "status": "generated",
          "div": "<div xmlns=\"http://www.w3.org/1999/xhtml\"><table class=\"hl7__eu__lab__report\"><tr><th>Test</th><th>11-Mar-2021</th><th>Reference&#xA0;Range</th><th>Unit</th></tr><tr><td>Specific gravity of Urine by Test strip</td><td>1.0</td><td>1.01 - 1.03</td><td>L</td><td>{nominal}</td></tr></table></div>"
        },
        "status": "final",
        "subject": {
          "reference": "urn:uuid:70b352e1-3dd2-47a4-ad64-869df5b654d7",
          "display": "Pelayo Casal"
        },
        "effectiveDateTime": "2021-03-11T05:38:59Z",
        "specimen": {
          "reference": "urn:uuid:676fbfd4-bb5a-4a83-91fb-2bb37d90d194"
        }
      }
    },
    {
      "fullUrl": "urn:uuid:6409edbe-9bb3-41ad-8c9e-e7416101c1cd",
      "resource": {
        "resourceType": "Observation",
        "id": "6409edbe-9bb3-41ad-8c9e-e7416101c1cd",
        "meta": {
          "profile": [
            "http://hl7.eu/fhir/laboratory/StructureDefinition/Observation-resultslab-eu-lab"
          ]
        },
        "performer": [
          {
            "display": "The Central European Lab"
          }
        ],
        "category": [
          {
            "coding": [
              {
                "system": "http://terminology.hl7.org/CodeSystem/observation-category",
                "code": "laboratory"
              }
            ]
          }
        ],
        "code": {
          "coding": [
            {
              "code": "5803-2",
              "system": "http://loinc.org",
              "display": "pH of Urine by Test strip"
            }
          ],
          "text": "pH of Urine by Test strip"
        },
        "valueQuantity": {
          "system": "http://unitsofmeasure.org",
          "value": 5.7,
          "unit": "pH",
          "code": "pH"
        },
        "referenceRange": [
          {
            "low": {
              "value": 4.5,
              "code": "pH",
              "system": "http://unitsofmeasure.org"
            }
          },
          {
            "high": {
              "value": 7.5,
              "code": "pH",
              "system": "http://unitsofmeasure.org"
            }
          }
        ],
        "text": {
          "status": "generated",
          "div": "<div xmlns=\"http://www.w3.org/1999/xhtml\"><table class=\"hl7__eu__lab__report\"><tr><th>Test</th><th>11-Mar-2021</th><th>Reference&#xA0;Range</th><th>Unit</th></tr><tr><td>pH of Urine by Test strip</td><td>5.7</td><td>4.5 - 7.5</td><td></td><td>pH</td></tr></table></div>"
        },
        "status": "final",
        "subject": {
          "reference": "urn:uuid:70b352e1-3dd2-47a4-ad64-869df5b654d7",
          "display": "Pelayo Casal"
        },
        "effectiveDateTime": "2021-03-11T05:38:59Z",
        "specimen": {
          "reference": "urn:uuid:676fbfd4-bb5a-4a83-91fb-2bb37d90d194"
        }
      }
    },
    {
      "fullUrl": "urn:uuid:011b49f5-f4b4-42e7-aa7a-75f886293562",
      "resource": {
        "resourceType": "Observation",
        "id": "011b49f5-f4b4-42e7-aa7a-75f886293562",
        "meta": {
          "profile": [
            "http://hl7.eu/fhir/laboratory/StructureDefinition/Observation-resultslab-eu-lab"
          ]
        },
        "performer": [
          {
            "display": "The Central European Lab"
          }
        ],
        "category": [
          {
            "coding": [
              {
                "system": "http://terminology.hl7.org/CodeSystem/observation-category",
                "code": "laboratory"
              }
            ]
          }
        ],
        "code": {
          "coding": [
            {
              "code": "5804-0",
              "system": "http://loinc.org",
              "display": "Protein [Mass/volume] in Urine by Test strip"
            }
          ],
          "text": "Protein [Mass/volume] in Urine by Test strip"
        },
        "valueQuantity": {
          "system": "http://unitsofmeasure.org",
          "value": 280.8,
          "unit": "mg/dL",
          "code": "mg/dL"
        },
        "referenceRange": [
          {
            "low": {
              "value": 0,
              "code": "mg/dL",
              "system": "http://unitsofmeasure.org"
            }
          },
          {
            "high": {
              "value": 150,
              "code": "mg/dL",
              "system": "http://unitsofmeasure.org"
            }
          }
        ],
        "interpretation": [
          {
            "coding": [
              {
                "code": "H",
                "system": "http://terminology.hl7.org/CodeSystem/v3-ObservationInterpretation",
                "display": "High"
              }
            ]
          }
        ],
        "text": {
          "status": "generated",
          "div": "<div xmlns=\"http://www.w3.org/1999/xhtml\"><table class=\"hl7__eu__lab__report\"><tr><th>Test</th><th>11-Mar-2021</th><th>Reference&#xA0;Range</th><th>Unit</th></tr><tr><td>Protein [Mass/volume] in Urine by Test strip</td><td>280.8</td><td>0 - 150</td><td>H</td><td>mg/dL</td></tr></table></div>"
        },
        "status": "final",
        "subject": {
          "reference": "urn:uuid:70b352e1-3dd2-47a4-ad64-869df5b654d7",
          "display": "Pelayo Casal"
        },
        "effectiveDateTime": "2021-03-11T05:38:59Z",
        "specimen": {
          "reference": "urn:uuid:676fbfd4-bb5a-4a83-91fb-2bb37d90d194"
        }
      }
    },
    {
      "fullUrl": "urn:uuid:17c5ba41-6dea-420a-a01c-3b9ab29b4b89",
      "resource": {
        "resourceType": "Observation",
        "id": "17c5ba41-6dea-420a-a01c-3b9ab29b4b89",
        "meta": {
          "profile": [
            "http://hl7.eu/fhir/laboratory/StructureDefinition/Observation-resultslab-eu-lab"
          ]
        },
        "performer": [
          {
            "display": "The Central European Lab"
          }
        ],
        "category": [
          {
            "coding": [
              {
                "system": "http://terminology.hl7.org/CodeSystem/observation-category",
                "code": "laboratory"
              }
            ]
          }
        ],
        "code": {
          "coding": [
            {
              "code": "20454-5",
              "system": "http://loinc.org",
              "display": "Protein [Presence] in Urine by Test strip"
            }
          ],
          "text": "Protein [Presence] in Urine by Test strip"
        },
        "text": {
          "status": "generated",
          "div": "<div xmlns=\"http://www.w3.org/1999/xhtml\"><table class=\"hl7__eu__lab__report\"><tr><th>Test</th><th>11-Mar-2021</th><th>Reference&#xA0;Range</th><th>Unit</th></tr><tr><td>Protein [Presence] in Urine by Test strip</td></tr></table></div>"
        },
        "status": "final",
        "subject": {
          "reference": "urn:uuid:70b352e1-3dd2-47a4-ad64-869df5b654d7",
          "display": "Pelayo Casal"
        },
        "effectiveDateTime": "2021-03-11T05:38:59Z",
        "specimen": {
          "reference": "urn:uuid:676fbfd4-bb5a-4a83-91fb-2bb37d90d194"
        }
      }
    },
    {
      "fullUrl": "urn:uuid:feeb04f8-0b5f-489b-add2-f6e88bbabacd",
      "resource": {
        "resourceType": "Observation",
        "id": "feeb04f8-0b5f-489b-add2-f6e88bbabacd",
        "meta": {
          "profile": [
            "http://hl7.eu/fhir/laboratory/StructureDefinition/Observation-resultslab-eu-lab"
          ]
        },
        "performer": [
          {
            "display": "The Central European Lab"
          }
        ],
        "category": [
          {
            "coding": [
              {
                "system": "http://terminology.hl7.org/CodeSystem/observation-category",
                "code": "laboratory"
              }
            ]
          }
        ],
        "code": {
          "coding": [
            {
              "code": "5802-4",
              "system": "http://loinc.org",
              "display": "Nitrite [Presence] in Urine by Test strip"
            }
          ],
          "text": "Nitrite [Presence] in Urine by Test strip"
        },
        "text": {
          "status": "generated",
          "div": "<div xmlns=\"http://www.w3.org/1999/xhtml\"><table class=\"hl7__eu__lab__report\"><tr><th>Test</th><th>11-Mar-2021</th><th>Reference&#xA0;Range</th><th>Unit</th></tr><tr><td>Nitrite [Presence] in Urine by Test strip</td></tr></table></div>"
        },
        "status": "final",
        "subject": {
          "reference": "urn:uuid:70b352e1-3dd2-47a4-ad64-869df5b654d7",
          "display": "Pelayo Casal"
        },
        "effectiveDateTime": "2021-03-11T05:38:59Z",
        "specimen": {
          "reference": "urn:uuid:676fbfd4-bb5a-4a83-91fb-2bb37d90d194"
        }
      }
    },
    {
      "fullUrl": "urn:uuid:665886f6-3935-4deb-99a5-368432736a77",
      "resource": {
        "resourceType": "Observation",
        "id": "665886f6-3935-4deb-99a5-368432736a77",
        "meta": {
          "profile": [
            "http://hl7.eu/fhir/laboratory/StructureDefinition/Observation-resultslab-eu-lab"
          ]
        },
        "performer": [
          {
            "display": "The Central European Lab"
          }
        ],
        "category": [
          {
            "coding": [
              {
                "system": "http://terminology.hl7.org/CodeSystem/observation-category",
                "code": "laboratory"
              }
            ]
          }
        ],
        "code": {
          "coding": [
            {
              "code": "5794-3",
              "system": "http://loinc.org",
              "display": "Hemoglobin [Presence] in Urine by Test strip"
            }
          ],
          "text": "Hemoglobin [Presence] in Urine by Test strip"
        },
        "text": {
          "status": "generated",
          "div": "<div xmlns=\"http://www.w3.org/1999/xhtml\"><table class=\"hl7__eu__lab__report\"><tr><th>Test</th><th>11-Mar-2021</th><th>Reference&#xA0;Range</th><th>Unit</th></tr><tr><td>Hemoglobin [Presence] in Urine by Test strip</td></tr></table></div>"
        },
        "status": "final",
        "subject": {
          "reference": "urn:uuid:70b352e1-3dd2-47a4-ad64-869df5b654d7",
          "display": "Pelayo Casal"
        },
        "effectiveDateTime": "2021-03-11T05:38:59Z",
        "specimen": {
          "reference": "urn:uuid:676fbfd4-bb5a-4a83-91fb-2bb37d90d194"
        }
      }
    },
    {
      "fullUrl": "urn:uuid:3728317f-97b0-4f0c-b08f-4515c660d984",
      "resource": {
        "resourceType": "Observation",
        "id": "3728317f-97b0-4f0c-b08f-4515c660d984",
        "meta": {
          "profile": [
            "http://hl7.eu/fhir/laboratory/StructureDefinition/Observation-resultslab-eu-lab"
          ]
        },
        "performer": [
          {
            "display": "The Central European Lab"
          }
        ],
        "category": [
          {
            "coding": [
              {
                "system": "http://terminology.hl7.org/CodeSystem/observation-category",
                "code": "laboratory"
              }
            ]
          }
        ],
        "code": {
          "coding": [
            {
              "code": "5799-2",
              "system": "http://loinc.org",
              "display": "Leukocyte esterase [Presence] in Urine by Test strip"
            }
          ],
          "text": "Leukocyte esterase [Presence] in Urine by Test strip"
        },
        "text": {
          "status": "generated",
          "div": "<div xmlns=\"http://www.w3.org/1999/xhtml\"><table class=\"hl7__eu__lab__report\"><tr><th>Test</th><th>11-Mar-2021</th><th>Reference&#xA0;Range</th><th>Unit</th></tr><tr><td>Leukocyte esterase [Presence] in Urine by Test strip</td></tr></table></div>"
        },
        "status": "final",
        "subject": {
          "reference": "urn:uuid:70b352e1-3dd2-47a4-ad64-869df5b654d7",
          "display": "Pelayo Casal"
        },
        "effectiveDateTime": "2021-03-11T05:38:59Z",
        "specimen": {
          "reference": "urn:uuid:676fbfd4-bb5a-4a83-91fb-2bb37d90d194"
        }
      }
    },
    {
      "fullUrl": "urn:uuid:92cbaa8f-ed23-4cb2-8f03-c9a0b10253f9",
      "resource": {
        "resourceType": "Observation",
        "id": "92cbaa8f-ed23-4cb2-8f03-c9a0b10253f9",
        "meta": {
          "profile": [
            "http://hl7.eu/fhir/laboratory/StructureDefinition/Observation-resultslab-eu-lab"
          ]
        },
        "performer": [
          {
            "display": "The Central European Lab"
          }
        ],
        "category": [
          {
            "coding": [
              {
                "system": "http://terminology.hl7.org/CodeSystem/observation-category",
                "code": "laboratory"
              }
            ]
          }
        ],
        "code": {
          "coding": [
            {
              "code": "4548-4",
              "system": "http://loinc.org",
              "display": "Hemoglobin A1c/Hemoglobin.total in Blood"
            }
          ],
          "text": "Hemoglobin A1c/Hemoglobin.total in Blood"
        },
        "valueQuantity": {
          "system": "http://unitsofmeasure.org",
          "value": 3,
          "unit": "%",
          "code": "%"
        },
        "referenceRange": [
          {
            "low": {
              "value": 4.5,
              "code": "%",
              "system": "http://unitsofmeasure.org"
            }
          },
          {
            "high": {
              "value": 6.4,
              "code": "%",
              "system": "http://unitsofmeasure.org"
            }
          }
        ],
        "interpretation": [
          {
            "coding": [
              {
                "code": "L",
                "system": "http://terminology.hl7.org/CodeSystem/v3-ObservationInterpretation",
                "display": "Low"
              }
            ]
          }
        ],
        "text": {
          "status": "generated",
          "div": "<div xmlns=\"http://www.w3.org/1999/xhtml\"><table class=\"hl7__eu__lab__report\"><tr><th>Test</th><th>11-Mar-2021</th><th>Reference&#xA0;Range</th><th>Unit</th></tr><tr><td>Hemoglobin A1c/Hemoglobin.total in Blood</td><td>3.0</td><td>4.5 - 6.4</td><td>L</td><td>%</td></tr></table></div>"
        },
        "status": "final",
        "subject": {
          "reference": "urn:uuid:70b352e1-3dd2-47a4-ad64-869df5b654d7",
          "display": "Pelayo Casal"
        },
        "effectiveDateTime": "2021-03-11T05:38:59Z",
        "specimen": {
          "reference": "urn:uuid:1d676418-fa8f-4817-8a0d-94aae4eabe7b"
        }
      }
    },
    {
      "fullUrl": "urn:uuid:7bc51320-baf5-40a8-8336-0d163b95683c",
      "resource": {
        "resourceType": "Observation",
        "id": "7bc51320-baf5-40a8-8336-0d163b95683c",
        "meta": {
          "profile": [
            "http://hl7.eu/fhir/laboratory/StructureDefinition/Observation-resultslab-eu-lab"
          ]
        },
        "performer": [
          {
            "display": "The Central European Lab"
          }
        ],
        "category": [
          {
            "coding": [
              {
                "system": "http://terminology.hl7.org/CodeSystem/observation-category",
                "code": "laboratory"
              }
            ]
          }
        ],
        "code": {
          "coding": [
            {
              "code": "2339-0",
              "system": "http://loinc.org",
              "display": "Glucose [Mass/volume] in Blood"
            }
          ],
          "text": "Glucose [Mass/volume] in Blood"
        },
        "valueQuantity": {
          "system": "http://unitsofmeasure.org",
          "value": 96.8,
          "unit": "mg/dL",
          "code": "mg/dL"
        },
        "referenceRange": [
          {
            "low": {
              "value": 70,
              "code": "mg/dL",
              "system": "http://unitsofmeasure.org"
            }
          },
          {
            "high": {
              "value": 140,
              "code": "mg/dL",
              "system": "http://unitsofmeasure.org"
            }
          }
        ],
        "text": {
          "status": "generated",
          "div": "<div xmlns=\"http://www.w3.org/1999/xhtml\"><table class=\"hl7__eu__lab__report\"><tr><th>Test</th><th>11-Mar-2021</th><th>Reference&#xA0;Range</th><th>Unit</th></tr><tr><td>Glucose [Mass/volume] in Blood</td><td>96.8</td><td>70 - 140</td><td></td><td>mg/dL</td></tr></table></div>"
        },
        "status": "final",
        "subject": {
          "reference": "urn:uuid:70b352e1-3dd2-47a4-ad64-869df5b654d7",
          "display": "Pelayo Casal"
        },
        "effectiveDateTime": "2021-03-11T05:38:59Z",
        "specimen": {
          "reference": "urn:uuid:1d676418-fa8f-4817-8a0d-94aae4eabe7b"
        }
      }
    },
    {
      "fullUrl": "urn:uuid:71095708-44ae-44ea-ba93-9b52d7e2cd96",
      "resource": {
        "resourceType": "Observation",
        "id": "71095708-44ae-44ea-ba93-9b52d7e2cd96",
        "meta": {
          "profile": [
            "http://hl7.eu/fhir/laboratory/StructureDefinition/Observation-resultslab-eu-lab"
          ]
        },
        "performer": [
          {
            "display": "The Central European Lab"
          }
        ],
        "category": [
          {
            "coding": [
              {
                "system": "http://terminology.hl7.org/CodeSystem/observation-category",
                "code": "laboratory"
              }
            ]
          }
        ],
        "code": {
          "coding": [
            {
              "code": "6299-2",
              "system": "http://loinc.org",
              "display": "Urea nitrogen [Mass/volume] in Blood"
            }
          ],
          "text": "Urea nitrogen [Mass/volume] in Blood"
        },
        "valueQuantity": {
          "system": "http://unitsofmeasure.org",
          "value": 14.6,
          "unit": "mg/dL",
          "code": "mg/dL"
        },
        "referenceRange": [
          {
            "low": {
              "value": 7,
              "code": "mg/dL",
              "system": "http://unitsofmeasure.org"
            }
          },
          {
            "high": {
              "value": 25,
              "code": "mg/dL",
              "system": "http://unitsofmeasure.org"
            }
          }
        ],
        "text": {
          "status": "generated",
          "div": "<div xmlns=\"http://www.w3.org/1999/xhtml\"><table class=\"hl7__eu__lab__report\"><tr><th>Test</th><th>11-Mar-2021</th><th>Reference&#xA0;Range</th><th>Unit</th></tr><tr><td>Urea nitrogen [Mass/volume] in Blood</td><td>14.6</td><td>7 - 25</td><td></td><td>mg/dL</td></tr></table></div>"
        },
        "status": "final",
        "subject": {
          "reference": "urn:uuid:70b352e1-3dd2-47a4-ad64-869df5b654d7",
          "display": "Pelayo Casal"
        },
        "effectiveDateTime": "2021-03-11T05:38:59Z",
        "specimen": {
          "reference": "urn:uuid:1d676418-fa8f-4817-8a0d-94aae4eabe7b"
        }
      }
    },
    {
      "fullUrl": "urn:uuid:3e46b788-3513-4043-b344-de0d226a5fae",
      "resource": {
        "resourceType": "Observation",
        "id": "3e46b788-3513-4043-b344-de0d226a5fae",
        "meta": {
          "profile": [
            "http://hl7.eu/fhir/laboratory/StructureDefinition/Observation-resultslab-eu-lab"
          ]
        },
        "performer": [
          {
            "display": "The Central European Lab"
          }
        ],
        "category": [
          {
            "coding": [
              {
                "system": "http://terminology.hl7.org/CodeSystem/observation-category",
                "code": "laboratory"
              }
            ]
          }
        ],
        "code": {
          "coding": [
            {
              "code": "38483-4",
              "system": "http://loinc.org",
              "display": "Creatinine [Mass/volume] in Blood"
            }
          ],
          "text": "Creatinine [Mass/volume] in Blood"
        },
        "valueQuantity": {
          "system": "http://unitsofmeasure.org",
          "value": 1.8,
          "unit": "mg/dL",
          "code": "mg/dL"
        },
        "referenceRange": [
          {
            "low": {
              "value": 0.9,
              "code": "mg/dL",
              "system": "http://unitsofmeasure.org"
            }
          },
          {
            "high": {
              "value": 1.3,
              "code": "mg/dL",
              "system": "http://unitsofmeasure.org"
            }
          }
        ],
        "interpretation": [
          {
            "coding": [
              {
                "code": "H",
                "system": "http://terminology.hl7.org/CodeSystem/v3-ObservationInterpretation",
                "display": "High"
              }
            ]
          }
        ],
        "text": {
          "status": "generated",
          "div": "<div xmlns=\"http://www.w3.org/1999/xhtml\"><table class=\"hl7__eu__lab__report\"><tr><th>Test</th><th>11-Mar-2021</th><th>Reference&#xA0;Range</th><th>Unit</th></tr><tr><td>Creatinine [Mass/volume] in Blood</td><td>1.8</td><td>0.9 - 1.3</td><td>H</td><td>mg/dL</td></tr></table></div>"
        },
        "status": "final",
        "subject": {
          "reference": "urn:uuid:70b352e1-3dd2-47a4-ad64-869df5b654d7",
          "display": "Pelayo Casal"
        },
        "effectiveDateTime": "2021-03-11T05:38:59Z",
        "specimen": {
          "reference": "urn:uuid:1d676418-fa8f-4817-8a0d-94aae4eabe7b"
        }
      }
    },
    {
      "fullUrl": "urn:uuid:0a40b2ef-5cea-4d2e-aae0-e702670fd692",
      "resource": {
        "resourceType": "Observation",
        "id": "0a40b2ef-5cea-4d2e-aae0-e702670fd692",
        "meta": {
          "profile": [
            "http://hl7.eu/fhir/laboratory/StructureDefinition/Observation-resultslab-eu-lab"
          ]
        },
        "performer": [
          {
            "display": "The Central European Lab"
          }
        ],
        "category": [
          {
            "coding": [
              {
                "system": "http://terminology.hl7.org/CodeSystem/observation-category",
                "code": "laboratory"
              }
            ]
          }
        ],
        "code": {
          "coding": [
            {
              "code": "49765-1",
              "system": "http://loinc.org",
              "display": "Calcium [Mass/volume] in Blood"
            }
          ],
          "text": "Calcium [Mass/volume] in Blood"
        },
        "valueQuantity": {
          "system": "http://unitsofmeasure.org",
          "value": 9.7,
          "unit": "mg/dL",
          "code": "mg/dL"
        },
        "referenceRange": [
          {
            "low": {
              "value": 8.6,
              "code": "mg/dL",
              "system": "http://unitsofmeasure.org"
            }
          },
          {
            "high": {
              "value": 10.2,
              "code": "mg/dL",
              "system": "http://unitsofmeasure.org"
            }
          }
        ],
        "text": {
          "status": "generated",
          "div": "<div xmlns=\"http://www.w3.org/1999/xhtml\"><table class=\"hl7__eu__lab__report\"><tr><th>Test</th><th>11-Mar-2021</th><th>Reference&#xA0;Range</th><th>Unit</th></tr><tr><td>Calcium [Mass/volume] in Blood</td><td>9.7</td><td>8.6 - 10.2</td><td></td><td>mg/dL</td></tr></table></div>"
        },
        "status": "final",
        "subject": {
          "reference": "urn:uuid:70b352e1-3dd2-47a4-ad64-869df5b654d7",
          "display": "Pelayo Casal"
        },
        "effectiveDateTime": "2021-03-11T05:38:59Z",
        "specimen": {
          "reference": "urn:uuid:1d676418-fa8f-4817-8a0d-94aae4eabe7b"
        }
      }
    },
    {
      "fullUrl": "urn:uuid:608b8991-50f9-47f0-b95d-a309812c1325",
      "resource": {
        "resourceType": "Observation",
        "id": "608b8991-50f9-47f0-b95d-a309812c1325",
        "meta": {
          "profile": [
            "http://hl7.eu/fhir/laboratory/StructureDefinition/Observation-resultslab-eu-lab"
          ]
        },
        "performer": [
          {
            "display": "The Central European Lab"
          }
        ],
        "category": [
          {
            "coding": [
              {
                "system": "http://terminology.hl7.org/CodeSystem/observation-category",
                "code": "laboratory"
              }
            ]
          }
        ],
        "code": {
          "coding": [
            {
              "code": "2947-0",
              "system": "http://loinc.org",
              "display": "Sodium [Moles/volume] in Blood"
            }
          ],
          "text": "Sodium [Moles/volume] in Blood"
        },
        "valueQuantity": {
          "system": "http://unitsofmeasure.org",
          "value": 143.5,
          "unit": "mmol/L",
          "code": "mmol/L"
        },
        "referenceRange": [
          {
            "low": {
              "value": 135,
              "code": "mmol/L",
              "system": "http://unitsofmeasure.org"
            }
          },
          {
            "high": {
              "value": 145,
              "code": "mmol/L",
              "system": "http://unitsofmeasure.org"
            }
          }
        ],
        "text": {
          "status": "generated",
          "div": "<div xmlns=\"http://www.w3.org/1999/xhtml\"><table class=\"hl7__eu__lab__report\"><tr><th>Test</th><th>11-Mar-2021</th><th>Reference&#xA0;Range</th><th>Unit</th></tr><tr><td>Sodium [Moles/volume] in Blood</td><td>143.5</td><td>135 - 145</td><td></td><td>mmol/L</td></tr></table></div>"
        },
        "status": "final",
        "subject": {
          "reference": "urn:uuid:70b352e1-3dd2-47a4-ad64-869df5b654d7",
          "display": "Pelayo Casal"
        },
        "effectiveDateTime": "2021-03-11T05:38:59Z",
        "specimen": {
          "reference": "urn:uuid:1d676418-fa8f-4817-8a0d-94aae4eabe7b"
        }
      }
    },
    {
      "fullUrl": "urn:uuid:be592d50-9cfa-435b-9efe-f59e3bee9a53",
      "resource": {
        "resourceType": "Observation",
        "id": "be592d50-9cfa-435b-9efe-f59e3bee9a53",
        "meta": {
          "profile": [
            "http://hl7.eu/fhir/laboratory/StructureDefinition/Observation-resultslab-eu-lab"
          ]
        },
        "performer": [
          {
            "display": "The Central European Lab"
          }
        ],
        "category": [
          {
            "coding": [
              {
                "system": "http://terminology.hl7.org/CodeSystem/observation-category",
                "code": "laboratory"
              }
            ]
          }
        ],
        "code": {
          "coding": [
            {
              "code": "6298-4",
              "system": "http://loinc.org",
              "display": "Potassium [Moles/volume] in Blood"
            }
          ],
          "text": "Potassium [Moles/volume] in Blood"
        },
        "valueQuantity": {
          "system": "http://unitsofmeasure.org",
          "value": 4.8,
          "unit": "mmol/L",
          "code": "mmol/L"
        },
        "referenceRange": [
          {
            "low": {
              "value": 3.5,
              "code": "mmol/L",
              "system": "http://unitsofmeasure.org"
            }
          },
          {
            "high": {
              "value": 5.1,
              "code": "mmol/L",
              "system": "http://unitsofmeasure.org"
            }
          }
        ],
        "text": {
          "status": "generated",
          "div": "<div xmlns=\"http://www.w3.org/1999/xhtml\"><table class=\"hl7__eu__lab__report\"><tr><th>Test</th><th>11-Mar-2021</th><th>Reference&#xA0;Range</th><th>Unit</th></tr><tr><td>Potassium [Moles/volume] in Blood</td><td>4.8</td><td>3.5 - 5.1</td><td></td><td>mmol/L</td></tr></table></div>"
        },
        "status": "final",
        "subject": {
          "reference": "urn:uuid:70b352e1-3dd2-47a4-ad64-869df5b654d7",
          "display": "Pelayo Casal"
        },
        "effectiveDateTime": "2021-03-11T05:38:59Z",
        "specimen": {
          "reference": "urn:uuid:1d676418-fa8f-4817-8a0d-94aae4eabe7b"
        }
      }
    },
    {
      "fullUrl": "urn:uuid:7b9a44d7-7d48-4a7f-87fc-b7817b776780",
      "resource": {
        "resourceType": "Observation",
        "id": "7b9a44d7-7d48-4a7f-87fc-b7817b776780",
        "meta": {
          "profile": [
            "http://hl7.eu/fhir/laboratory/StructureDefinition/Observation-resultslab-eu-lab"
          ]
        },
        "performer": [
          {
            "display": "The Central European Lab"
          }
        ],
        "category": [
          {
            "coding": [
              {
                "system": "http://terminology.hl7.org/CodeSystem/observation-category",
                "code": "laboratory"
              }
            ]
          }
        ],
        "code": {
          "coding": [
            {
              "code": "2069-3",
              "system": "http://loinc.org",
              "display": "Chloride [Moles/volume] in Blood"
            }
          ],
          "text": "Chloride [Moles/volume] in Blood"
        },
        "valueQuantity": {
          "system": "http://unitsofmeasure.org",
          "value": 104.6,
          "unit": "mmol/L",
          "code": "mmol/L"
        },
        "referenceRange": [
          {
            "low": {
              "value": 98,
              "code": "mmol/L",
              "system": "http://unitsofmeasure.org"
            }
          },
          {
            "high": {
              "value": 108,
              "code": "mmol/L",
              "system": "http://unitsofmeasure.org"
            }
          }
        ],
        "text": {
          "status": "generated",
          "div": "<div xmlns=\"http://www.w3.org/1999/xhtml\"><table class=\"hl7__eu__lab__report\"><tr><th>Test</th><th>11-Mar-2021</th><th>Reference&#xA0;Range</th><th>Unit</th></tr><tr><td>Chloride [Moles/volume] in Blood</td><td>104.6</td><td>98 - 108</td><td></td><td>mmol/L</td></tr></table></div>"
        },
        "status": "final",
        "subject": {
          "reference": "urn:uuid:70b352e1-3dd2-47a4-ad64-869df5b654d7",
          "display": "Pelayo Casal"
        },
        "effectiveDateTime": "2021-03-11T05:38:59Z",
        "specimen": {
          "reference": "urn:uuid:1d676418-fa8f-4817-8a0d-94aae4eabe7b"
        }
      }
    },
    {
      "fullUrl": "urn:uuid:d6fcc145-211a-4d7c-9cc5-c4058f1d3c85",
      "resource": {
        "resourceType": "Observation",
        "id": "d6fcc145-211a-4d7c-9cc5-c4058f1d3c85",
        "meta": {
          "profile": [
            "http://hl7.eu/fhir/laboratory/StructureDefinition/Observation-resultslab-eu-lab"
          ]
        },
        "performer": [
          {
            "display": "The Central European Lab"
          }
        ],
        "category": [
          {
            "coding": [
              {
                "system": "http://terminology.hl7.org/CodeSystem/observation-category",
                "code": "laboratory"
              }
            ]
          }
        ],
        "code": {
          "coding": [
            {
              "code": "20565-8",
              "system": "http://loinc.org",
              "display": "Carbon dioxide, total [Moles/volume] in Blood"
            }
          ],
          "text": "Carbon dioxide, total [Moles/volume] in Blood"
        },
        "valueQuantity": {
          "system": "http://unitsofmeasure.org",
          "value": 25.3,
          "unit": "mmol/L",
          "code": "mmol/L"
        },
        "referenceRange": [
          {
            "low": {
              "value": 22,
              "code": "mmol/L",
              "system": "http://unitsofmeasure.org"
            }
          },
          {
            "high": {
              "value": 32,
              "code": "mmol/L",
              "system": "http://unitsofmeasure.org"
            }
          }
        ],
        "text": {
          "status": "generated",
          "div": "<div xmlns=\"http://www.w3.org/1999/xhtml\"><table class=\"hl7__eu__lab__report\"><tr><th>Test</th><th>11-Mar-2021</th><th>Reference&#xA0;Range</th><th>Unit</th></tr><tr><td>Carbon dioxide, total [Moles/volume] in Blood</td><td>25.3</td><td>22 - 32</td><td></td><td>mmol/L</td></tr></table></div>"
        },
        "status": "final",
        "subject": {
          "reference": "urn:uuid:70b352e1-3dd2-47a4-ad64-869df5b654d7",
          "display": "Pelayo Casal"
        },
        "effectiveDateTime": "2021-03-11T05:38:59Z",
        "specimen": {
          "reference": "urn:uuid:1d676418-fa8f-4817-8a0d-94aae4eabe7b"
        }
      }
    },
    {
      "fullUrl": "urn:uuid:8a9ee8e7-1f86-4721-b41f-b466a4d5ac99",
      "resource": {
        "resourceType": "Device",
        "id": "8a9ee8e7-1f86-4721-b41f-b466a4d5ac99",
        "deviceName": [
          {
            "name": "SYNDERAI Synthetic Generator",
            "type": "manufacturer-name"
          }
        ],
        "version": [
          {
            "value": "5.0"
          }
        ],
        "text": {
          "status": "generated",
          "div": "<div xmlns=\"http://www.w3.org/1999/xhtml\">SYNDERAI Synthetic Generator v5.0</div>"
        },
        "status": "active\"",
        "distinctIdentifier": "synderai-generator-50",
        "manufacturer": "SYNDERAI Project"
      }
    },
    {
      "fullUrl": "urn:uuid:65c1e0d6-ce8f-44a3-bcc0-7bcc608d1585",
      "resource": {
        "resourceType": "Provenance",
        "id": "65c1e0d6-ce8f-44a3-bcc0-7bcc608d1585",
        "target": [
          {
            "reference": "Patient/70b352e1-3dd2-47a4-ad64-869df5b654d7"
          },
          {
            "reference": "Bundle/9543be76-63c2-4724-beca-2be74a61842b"
          },
          {
            "reference": "Composition/52886e55-4b74-42b6-83bc-b90a94583eeb"
          },
          {
            "reference": "PractitionerRole/82650f80-aff1-4524-8e16-de3b661e1e11"
          },
          {
            "reference": "Practitioner/340686b9-f98b-43a1-af6b-25aa91a4d652"
          },
          {
            "reference": "PractitionerRole/a8f5a301-9116-4802-bcf6-b5a9c1f7b494"
          },
          {
            "reference": "Organization/4287a00c-ce12-495a-b473-b10eb618ff17"
          }
        ],
        "activity": {
          "text": "Synthetic Example Data Generation"
        },
        "policy": [
          "https://synderai.net/synderai-synthetic-data-policy"
        ],
        "agent": [
          {
            "type": {
              "text": "author"
            },
            "who": {
              "reference": "Device/8a9ee8e7-1f86-4721-b41f-b466a4d5ac99"
            }
          }
        ],
        "reason": [
          {
            "text": "Interoperability Testing and Training (non-clinical use)"
          }
        ],
        "text": {
          "status": "generated",
          "div": "<div xmlns=\"http://www.w3.org/1999/xhtml\">Provenance for SYNDERAI Synthetic Example Data Resource</div>"
        },
        "recorded": "2021-03-11T06:38:59Z"
      }
    },
    {
      "fullUrl": "urn:uuid:82650f80-aff1-4524-8e16-de3b661e1e11",
      "resource": {
        "resourceType": "PractitionerRole",
        "id": "82650f80-aff1-4524-8e16-de3b661e1e11",
        "meta": {
          "profile": [
            "http://hl7.eu/fhir/base/StructureDefinition/practitionerRole-eu"
          ]
        },
        "text": {
          "status": "generated",
          "div": "<div xmlns=\"http://www.w3.org/1999/xhtml\">Laboratory Role Id: 82650f80-aff1-4524-8e16-de3b661e1e11</div>"
        },
        "practitioner": {
          "reference": "urn:uuid:340686b9-f98b-43a1-af6b-25aa91a4d652"
        }
      }
    },
    {
      "fullUrl": "urn:uuid:340686b9-f98b-43a1-af6b-25aa91a4d652",
      "resource": {
        "resourceType": "Practitioner",
        "id": "340686b9-f98b-43a1-af6b-25aa91a4d652",
        "meta": {
          "profile": [
            "http://hl7.eu/fhir/base/StructureDefinition/practitioner-eu"
          ]
        },
        "identifier": [
          {
            "assigner": {
              "display": "HL7 Europe"
            },
            "system": "urn:oid:2.16.840.1.113883.2.51.999",
            "value": "273ea8b2-fb9e-4559-9237-3a5c175d1587"
          }
        ],
        "name": [
          {
            "prefix": [
              "dr"
            ],
            "given": [
              "Ex"
            ],
            "family": "Ample"
          }
        ],
        "address": [
          {
            "line": [
              "Laboratoire Central Européenne",
              "Boulevard du Jardin Botanique 32"
            ],
            "postalCode": "1000",
            "city": "Brussels",
            "country": "Belgium"
          }
        ],
        "text": {
          "status": "generated",
          "div": "<div xmlns=\"http://www.w3.org/1999/xhtml\">Laboratory: Laboratoire Central Européenne, 1000 Brussels, Belgium</div>"
        }
      }
    }
  ],
  "type": "document",
  "timestamp": "2021-03-11T06:38:59Z"
}
