{
  "resourceType": "Bundle",
  "id": "60143a85-56dd-47e9-ac41-c8f855635992",
  "meta": {
    "profile": [
      "http://hl7.eu/fhir/laboratory/StructureDefinition/Bundle-eu-lab"
    ]
  },
  "identifier": {
    "assigner": {
      "display": "HL7 Europe"
    },
    "system": "urn:oid:2.16.840.1.113883.2.51.999",
    "value": "ff774560-2ca1-40a0-8e3e-0d95bdc8d168"
  },
  "entry": [
    {
      "fullUrl": "urn:uuid:29f4b23c-2c92-42e3-8289-73903555a1c1",
      "resource": {
        "resourceType": "Composition",
        "id": "29f4b23c-2c92-42e3-8289-73903555a1c1",
        "meta": {
          "profile": [
            "http://hl7.eu/fhir/laboratory/StructureDefinition/Composition-eu-lab"
          ]
        },
        "identifier": {
          "assigner": {
            "display": "HL7 Europe"
          },
          "system": "urn:oid:2.16.840.1.113883.2.51.999",
          "value": "cf73a525-ff68-4e32-828b-08a349f1a09c"
        },
        "author": [
          {
            "reference": "urn:uuid:9ae90a75-7738-4d0e-9675-61c656a603c8"
          }
        ],
        "category": [
          {
            "coding": [
              {
                "code": "26436-6",
                "system": "http://loinc.org",
                "display": "Laboratory studies (set)"
              }
            ]
          }
        ],
        "type": {
          "coding": [
            {
              "code": "11502-2",
              "system": "http://loinc.org",
              "display": "Laboratory report"
            }
          ],
          "text": "Laboratory Report"
        },
        "section": [
          {
            "code": {
              "coding": [
                {
                  "code": "26436-6",
                  "system": "http://loinc.org",
                  "display": "Laboratory studies (set)"
                }
              ],
              "text": "Laboratory studies"
            },
            "section": [
              {
                "code": {
                  "coding": [
                    {
                      "code": "$18723-7",
                      "system": "http://loinc.org",
                      "display": "Hematology studies (set)"
                    }
                  ],
                  "text": "Hematology"
                },
                "entry": [
                  {
                    "reference": "urn:uuid:77be7258-307f-4409-b642-ffecc2363929"
                  },
                  {
                    "reference": "urn:uuid:91a3782e-b114-4193-8104-c41a149a8595"
                  },
                  {
                    "reference": "urn:uuid:50ddd39f-6f50-44f5-8152-2916fc144935"
                  },
                  {
                    "reference": "urn:uuid:fb46f8e1-cab4-4c0d-8fe9-1e3b58503f03"
                  },
                  {
                    "reference": "urn:uuid:5249b36f-b7a8-4ef7-87f5-901cd1f090ec"
                  },
                  {
                    "reference": "urn:uuid:c26eb9f3-514f-42de-9554-963c1d5d2e4a"
                  },
                  {
                    "reference": "urn:uuid:e706160f-05c8-432a-bbce-68314a2a003b"
                  },
                  {
                    "reference": "urn:uuid:a02cd578-32a3-4032-ba1b-9f9c9645c7b3"
                  },
                  {
                    "reference": "urn:uuid:5379129a-71e5-4f4e-8ef9-ea6b7bffad4f"
                  },
                  {
                    "reference": "urn:uuid:8d891dc3-93a2-48bb-8245-7fd7fe8f5591"
                  },
                  {
                    "reference": "urn:uuid:d8a2c465-11ea-4f62-86f6-32e0a4de6bb7"
                  }
                ],
                "text": {
                  "status": "generated",
                  "div": "<div xmlns=\"http://www.w3.org/1999/xhtml\"><h3>Hematology</h3><table class=\"hl7__eu__lab__report\"><thead><tr><th>Test</th><th>27-DEC-2020</th><th>Reference&#xA0;Range</th><th>Unit</th></tr></thead><tbody><tr><td>Leukocytes [#/volume] in Blood by Automated count</td><td>5.8</td><td>3.5 - 10.5</td><td>10*3/uL</td></tr><tr><td>Erythrocytes [#/volume] in Blood by Automated count</td><td><strong>3.9 L</strong></td><td>4.5 - 6.2</td><td>10*6/uL</td></tr><tr><td>Hemoglobin [Mass/volume] in Blood</td><td>14.8</td><td>13.5 - 17.5</td><td>g/dL</td></tr><tr><td>Hematocrit [Volume Fraction] of Blood by Automated count</td><td>42.9</td><td>38 - 50</td><td>%</td></tr><tr><td>MCV [Entitic volume] by Automated count</td><td>92.6</td><td>82 - 98</td><td>fL</td></tr><tr><td>MCH [Entitic mass] by Automated count</td><td>28.6</td><td>27 - 33</td><td>pg</td></tr><tr><td>MCHC [Mass/volume] by Automated count</td><td>34.3</td><td>31 - 35</td><td>g/dL</td></tr><tr><td>Erythrocyte distribution width [Entitic volume] by Automated count</td><td>43.2</td><td>39 - 55</td><td>fL</td></tr><tr><td>Platelets [#/volume] in Blood by Automated count</td><td>214.2</td><td>150 - 379</td><td>10*3/uL</td></tr><tr><td>Platelet distribution width [Entitic volume] in Blood by Automated count</td><td><strong>421.7 H</strong></td><td>286 - 366</td><td>fL</td></tr><tr><td>Platelet mean volume [Entitic volume] in Blood by Automated count</td><td>11.7</td><td>7.2 - 13.8</td><td>fL</td></tr></tbody></table></div>"
                },
                "title": "Hematology"
              }
            ],
            "title": "Laboratory Report"
          },
          {
            "text": {
              "status": "generated",
              "div": "<div xmlns=\"http://www.w3.org/1999/xhtml\"><h3>Annotation</h3><table class=\"hl7__eu__lab__report\"><tr><th>Conclusion and Recommendations based on this report and previous findings known to us</th></tr><tr><td>The results show a mild erythrocytopenia (low red blood cell count) with otherwise normal hemoglobin and hematocrit, suggesting early or mild anemia. Platelet count is normal, but platelet distribution width is elevated, which may indicate increased platelet size variability, possibly due to increased platelet turnover or activation. No leukocyte abnormalities are present. Correlation with clinical context and follow-up is recommended.</td></tr></table></div>"
            },
            "code": {
              "coding": [
                {
                  "system": "http://loinc.org",
                  "code": "48767-8",
                  "display": "Annotation comment"
                }
              ]
            },
            "title": "Annotation comment"
          }
        ],
        "status": "final",
        "subject": {
          "reference": "urn:uuid:b97de48c-9768-43d0-90e1-3e35d5e01727",
          "display": "Russell Khan"
        },
        "date": "2020-12-27T14:31:07Z",
        "title": "Laboratory Report",
        "confidentiality": "N"
      }
    },
    {
      "fullUrl": "urn:uuid:8a6b5719-fa6a-4a8a-93af-b917e2cc7dc8",
      "resource": {
        "resourceType": "DiagnosticReport",
        "id": "8a6b5719-fa6a-4a8a-93af-b917e2cc7dc8",
        "meta": {
          "profile": [
            "http://hl7.eu/fhir/laboratory/StructureDefinition/DiagnosticReport-eu-lab"
          ]
        },
        "identifier": [
          {
            "assigner": {
              "display": "HL7 Europe"
            },
            "system": "urn:oid:2.16.840.1.113883.2.51.999",
            "value": "c43405ac-bbe0-40ce-bb68-453752fbdf38"
          }
        ],
        "extension": [
          {
            "url": "http://hl7.org/fhir/5.0/StructureDefinition/extension-DiagnosticReport.composition",
            "valueReference": {
              "reference": "urn:uuid:cf73a525-ff68-4e32-828b-08a349f1a09c"
            }
          }
        ],
        "category": [
          {
            "coding": [
              {
                "code": "26436-6",
                "system": "http://loinc.org",
                "display": "Laboratory studies (set)"
              }
            ]
          }
        ],
        "specimen": [
          {
            "reference": "urn:uuid:cc72c124-c7bf-4c26-823d-681aa68ead21"
          },
          {
            "reference": "urn:uuid:cc72c124-c7bf-4c26-823d-681aa68ead21"
          }
        ],
        "result": [
          {
            "reference": "urn:uuid:77be7258-307f-4409-b642-ffecc2363929"
          },
          {
            "reference": "urn:uuid:91a3782e-b114-4193-8104-c41a149a8595"
          },
          {
            "reference": "urn:uuid:50ddd39f-6f50-44f5-8152-2916fc144935"
          },
          {
            "reference": "urn:uuid:fb46f8e1-cab4-4c0d-8fe9-1e3b58503f03"
          },
          {
            "reference": "urn:uuid:5249b36f-b7a8-4ef7-87f5-901cd1f090ec"
          },
          {
            "reference": "urn:uuid:c26eb9f3-514f-42de-9554-963c1d5d2e4a"
          },
          {
            "reference": "urn:uuid:e706160f-05c8-432a-bbce-68314a2a003b"
          },
          {
            "reference": "urn:uuid:a02cd578-32a3-4032-ba1b-9f9c9645c7b3"
          },
          {
            "reference": "urn:uuid:5379129a-71e5-4f4e-8ef9-ea6b7bffad4f"
          },
          {
            "reference": "urn:uuid:8d891dc3-93a2-48bb-8245-7fd7fe8f5591"
          },
          {
            "reference": "urn:uuid:d8a2c465-11ea-4f62-86f6-32e0a4de6bb7"
          }
        ],
        "status": "registered",
        "code": {
          "coding": [
            {
              "code": "11502-2",
              "system": "http://loinc.org",
              "display": "Laboratory report"
            }
          ]
        },
        "subject": {
          "reference": "urn:uuid:b97de48c-9768-43d0-90e1-3e35d5e01727",
          "display": "Russell Khan"
        }
      }
    },
    {
      "fullUrl": "urn:uuid:b97de48c-9768-43d0-90e1-3e35d5e01727",
      "resource": {
        "resourceType": "Patient",
        "id": "b97de48c-9768-43d0-90e1-3e35d5e01727",
        "meta": {
          "security": [
            {
              "system": "http://terminology.hl7.org/CodeSystem/v3-ActReason",
              "code": "HTEST"
            },
            {
              "system": "http://terminology.hl7.org/CodeSystem/v3-ActReason",
              "code": "TRAIN"
            }
          ],
          "tag": [
            {
              "system": "https://synderai.net/fhir/CodeSystem/tags",
              "code": "synthetic",
              "display": "SYNDERAI Synthetic data"
            }
          ],
          "profile": [
            "http://hl7.eu/fhir/base/StructureDefinition/patient-eu-core"
          ]
        },
        "identifier": [
          {
            "type": {
              "coding": [
                {
                  "code": "PT",
                  "system": "http://terminology.hl7.org/CodeSystem/v2-0203"
                }
              ]
            },
            "system": "http://ec.europa.eu/identifier/eci",
            "value": "7982-255119-2"
          },
          {
            "type": {
              "coding": [
                {
                  "code": "MR",
                  "system": "http://terminology.hl7.org/CodeSystem/v2-0203"
                }
              ]
            },
            "system": "http://local.setting.eu/identifier",
            "value": "7070b0e2-4aa2-c981-d552-92289a13285c"
          }
        ],
        "name": [
          {
            "family": "Khan"
          },
          {
            "given": [
              "Russell"
            ]
          },
          {
            "text": "Russell Khan"
          }
        ],
        "address": [
          {
            "line": [
              "1 Holly well"
            ],
            "use": "home",
            "type": "physical",
            "postalCode": "B9",
            "city": "Allantown",
            "country": "United Kingdom"
          }
        ],
        "telecom": [
          {
            "system": "phone",
            "value": "0115 4960345"
          }
        ],
        "extension": [
          {
            "url": "http://hl7.org/fhir/StructureDefinition/patient-nationality",
            "valueCodeableConcept": {
              "coding": [
                {
                  "code": "GB",
                  "system": "http://hl7.org/fhir/ValueSet/country"
                }
              ]
            }
          }
        ],
        "text": {
          "status": "generated",
          "div": "<div xmlns=\"http://www.w3.org/1999/xhtml\"><table class=\"hl7__ips\"><tr><td>Russell Khan</td><td>male</td><td>29-Aug-1980</td></tr></table></div>"
        },
        "gender": "male",
        "birthDate": "1980-08-29"
      }
    },
    {
      "fullUrl": "urn:uuid:558a048e-631f-4346-bb09-b226ba356f52",
      "resource": {
        "resourceType": "ServiceRequest",
        "id": "558a048e-631f-4346-bb09-b226ba356f52",
        "meta": {
          "profile": [
            "http://hl7.eu/fhir/laboratory/StructureDefinition/ServiceRequest-eu-lab"
          ]
        },
        "identifier": [
          {
            "system": "http://example.org",
            "value": "89d9f361-4b0d-4200-bfd7-43941584b16a"
          }
        ],
        "specimen": [
          {
            "reference": "urn:uuid:cc72c124-c7bf-4c26-823d-681aa68ead21"
          }
        ],
        "reasonCode": [
          {
            "coding": [
              {
                "code": "59621000",
                "system": "http://snomed.info/sct",
                "display": "Essential hypertension"
              }
            ]
          }
        ],
        "status": "active",
        "intent": "order",
        "code": {
          "coding": [
            {
              "code": "108252007",
              "system": "http://snomed.info/sct",
              "display": "Laboratory procedure"
            }
          ]
        },
        "subject": {
          "reference": "urn:uuid:b97de48c-9768-43d0-90e1-3e35d5e01727",
          "display": "Russell Khan"
        },
        "requester": {
          "reference": "urn:uuid:c882f6bb-bacc-4bab-a84a-ed7ce81ebe07"
        }
      }
    },
    {
      "fullUrl": "urn:uuid:c882f6bb-bacc-4bab-a84a-ed7ce81ebe07",
      "resource": {
        "resourceType": "PractitionerRole",
        "id": "c882f6bb-bacc-4bab-a84a-ed7ce81ebe07",
        "meta": {
          "profile": [
            "http://hl7.eu/fhir/base/StructureDefinition/practitionerRole-eu"
          ]
        },
        "text": {
          "status": "generated",
          "div": "<div xmlns=\"http://www.w3.org/1999/xhtml\">Provider Role Id: c882f6bb-bacc-4bab-a84a-ed7ce81ebe07</div>"
        },
        "organization": {
          "reference": "urn:uuid:4eb210fc-b5be-4d3b-870c-378ad20914b8"
        }
      }
    },
    {
      "fullUrl": "urn:uuid:4eb210fc-b5be-4d3b-870c-378ad20914b8",
      "resource": {
        "resourceType": "Organization",
        "id": "4eb210fc-b5be-4d3b-870c-378ad20914b8",
        "meta": {
          "profile": [
            "http://hl7.eu/fhir/base/StructureDefinition/organization-eu"
          ]
        },
        "identifier": [
          {
            "assigner": {
              "display": "HL7 Europe"
            },
            "system": "urn:oid:2.16.840.1.113883.2.51.999",
            "value": "f56075f4-798f-4a56-98f2-0eed355ffeae"
          }
        ],
        "address": [
          {
            "city": "Birmingham",
            "postalCode": "B4 6",
            "country": "United Kingdom"
          }
        ],
        "text": {
          "status": "generated",
          "div": "<div xmlns=\"http://www.w3.org/1999/xhtml\">Provider Organization: Birmingham Children&#039;s Hospital</div>"
        },
        "name": "Birmingham Children&#039;s Hospital"
      }
    },
    {
      "fullUrl": "urn:uuid:cc72c124-c7bf-4c26-823d-681aa68ead21",
      "resource": {
        "resourceType": "Specimen",
        "id": "cc72c124-c7bf-4c26-823d-681aa68ead21",
        "meta": {
          "profile": [
            "http://hl7.eu/fhir/laboratory/StructureDefinition/Specimen-eu-lab"
          ]
        },
        "collection": {
          "collectedDateTime": "2020-12-27"
        },
        "text": {
          "status": "generated",
          "div": "<div xmlns=\"http://www.w3.org/1999/xhtml\"><table class=\"hl7__eu__lab__report\"><tr><th>Specimen</th><th>Collection Date</th></tr><tr><td>Whole blood specimen (specimen)</td><td><span class=\"nb\">27-Dec-2020</span></td></tr></table></div>"
        },
        "type": {
          "coding": [
            {
              "code": "258580003",
              "system": "http://snomed.info/sct",
              "display": "Whole blood specimen (specimen)"
            }
          ]
        }
      }
    },
    {
      "fullUrl": "urn:uuid:cc72c124-c7bf-4c26-823d-681aa68ead21",
      "resource": {
        "resourceType": "Specimen",
        "id": "cc72c124-c7bf-4c26-823d-681aa68ead21",
        "meta": {
          "profile": [
            "http://hl7.eu/fhir/laboratory/StructureDefinition/Specimen-eu-lab"
          ]
        },
        "collection": {
          "collectedDateTime": "2020-12-27"
        },
        "text": {
          "status": "generated",
          "div": "<div xmlns=\"http://www.w3.org/1999/xhtml\"><table class=\"hl7__eu__lab__report\"><tr><th>Specimen</th><th>Collection Date</th></tr><tr><td>Whole blood specimen (specimen)</td><td><span class=\"nb\">27-Dec-2020</span></td></tr></table></div>"
        },
        "type": {
          "coding": [
            {
              "code": "258580003",
              "system": "http://snomed.info/sct",
              "display": "Whole blood specimen (specimen)"
            }
          ]
        }
      }
    },
    {
      "fullUrl": "urn:uuid:77be7258-307f-4409-b642-ffecc2363929",
      "resource": {
        "resourceType": "Observation",
        "id": "77be7258-307f-4409-b642-ffecc2363929",
        "meta": {
          "profile": [
            "http://hl7.eu/fhir/laboratory/StructureDefinition/Observation-resultslab-eu-lab"
          ]
        },
        "performer": [
          {
            "display": "The Central European Lab"
          }
        ],
        "category": [
          {
            "coding": [
              {
                "system": "http://terminology.hl7.org/CodeSystem/observation-category",
                "code": "laboratory"
              }
            ]
          }
        ],
        "code": {
          "coding": [
            {
              "code": "6690-2",
              "system": "http://loinc.org",
              "display": "Leukocytes [#/volume] in Blood by Automated count"
            }
          ],
          "text": "Leukocytes [#/volume] in Blood by Automated count"
        },
        "valueQuantity": {
          "system": "http://unitsofmeasure.org",
          "value": 5.8,
          "unit": "10*3/uL",
          "code": "10*3/uL"
        },
        "referenceRange": [
          {
            "low": {
              "value": 3.5,
              "code": "10*3/uL",
              "system": "http://unitsofmeasure.org"
            }
          },
          {
            "high": {
              "value": 10.5,
              "code": "10*3/uL",
              "system": "http://unitsofmeasure.org"
            }
          }
        ],
        "text": {
          "status": "generated",
          "div": "<div xmlns=\"http://www.w3.org/1999/xhtml\"><table class=\"hl7__eu__lab__report\"><tr><th>Test</th><th>27-Dec-2020</th><th>Reference&#xA0;Range</th><th>Unit</th></tr><tr><td>Leukocytes [#/volume] in Blood by Automated count</td><td>5.8</td><td>3.5 - 10.5</td><td></td><td>10*3/uL</td></tr></table></div>"
        },
        "status": "final",
        "subject": {
          "reference": "urn:uuid:b97de48c-9768-43d0-90e1-3e35d5e01727",
          "display": "Russell Khan"
        },
        "effectiveDateTime": "2020-12-27T13:31:07Z",
        "specimen": {
          "reference": "urn:uuid:cc72c124-c7bf-4c26-823d-681aa68ead21"
        }
      }
    },
    {
      "fullUrl": "urn:uuid:91a3782e-b114-4193-8104-c41a149a8595",
      "resource": {
        "resourceType": "Observation",
        "id": "91a3782e-b114-4193-8104-c41a149a8595",
        "meta": {
          "profile": [
            "http://hl7.eu/fhir/laboratory/StructureDefinition/Observation-resultslab-eu-lab"
          ]
        },
        "performer": [
          {
            "display": "The Central European Lab"
          }
        ],
        "category": [
          {
            "coding": [
              {
                "system": "http://terminology.hl7.org/CodeSystem/observation-category",
                "code": "laboratory"
              }
            ]
          }
        ],
        "code": {
          "coding": [
            {
              "code": "789-8",
              "system": "http://loinc.org",
              "display": "Erythrocytes [#/volume] in Blood by Automated count"
            }
          ],
          "text": "Erythrocytes [#/volume] in Blood by Automated count"
        },
        "valueQuantity": {
          "system": "http://unitsofmeasure.org",
          "value": 3.9,
          "unit": "10*6/uL",
          "code": "10*6/uL"
        },
        "referenceRange": [
          {
            "low": {
              "value": 4.5,
              "code": "10*6/uL",
              "system": "http://unitsofmeasure.org"
            }
          },
          {
            "high": {
              "value": 6.2,
              "code": "10*6/uL",
              "system": "http://unitsofmeasure.org"
            }
          }
        ],
        "interpretation": [
          {
            "coding": [
              {
                "code": "L",
                "system": "http://terminology.hl7.org/CodeSystem/v3-ObservationInterpretation",
                "display": "Low"
              }
            ]
          }
        ],
        "text": {
          "status": "generated",
          "div": "<div xmlns=\"http://www.w3.org/1999/xhtml\"><table class=\"hl7__eu__lab__report\"><tr><th>Test</th><th>27-Dec-2020</th><th>Reference&#xA0;Range</th><th>Unit</th></tr><tr><td>Erythrocytes [#/volume] in Blood by Automated count</td><td>3.9</td><td>4.5 - 6.2</td><td>L</td><td>10*6/uL</td></tr></table></div>"
        },
        "status": "final",
        "subject": {
          "reference": "urn:uuid:b97de48c-9768-43d0-90e1-3e35d5e01727",
          "display": "Russell Khan"
        },
        "effectiveDateTime": "2020-12-27T13:31:07Z",
        "specimen": {
          "reference": "urn:uuid:cc72c124-c7bf-4c26-823d-681aa68ead21"
        }
      }
    },
    {
      "fullUrl": "urn:uuid:50ddd39f-6f50-44f5-8152-2916fc144935",
      "resource": {
        "resourceType": "Observation",
        "id": "50ddd39f-6f50-44f5-8152-2916fc144935",
        "meta": {
          "profile": [
            "http://hl7.eu/fhir/laboratory/StructureDefinition/Observation-resultslab-eu-lab"
          ]
        },
        "performer": [
          {
            "display": "The Central European Lab"
          }
        ],
        "category": [
          {
            "coding": [
              {
                "system": "http://terminology.hl7.org/CodeSystem/observation-category",
                "code": "laboratory"
              }
            ]
          }
        ],
        "code": {
          "coding": [
            {
              "code": "718-7",
              "system": "http://loinc.org",
              "display": "Hemoglobin [Mass/volume] in Blood"
            }
          ],
          "text": "Hemoglobin [Mass/volume] in Blood"
        },
        "valueQuantity": {
          "system": "http://unitsofmeasure.org",
          "value": 14.8,
          "unit": "g/dL",
          "code": "g/dL"
        },
        "referenceRange": [
          {
            "low": {
              "value": 13.5,
              "code": "g/dL",
              "system": "http://unitsofmeasure.org"
            }
          },
          {
            "high": {
              "value": 17.5,
              "code": "g/dL",
              "system": "http://unitsofmeasure.org"
            }
          }
        ],
        "text": {
          "status": "generated",
          "div": "<div xmlns=\"http://www.w3.org/1999/xhtml\"><table class=\"hl7__eu__lab__report\"><tr><th>Test</th><th>27-Dec-2020</th><th>Reference&#xA0;Range</th><th>Unit</th></tr><tr><td>Hemoglobin [Mass/volume] in Blood</td><td>14.8</td><td>13.5 - 17.5</td><td></td><td>g/dL</td></tr></table></div>"
        },
        "status": "final",
        "subject": {
          "reference": "urn:uuid:b97de48c-9768-43d0-90e1-3e35d5e01727",
          "display": "Russell Khan"
        },
        "effectiveDateTime": "2020-12-27T13:31:07Z",
        "specimen": {
          "reference": "urn:uuid:cc72c124-c7bf-4c26-823d-681aa68ead21"
        }
      }
    },
    {
      "fullUrl": "urn:uuid:fb46f8e1-cab4-4c0d-8fe9-1e3b58503f03",
      "resource": {
        "resourceType": "Observation",
        "id": "fb46f8e1-cab4-4c0d-8fe9-1e3b58503f03",
        "meta": {
          "profile": [
            "http://hl7.eu/fhir/laboratory/StructureDefinition/Observation-resultslab-eu-lab"
          ]
        },
        "performer": [
          {
            "display": "The Central European Lab"
          }
        ],
        "category": [
          {
            "coding": [
              {
                "system": "http://terminology.hl7.org/CodeSystem/observation-category",
                "code": "laboratory"
              }
            ]
          }
        ],
        "code": {
          "coding": [
            {
              "code": "4544-3",
              "system": "http://loinc.org",
              "display": "Hematocrit [Volume Fraction] of Blood by Automated count"
            }
          ],
          "text": "Hematocrit [Volume Fraction] of Blood by Automated count"
        },
        "valueQuantity": {
          "system": "http://unitsofmeasure.org",
          "value": 42.9,
          "unit": "%",
          "code": "%"
        },
        "referenceRange": [
          {
            "low": {
              "value": 38,
              "code": "%",
              "system": "http://unitsofmeasure.org"
            }
          },
          {
            "high": {
              "value": 50,
              "code": "%",
              "system": "http://unitsofmeasure.org"
            }
          }
        ],
        "text": {
          "status": "generated",
          "div": "<div xmlns=\"http://www.w3.org/1999/xhtml\"><table class=\"hl7__eu__lab__report\"><tr><th>Test</th><th>27-Dec-2020</th><th>Reference&#xA0;Range</th><th>Unit</th></tr><tr><td>Hematocrit [Volume Fraction] of Blood by Automated count</td><td>42.9</td><td>38 - 50</td><td></td><td>%</td></tr></table></div>"
        },
        "status": "final",
        "subject": {
          "reference": "urn:uuid:b97de48c-9768-43d0-90e1-3e35d5e01727",
          "display": "Russell Khan"
        },
        "effectiveDateTime": "2020-12-27T13:31:07Z",
        "specimen": {
          "reference": "urn:uuid:cc72c124-c7bf-4c26-823d-681aa68ead21"
        }
      }
    },
    {
      "fullUrl": "urn:uuid:5249b36f-b7a8-4ef7-87f5-901cd1f090ec",
      "resource": {
        "resourceType": "Observation",
        "id": "5249b36f-b7a8-4ef7-87f5-901cd1f090ec",
        "meta": {
          "profile": [
            "http://hl7.eu/fhir/laboratory/StructureDefinition/Observation-resultslab-eu-lab"
          ]
        },
        "performer": [
          {
            "display": "The Central European Lab"
          }
        ],
        "category": [
          {
            "coding": [
              {
                "system": "http://terminology.hl7.org/CodeSystem/observation-category",
                "code": "laboratory"
              }
            ]
          }
        ],
        "code": {
          "coding": [
            {
              "code": "787-2",
              "system": "http://loinc.org",
              "display": "MCV [Entitic volume] by Automated count"
            }
          ],
          "text": "MCV [Entitic volume] by Automated count"
        },
        "valueQuantity": {
          "system": "http://unitsofmeasure.org",
          "value": 92.6,
          "unit": "fL",
          "code": "fL"
        },
        "referenceRange": [
          {
            "low": {
              "value": 82,
              "code": "fL",
              "system": "http://unitsofmeasure.org"
            }
          },
          {
            "high": {
              "value": 98,
              "code": "fL",
              "system": "http://unitsofmeasure.org"
            }
          }
        ],
        "text": {
          "status": "generated",
          "div": "<div xmlns=\"http://www.w3.org/1999/xhtml\"><table class=\"hl7__eu__lab__report\"><tr><th>Test</th><th>27-Dec-2020</th><th>Reference&#xA0;Range</th><th>Unit</th></tr><tr><td>MCV [Entitic volume] by Automated count</td><td>92.6</td><td>82 - 98</td><td></td><td>fL</td></tr></table></div>"
        },
        "status": "final",
        "subject": {
          "reference": "urn:uuid:b97de48c-9768-43d0-90e1-3e35d5e01727",
          "display": "Russell Khan"
        },
        "effectiveDateTime": "2020-12-27T13:31:07Z",
        "specimen": {
          "reference": "urn:uuid:cc72c124-c7bf-4c26-823d-681aa68ead21"
        }
      }
    },
    {
      "fullUrl": "urn:uuid:c26eb9f3-514f-42de-9554-963c1d5d2e4a",
      "resource": {
        "resourceType": "Observation",
        "id": "c26eb9f3-514f-42de-9554-963c1d5d2e4a",
        "meta": {
          "profile": [
            "http://hl7.eu/fhir/laboratory/StructureDefinition/Observation-resultslab-eu-lab"
          ]
        },
        "performer": [
          {
            "display": "The Central European Lab"
          }
        ],
        "category": [
          {
            "coding": [
              {
                "system": "http://terminology.hl7.org/CodeSystem/observation-category",
                "code": "laboratory"
              }
            ]
          }
        ],
        "code": {
          "coding": [
            {
              "code": "785-6",
              "system": "http://loinc.org",
              "display": "MCH [Entitic mass] by Automated count"
            }
          ],
          "text": "MCH [Entitic mass] by Automated count"
        },
        "valueQuantity": {
          "system": "http://unitsofmeasure.org",
          "value": 28.6,
          "unit": "pg",
          "code": "pg"
        },
        "referenceRange": [
          {
            "low": {
              "value": 27,
              "code": "pg",
              "system": "http://unitsofmeasure.org"
            }
          },
          {
            "high": {
              "value": 33,
              "code": "pg",
              "system": "http://unitsofmeasure.org"
            }
          }
        ],
        "text": {
          "status": "generated",
          "div": "<div xmlns=\"http://www.w3.org/1999/xhtml\"><table class=\"hl7__eu__lab__report\"><tr><th>Test</th><th>27-Dec-2020</th><th>Reference&#xA0;Range</th><th>Unit</th></tr><tr><td>MCH [Entitic mass] by Automated count</td><td>28.6</td><td>27 - 33</td><td></td><td>pg</td></tr></table></div>"
        },
        "status": "final",
        "subject": {
          "reference": "urn:uuid:b97de48c-9768-43d0-90e1-3e35d5e01727",
          "display": "Russell Khan"
        },
        "effectiveDateTime": "2020-12-27T13:31:07Z",
        "specimen": {
          "reference": "urn:uuid:cc72c124-c7bf-4c26-823d-681aa68ead21"
        }
      }
    },
    {
      "fullUrl": "urn:uuid:e706160f-05c8-432a-bbce-68314a2a003b",
      "resource": {
        "resourceType": "Observation",
        "id": "e706160f-05c8-432a-bbce-68314a2a003b",
        "meta": {
          "profile": [
            "http://hl7.eu/fhir/laboratory/StructureDefinition/Observation-resultslab-eu-lab"
          ]
        },
        "performer": [
          {
            "display": "The Central European Lab"
          }
        ],
        "category": [
          {
            "coding": [
              {
                "system": "http://terminology.hl7.org/CodeSystem/observation-category",
                "code": "laboratory"
              }
            ]
          }
        ],
        "code": {
          "coding": [
            {
              "code": "786-4",
              "system": "http://loinc.org",
              "display": "MCHC [Mass/volume] by Automated count"
            }
          ],
          "text": "MCHC [Mass/volume] by Automated count"
        },
        "valueQuantity": {
          "system": "http://unitsofmeasure.org",
          "value": 34.3,
          "unit": "g/dL",
          "code": "g/dL"
        },
        "referenceRange": [
          {
            "low": {
              "value": 31,
              "code": "g/dL",
              "system": "http://unitsofmeasure.org"
            }
          },
          {
            "high": {
              "value": 35,
              "code": "g/dL",
              "system": "http://unitsofmeasure.org"
            }
          }
        ],
        "text": {
          "status": "generated",
          "div": "<div xmlns=\"http://www.w3.org/1999/xhtml\"><table class=\"hl7__eu__lab__report\"><tr><th>Test</th><th>27-Dec-2020</th><th>Reference&#xA0;Range</th><th>Unit</th></tr><tr><td>MCHC [Mass/volume] by Automated count</td><td>34.3</td><td>31 - 35</td><td></td><td>g/dL</td></tr></table></div>"
        },
        "status": "final",
        "subject": {
          "reference": "urn:uuid:b97de48c-9768-43d0-90e1-3e35d5e01727",
          "display": "Russell Khan"
        },
        "effectiveDateTime": "2020-12-27T13:31:07Z",
        "specimen": {
          "reference": "urn:uuid:cc72c124-c7bf-4c26-823d-681aa68ead21"
        }
      }
    },
    {
      "fullUrl": "urn:uuid:a02cd578-32a3-4032-ba1b-9f9c9645c7b3",
      "resource": {
        "resourceType": "Observation",
        "id": "a02cd578-32a3-4032-ba1b-9f9c9645c7b3",
        "meta": {
          "profile": [
            "http://hl7.eu/fhir/laboratory/StructureDefinition/Observation-resultslab-eu-lab"
          ]
        },
        "performer": [
          {
            "display": "The Central European Lab"
          }
        ],
        "category": [
          {
            "coding": [
              {
                "system": "http://terminology.hl7.org/CodeSystem/observation-category",
                "code": "laboratory"
              }
            ]
          }
        ],
        "code": {
          "coding": [
            {
              "code": "21000-5",
              "system": "http://loinc.org",
              "display": "Erythrocyte distribution width [Entitic volume] by Automated count"
            }
          ],
          "text": "Erythrocyte distribution width [Entitic volume] by Automated count"
        },
        "valueQuantity": {
          "system": "http://unitsofmeasure.org",
          "value": 43.2,
          "unit": "fL",
          "code": "fL"
        },
        "referenceRange": [
          {
            "low": {
              "value": 39,
              "code": "fL",
              "system": "http://unitsofmeasure.org"
            }
          },
          {
            "high": {
              "value": 55,
              "code": "fL",
              "system": "http://unitsofmeasure.org"
            }
          }
        ],
        "text": {
          "status": "generated",
          "div": "<div xmlns=\"http://www.w3.org/1999/xhtml\"><table class=\"hl7__eu__lab__report\"><tr><th>Test</th><th>27-Dec-2020</th><th>Reference&#xA0;Range</th><th>Unit</th></tr><tr><td>Erythrocyte distribution width [Entitic volume] by Automated count</td><td>43.2</td><td>39 - 55</td><td></td><td>fL</td></tr></table></div>"
        },
        "status": "final",
        "subject": {
          "reference": "urn:uuid:b97de48c-9768-43d0-90e1-3e35d5e01727",
          "display": "Russell Khan"
        },
        "effectiveDateTime": "2020-12-27T13:31:07Z",
        "specimen": {
          "reference": "urn:uuid:cc72c124-c7bf-4c26-823d-681aa68ead21"
        }
      }
    },
    {
      "fullUrl": "urn:uuid:5379129a-71e5-4f4e-8ef9-ea6b7bffad4f",
      "resource": {
        "resourceType": "Observation",
        "id": "5379129a-71e5-4f4e-8ef9-ea6b7bffad4f",
        "meta": {
          "profile": [
            "http://hl7.eu/fhir/laboratory/StructureDefinition/Observation-resultslab-eu-lab"
          ]
        },
        "performer": [
          {
            "display": "The Central European Lab"
          }
        ],
        "category": [
          {
            "coding": [
              {
                "system": "http://terminology.hl7.org/CodeSystem/observation-category",
                "code": "laboratory"
              }
            ]
          }
        ],
        "code": {
          "coding": [
            {
              "code": "777-3",
              "system": "http://loinc.org",
              "display": "Platelets [#/volume] in Blood by Automated count"
            }
          ],
          "text": "Platelets [#/volume] in Blood by Automated count"
        },
        "valueQuantity": {
          "system": "http://unitsofmeasure.org",
          "value": 214.2,
          "unit": "10*3/uL",
          "code": "10*3/uL"
        },
        "referenceRange": [
          {
            "low": {
              "value": 150,
              "code": "10*3/uL",
              "system": "http://unitsofmeasure.org"
            }
          },
          {
            "high": {
              "value": 379,
              "code": "10*3/uL",
              "system": "http://unitsofmeasure.org"
            }
          }
        ],
        "text": {
          "status": "generated",
          "div": "<div xmlns=\"http://www.w3.org/1999/xhtml\"><table class=\"hl7__eu__lab__report\"><tr><th>Test</th><th>27-Dec-2020</th><th>Reference&#xA0;Range</th><th>Unit</th></tr><tr><td>Platelets [#/volume] in Blood by Automated count</td><td>214.2</td><td>150 - 379</td><td></td><td>10*3/uL</td></tr></table></div>"
        },
        "status": "final",
        "subject": {
          "reference": "urn:uuid:b97de48c-9768-43d0-90e1-3e35d5e01727",
          "display": "Russell Khan"
        },
        "effectiveDateTime": "2020-12-27T13:31:07Z",
        "specimen": {
          "reference": "urn:uuid:cc72c124-c7bf-4c26-823d-681aa68ead21"
        }
      }
    },
    {
      "fullUrl": "urn:uuid:8d891dc3-93a2-48bb-8245-7fd7fe8f5591",
      "resource": {
        "resourceType": "Observation",
        "id": "8d891dc3-93a2-48bb-8245-7fd7fe8f5591",
        "meta": {
          "profile": [
            "http://hl7.eu/fhir/laboratory/StructureDefinition/Observation-resultslab-eu-lab"
          ]
        },
        "performer": [
          {
            "display": "The Central European Lab"
          }
        ],
        "category": [
          {
            "coding": [
              {
                "system": "http://terminology.hl7.org/CodeSystem/observation-category",
                "code": "laboratory"
              }
            ]
          }
        ],
        "code": {
          "coding": [
            {
              "code": "32207-3",
              "system": "http://loinc.org",
              "display": "Platelet distribution width [Entitic volume] in Blood by Automated count"
            }
          ],
          "text": "Platelet distribution width [Entitic volume] in Blood by Automated count"
        },
        "valueQuantity": {
          "system": "http://unitsofmeasure.org",
          "value": 421.7,
          "unit": "fL",
          "code": "fL"
        },
        "referenceRange": [
          {
            "low": {
              "value": 286,
              "code": "fL",
              "system": "http://unitsofmeasure.org"
            }
          },
          {
            "high": {
              "value": 366,
              "code": "fL",
              "system": "http://unitsofmeasure.org"
            }
          }
        ],
        "interpretation": [
          {
            "coding": [
              {
                "code": "H",
                "system": "http://terminology.hl7.org/CodeSystem/v3-ObservationInterpretation",
                "display": "High"
              }
            ]
          }
        ],
        "text": {
          "status": "generated",
          "div": "<div xmlns=\"http://www.w3.org/1999/xhtml\"><table class=\"hl7__eu__lab__report\"><tr><th>Test</th><th>27-Dec-2020</th><th>Reference&#xA0;Range</th><th>Unit</th></tr><tr><td>Platelet distribution width [Entitic volume] in Blood by Automated count</td><td>421.7</td><td>286 - 366</td><td>H</td><td>fL</td></tr></table></div>"
        },
        "status": "final",
        "subject": {
          "reference": "urn:uuid:b97de48c-9768-43d0-90e1-3e35d5e01727",
          "display": "Russell Khan"
        },
        "effectiveDateTime": "2020-12-27T13:31:07Z",
        "specimen": {
          "reference": "urn:uuid:cc72c124-c7bf-4c26-823d-681aa68ead21"
        }
      }
    },
    {
      "fullUrl": "urn:uuid:d8a2c465-11ea-4f62-86f6-32e0a4de6bb7",
      "resource": {
        "resourceType": "Observation",
        "id": "d8a2c465-11ea-4f62-86f6-32e0a4de6bb7",
        "meta": {
          "profile": [
            "http://hl7.eu/fhir/laboratory/StructureDefinition/Observation-resultslab-eu-lab"
          ]
        },
        "performer": [
          {
            "display": "The Central European Lab"
          }
        ],
        "category": [
          {
            "coding": [
              {
                "system": "http://terminology.hl7.org/CodeSystem/observation-category",
                "code": "laboratory"
              }
            ]
          }
        ],
        "code": {
          "coding": [
            {
              "code": "32623-1",
              "system": "http://loinc.org",
              "display": "Platelet mean volume [Entitic volume] in Blood by Automated count"
            }
          ],
          "text": "Platelet mean volume [Entitic volume] in Blood by Automated count"
        },
        "valueQuantity": {
          "system": "http://unitsofmeasure.org",
          "value": 11.7,
          "unit": "fL",
          "code": "fL"
        },
        "referenceRange": [
          {
            "low": {
              "value": 7.2,
              "code": "fL",
              "system": "http://unitsofmeasure.org"
            }
          },
          {
            "high": {
              "value": 13.8,
              "code": "fL",
              "system": "http://unitsofmeasure.org"
            }
          }
        ],
        "text": {
          "status": "generated",
          "div": "<div xmlns=\"http://www.w3.org/1999/xhtml\"><table class=\"hl7__eu__lab__report\"><tr><th>Test</th><th>27-Dec-2020</th><th>Reference&#xA0;Range</th><th>Unit</th></tr><tr><td>Platelet mean volume [Entitic volume] in Blood by Automated count</td><td>11.7</td><td>7.2 - 13.8</td><td></td><td>fL</td></tr></table></div>"
        },
        "status": "final",
        "subject": {
          "reference": "urn:uuid:b97de48c-9768-43d0-90e1-3e35d5e01727",
          "display": "Russell Khan"
        },
        "effectiveDateTime": "2020-12-27T13:31:07Z",
        "specimen": {
          "reference": "urn:uuid:cc72c124-c7bf-4c26-823d-681aa68ead21"
        }
      }
    },
    {
      "fullUrl": "urn:uuid:a13c42fd-a187-47c6-b4b3-793a7ac3dedf",
      "resource": {
        "resourceType": "Device",
        "id": "a13c42fd-a187-47c6-b4b3-793a7ac3dedf",
        "deviceName": [
          {
            "name": "SYNDERAI Synthetic Generator",
            "type": "manufacturer-name"
          }
        ],
        "version": [
          {
            "value": "5.0"
          }
        ],
        "text": {
          "status": "generated",
          "div": "<div xmlns=\"http://www.w3.org/1999/xhtml\">SYNDERAI Synthetic Generator v5.0</div>"
        },
        "status": "active\"",
        "distinctIdentifier": "synderai-generator-50",
        "manufacturer": "SYNDERAI Project"
      }
    },
    {
      "fullUrl": "urn:uuid:505b8eb7-5e75-4f83-9cbc-5a0bdfe7db4e",
      "resource": {
        "resourceType": "Provenance",
        "id": "505b8eb7-5e75-4f83-9cbc-5a0bdfe7db4e",
        "target": [
          {
            "reference": "Patient/b97de48c-9768-43d0-90e1-3e35d5e01727"
          },
          {
            "reference": "Bundle/60143a85-56dd-47e9-ac41-c8f855635992"
          },
          {
            "reference": "Composition/29f4b23c-2c92-42e3-8289-73903555a1c1"
          },
          {
            "reference": "PractitionerRole/9ae90a75-7738-4d0e-9675-61c656a603c8"
          },
          {
            "reference": "Practitioner/868dd765-3f40-408a-9c28-9f7978aeacbf"
          },
          {
            "reference": "PractitionerRole/c882f6bb-bacc-4bab-a84a-ed7ce81ebe07"
          },
          {
            "reference": "Organization/4eb210fc-b5be-4d3b-870c-378ad20914b8"
          }
        ],
        "activity": {
          "text": "Synthetic Example Data Generation"
        },
        "policy": [
          "https://synderai.net/synderai-synthetic-data-policy"
        ],
        "agent": [
          {
            "type": {
              "text": "author"
            },
            "who": {
              "reference": "Device/a13c42fd-a187-47c6-b4b3-793a7ac3dedf"
            }
          }
        ],
        "reason": [
          {
            "text": "Interoperability Testing and Training (non-clinical use)"
          }
        ],
        "text": {
          "status": "generated",
          "div": "<div xmlns=\"http://www.w3.org/1999/xhtml\">Provenance for SYNDERAI Synthetic Example Data Resource</div>"
        },
        "recorded": "2020-12-27T14:31:07Z"
      }
    },
    {
      "fullUrl": "urn:uuid:9ae90a75-7738-4d0e-9675-61c656a603c8",
      "resource": {
        "resourceType": "PractitionerRole",
        "id": "9ae90a75-7738-4d0e-9675-61c656a603c8",
        "meta": {
          "profile": [
            "http://hl7.eu/fhir/base/StructureDefinition/practitionerRole-eu"
          ]
        },
        "text": {
          "status": "generated",
          "div": "<div xmlns=\"http://www.w3.org/1999/xhtml\">Laboratory Role Id: 9ae90a75-7738-4d0e-9675-61c656a603c8</div>"
        },
        "practitioner": {
          "reference": "urn:uuid:868dd765-3f40-408a-9c28-9f7978aeacbf"
        }
      }
    },
    {
      "fullUrl": "urn:uuid:868dd765-3f40-408a-9c28-9f7978aeacbf",
      "resource": {
        "resourceType": "Practitioner",
        "id": "868dd765-3f40-408a-9c28-9f7978aeacbf",
        "meta": {
          "profile": [
            "http://hl7.eu/fhir/base/StructureDefinition/practitioner-eu"
          ]
        },
        "identifier": [
          {
            "assigner": {
              "display": "HL7 Europe"
            },
            "system": "urn:oid:2.16.840.1.113883.2.51.999",
            "value": "ed05d2ad-2dc6-441e-8292-100476a3db99"
          }
        ],
        "name": [
          {
            "prefix": [
              "dr"
            ],
            "given": [
              "Ex"
            ],
            "family": "Ample"
          }
        ],
        "address": [
          {
            "line": [
              "Laboratoire Central Européenne",
              "Boulevard du Jardin Botanique 32"
            ],
            "postalCode": "1000",
            "city": "Brussels",
            "country": "Belgium"
          }
        ],
        "text": {
          "status": "generated",
          "div": "<div xmlns=\"http://www.w3.org/1999/xhtml\">Laboratory: Laboratoire Central Européenne, 1000 Brussels, Belgium</div>"
        }
      }
    }
  ],
  "type": "document",
  "timestamp": "2020-12-27T14:31:07Z"
}
