{
  "resourceType": "Bundle",
  "id": "4d119253-eeeb-4cca-8677-07f24c7ecdce",
  "meta": {
    "profile": [
      "http://hl7.eu/fhir/laboratory/StructureDefinition/Bundle-eu-lab"
    ]
  },
  "identifier": {
    "assigner": {
      "display": "HL7 Europe"
    },
    "system": "urn:oid:2.16.840.1.113883.2.51.999",
    "value": "b76ac66e-1128-4f3d-9aef-707944404399"
  },
  "entry": [
    {
      "fullUrl": "urn:uuid:ec337758-36ad-4cef-959d-89280f3463eb",
      "resource": {
        "resourceType": "Composition",
        "id": "ec337758-36ad-4cef-959d-89280f3463eb",
        "meta": {
          "profile": [
            "http://hl7.eu/fhir/laboratory/StructureDefinition/Composition-eu-lab"
          ]
        },
        "identifier": {
          "assigner": {
            "display": "HL7 Europe"
          },
          "system": "urn:oid:2.16.840.1.113883.2.51.999",
          "value": "e3ef0bfa-e73a-4bdf-ade6-2c51aa22f39d"
        },
        "author": [
          {
            "reference": "urn:uuid:23898394-8fb9-433a-bafb-798de07927fc"
          }
        ],
        "category": [
          {
            "coding": [
              {
                "code": "26436-6",
                "system": "http://loinc.org",
                "display": "Laboratory studies (set)"
              }
            ]
          }
        ],
        "type": {
          "coding": [
            {
              "code": "11502-2",
              "system": "http://loinc.org",
              "display": "Laboratory report"
            }
          ],
          "text": "Laboratory Report"
        },
        "section": [
          {
            "code": {
              "coding": [
                {
                  "code": "26436-6",
                  "system": "http://loinc.org",
                  "display": "Laboratory studies (set)"
                }
              ],
              "text": "Laboratory studies"
            },
            "section": [
              {
                "code": {
                  "coding": [
                    {
                      "code": "$18719-5",
                      "system": "http://loinc.org",
                      "display": "Chemistry studies (set)"
                    }
                  ],
                  "text": "Chemistry"
                },
                "entry": [
                  {
                    "reference": "urn:uuid:3b2be081-8178-4463-a2d5-f71f3e5eff2d"
                  },
                  {
                    "reference": "urn:uuid:8cf7276a-261b-4b01-9430-e0b4eb2e77e6"
                  },
                  {
                    "reference": "urn:uuid:3fa3b457-233f-470e-8ac1-002d64f93c4a"
                  },
                  {
                    "reference": "urn:uuid:cf29205e-3c5d-4667-8f57-890f7b2bc477"
                  },
                  {
                    "reference": "urn:uuid:f0b7b52a-ae54-4243-911c-b7c434cddb3e"
                  },
                  {
                    "reference": "urn:uuid:64fb99c0-5cd6-4777-9e22-646f8fd662c3"
                  },
                  {
                    "reference": "urn:uuid:6113639c-4bc7-44c2-95a5-45a2910d44d1"
                  },
                  {
                    "reference": "urn:uuid:7f96ea8b-b9ae-42be-9c94-1891144d3228"
                  },
                  {
                    "reference": "urn:uuid:3cb3a258-b0f6-4e5f-a386-a73d77184d4f"
                  },
                  {
                    "reference": "urn:uuid:c28eb8c1-9a99-4343-a771-a015aaa2b167"
                  },
                  {
                    "reference": "urn:uuid:f5c42b8f-fc72-43ac-afc1-d1504b84527c"
                  },
                  {
                    "reference": "urn:uuid:535183dd-0875-4173-ad64-0d186c5a31a7"
                  },
                  {
                    "reference": "urn:uuid:e32d9dd1-036c-4389-8f72-b0c3e2aa862f"
                  },
                  {
                    "reference": "urn:uuid:344090d2-834c-480b-9413-dbc20b072ef9"
                  },
                  {
                    "reference": "urn:uuid:cb6fbbea-8db4-4795-b9d6-1f6e0f45daee"
                  },
                  {
                    "reference": "urn:uuid:a4ba2d22-33fd-4f52-9839-c42a6ec7719d"
                  },
                  {
                    "reference": "urn:uuid:4ed4a730-d521-4da5-b3be-78089e248691"
                  },
                  {
                    "reference": "urn:uuid:d939f34f-da63-4255-9c1d-fa802b47781d"
                  },
                  {
                    "reference": "urn:uuid:8c18d85d-5c6a-418e-8b4f-a0e51483fd06"
                  }
                ],
                "text": {
                  "status": "generated",
                  "div": "<div xmlns=\"http://www.w3.org/1999/xhtml\"><h3>Chemistry</h3><table class=\"hl7__eu__lab__report\"><thead><tr><th>Test</th><th>04-APR-2025</th><th>Reference&#xA0;Range</th><th>Unit</th></tr></thead><tbody><tr><td>Glucose [Mass/volume] in Blood</td><td>85.9</td><td>70 - 99</td><td>mg/dL</td></tr><tr><td>Urea nitrogen [Mass/volume] in Blood</td><td>11.0</td><td>7 - 45</td><td>mg/dL</td></tr><tr><td>Creatinine [Mass/volume] in Blood</td><td><strong>3.5 H</strong></td><td>0.6 - 1.1</td><td>mg/dL</td></tr><tr><td>Calcium [Mass/volume] in Blood</td><td>8.7</td><td>8.5 - 10.4</td><td>mg/dL</td></tr><tr><td>Sodium [Moles/volume] in Blood</td><td>143.8</td><td>135 - 145</td><td>mmol/L</td></tr><tr><td>Potassium [Moles/volume] in Blood</td><td>4.6</td><td>3.5 - 5.1</td><td>mmol/L</td></tr><tr><td>Chloride [Moles/volume] in Blood</td><td>106.1</td><td>98 - 110</td><td>mmol/L</td></tr><tr><td>Carbon dioxide, total [Moles/volume] in Blood</td><td>28.6</td><td>22 - 29</td><td>mmol/L</td></tr><tr><td>Protein [Mass/volume] in Serum or Plasma</td><td>7.2</td><td>6 - 8.3</td><td>g/dL</td></tr><tr><td>Albumin [Mass/volume] in Serum or Plasma</td><td>4.0</td><td>3.5 - 5.5</td><td>g/dL</td></tr><tr><td>Globulin [Mass/volume] in Serum by calculation</td><td>3.2</td><td>2 - 3.5</td><td>g/L</td></tr><tr><td>Bilirubin.total [Mass/volume] in Serum or Plasma</td><td>0.3</td><td>0.3 - 1.2</td><td>mg/dL</td></tr><tr><td>Alkaline phosphatase [Enzymatic activity/volume] in Serum or Plasma</td><td><strong>22.8 L</strong></td><td>44 - 130</td><td>U/L</td></tr><tr><td>Alanine aminotransferase [Enzymatic activity/volume] in Serum or Plasma</td><td><strong>35.7 H</strong></td><td>7 - 33</td><td>U/L</td></tr><tr><td>Aspartate aminotransferase [Enzymatic activity/volume] in Serum or Plasma</td><td>36.2</td><td>10 - 40</td><td>U/L</td></tr><tr><td>Cholesterol [Mass/volume] in Serum or Plasma</td><td>191.2</td><td>125 - 200</td><td>mg/dL</td></tr><tr><td>Triglyceride [Mass/volume] in Serum or Plasma</td><td>125.1</td><td>10 - 175</td><td>mg/dL</td></tr><tr><td>Cholesterol in LDL [Mass/volume] in Serum or Plasma by Direct assay</td><td>125.6</td><td>0 - 130</td><td>mg/dL</td></tr><tr><td>Cholesterol in HDL [Mass/volume] in Serum or Plasma</td><td>42.5</td><td>40 - 100</td><td>mg/dL</td></tr></tbody></table></div>"
                },
                "title": "Chemistry"
              }
            ],
            "title": "Laboratory Report"
          },
          {
            "text": {
              "status": "generated",
              "div": "<div xmlns=\"http://www.w3.org/1999/xhtml\"><h3>Annotation</h3><table class=\"hl7__eu__lab__report\"><tr><th>Conclusion and Recommendations based on this report and previous findings known to us</th></tr><tr><td>The main abnormality is a markedly elevated creatinine, indicating significant renal impairment. Mildly elevated ALT suggests possible mild liver involvement, but other liver parameters are within normal limits. Alkaline phosphatase is low, which is usually not clinically significant. Electrolytes, glucose, proteins, and lipid profile are within or near normal limits. Recommend clinical correlation and further evaluation of renal function.</td></tr></table></div>"
            },
            "code": {
              "coding": [
                {
                  "system": "http://loinc.org",
                  "code": "48767-8",
                  "display": "Annotation comment"
                }
              ]
            },
            "title": "Annotation comment"
          }
        ],
        "status": "final",
        "subject": {
          "reference": "urn:uuid:1dcc8414-9cc2-494b-9ecb-97b52b49f36f",
          "display": "Marthe Gallet"
        },
        "date": "2025-04-04T21:05:43Z",
        "title": "Laboratory Report",
        "confidentiality": "N"
      }
    },
    {
      "fullUrl": "urn:uuid:24bcaa23-d063-49af-a474-ced32cc45182",
      "resource": {
        "resourceType": "DiagnosticReport",
        "id": "24bcaa23-d063-49af-a474-ced32cc45182",
        "meta": {
          "profile": [
            "http://hl7.eu/fhir/laboratory/StructureDefinition/DiagnosticReport-eu-lab"
          ]
        },
        "identifier": [
          {
            "assigner": {
              "display": "HL7 Europe"
            },
            "system": "urn:oid:2.16.840.1.113883.2.51.999",
            "value": "7c25fdcf-f34b-4d9b-af58-249de7f58498"
          }
        ],
        "extension": [
          {
            "url": "http://hl7.org/fhir/5.0/StructureDefinition/extension-DiagnosticReport.composition",
            "valueReference": {
              "reference": "urn:uuid:e3ef0bfa-e73a-4bdf-ade6-2c51aa22f39d"
            }
          }
        ],
        "category": [
          {
            "coding": [
              {
                "code": "26436-6",
                "system": "http://loinc.org",
                "display": "Laboratory studies (set)"
              }
            ]
          }
        ],
        "specimen": [
          {
            "reference": "urn:uuid:d4e966a9-a82c-4b52-96b3-7357ff2d1282"
          },
          {
            "reference": "urn:uuid:d00917eb-12e9-405b-a71f-f7de6693d4f0"
          },
          {
            "reference": "urn:uuid:479275fa-a250-4078-b703-4ef8cfc05980"
          }
        ],
        "result": [
          {
            "reference": "urn:uuid:3b2be081-8178-4463-a2d5-f71f3e5eff2d"
          },
          {
            "reference": "urn:uuid:8cf7276a-261b-4b01-9430-e0b4eb2e77e6"
          },
          {
            "reference": "urn:uuid:3fa3b457-233f-470e-8ac1-002d64f93c4a"
          },
          {
            "reference": "urn:uuid:cf29205e-3c5d-4667-8f57-890f7b2bc477"
          },
          {
            "reference": "urn:uuid:f0b7b52a-ae54-4243-911c-b7c434cddb3e"
          },
          {
            "reference": "urn:uuid:64fb99c0-5cd6-4777-9e22-646f8fd662c3"
          },
          {
            "reference": "urn:uuid:6113639c-4bc7-44c2-95a5-45a2910d44d1"
          },
          {
            "reference": "urn:uuid:7f96ea8b-b9ae-42be-9c94-1891144d3228"
          },
          {
            "reference": "urn:uuid:3cb3a258-b0f6-4e5f-a386-a73d77184d4f"
          },
          {
            "reference": "urn:uuid:c28eb8c1-9a99-4343-a771-a015aaa2b167"
          },
          {
            "reference": "urn:uuid:f5c42b8f-fc72-43ac-afc1-d1504b84527c"
          },
          {
            "reference": "urn:uuid:535183dd-0875-4173-ad64-0d186c5a31a7"
          },
          {
            "reference": "urn:uuid:e32d9dd1-036c-4389-8f72-b0c3e2aa862f"
          },
          {
            "reference": "urn:uuid:344090d2-834c-480b-9413-dbc20b072ef9"
          },
          {
            "reference": "urn:uuid:cb6fbbea-8db4-4795-b9d6-1f6e0f45daee"
          },
          {
            "reference": "urn:uuid:a4ba2d22-33fd-4f52-9839-c42a6ec7719d"
          },
          {
            "reference": "urn:uuid:4ed4a730-d521-4da5-b3be-78089e248691"
          },
          {
            "reference": "urn:uuid:d939f34f-da63-4255-9c1d-fa802b47781d"
          },
          {
            "reference": "urn:uuid:8c18d85d-5c6a-418e-8b4f-a0e51483fd06"
          }
        ],
        "status": "registered",
        "code": {
          "coding": [
            {
              "code": "11502-2",
              "system": "http://loinc.org",
              "display": "Laboratory report"
            }
          ]
        },
        "subject": {
          "reference": "urn:uuid:1dcc8414-9cc2-494b-9ecb-97b52b49f36f",
          "display": "Marthe Gallet"
        }
      }
    },
    {
      "fullUrl": "urn:uuid:1dcc8414-9cc2-494b-9ecb-97b52b49f36f",
      "resource": {
        "resourceType": "Patient",
        "id": "1dcc8414-9cc2-494b-9ecb-97b52b49f36f",
        "meta": {
          "security": [
            {
              "system": "http://terminology.hl7.org/CodeSystem/v3-ActReason",
              "code": "HTEST"
            },
            {
              "system": "http://terminology.hl7.org/CodeSystem/v3-ActReason",
              "code": "TRAIN"
            }
          ],
          "tag": [
            {
              "system": "https://synderai.net/fhir/CodeSystem/tags",
              "code": "synthetic",
              "display": "SYNDERAI Synthetic data"
            }
          ],
          "profile": [
            "http://hl7.eu/fhir/base/StructureDefinition/patient-eu-core"
          ]
        },
        "identifier": [
          {
            "type": {
              "coding": [
                {
                  "code": "PT",
                  "system": "http://terminology.hl7.org/CodeSystem/v2-0203"
                }
              ]
            },
            "system": "http://ec.europa.eu/identifier/eci",
            "value": "9444-947487-6"
          },
          {
            "type": {
              "coding": [
                {
                  "code": "MR",
                  "system": "http://terminology.hl7.org/CodeSystem/v2-0203"
                }
              ]
            },
            "system": "http://local.setting.eu/identifier",
            "value": "854228d5-a476-2d9c-a1d7-c3202375a617"
          }
        ],
        "name": [
          {
            "family": "Gallet"
          },
          {
            "given": [
              "Marthe"
            ]
          },
          {
            "text": "Marthe Gallet"
          }
        ],
        "address": [
          {
            "line": [
              "3, rue Emmanuel Goncalves"
            ],
            "use": "home",
            "type": "physical",
            "postalCode": "49490",
            "city": "Briand",
            "country": "France"
          }
        ],
        "telecom": [
          {
            "system": "phone",
            "value": "+33 1 70 99 82 74"
          }
        ],
        "extension": [
          {
            "url": "http://hl7.org/fhir/StructureDefinition/patient-nationality",
            "valueCodeableConcept": {
              "coding": [
                {
                  "code": "FR",
                  "system": "http://hl7.org/fhir/ValueSet/country"
                }
              ]
            }
          }
        ],
        "text": {
          "status": "generated",
          "div": "<div xmlns=\"http://www.w3.org/1999/xhtml\"><table class=\"hl7__ips\"><tr><td>Marthe Gallet</td><td>female</td><td>29-Oct-1950</td></tr></table></div>"
        },
        "gender": "female",
        "birthDate": "1950-10-29"
      }
    },
    {
      "fullUrl": "urn:uuid:6e676e0e-dbc1-4874-9477-432aaddd8d3f",
      "resource": {
        "resourceType": "ServiceRequest",
        "id": "6e676e0e-dbc1-4874-9477-432aaddd8d3f",
        "meta": {
          "profile": [
            "http://hl7.eu/fhir/laboratory/StructureDefinition/ServiceRequest-eu-lab"
          ]
        },
        "identifier": [
          {
            "system": "http://example.org",
            "value": "d631a9cf-a43b-47eb-a93d-04e98a350711"
          }
        ],
        "specimen": [
          {
            "reference": "urn:uuid:d4e966a9-a82c-4b52-96b3-7357ff2d1282"
          },
          {
            "reference": "urn:uuid:d00917eb-12e9-405b-a71f-f7de6693d4f0"
          },
          {
            "reference": "urn:uuid:479275fa-a250-4078-b703-4ef8cfc05980"
          }
        ],
        "reasonCode": [
          {
            "coding": [
              {
                "code": "431856006",
                "system": "http://snomed.info/sct",
                "display": "Chronic kidney disease stage 2"
              }
            ]
          },
          {
            "coding": [
              {
                "code": "90781000119102",
                "system": "http://snomed.info/sct",
                "display": "Microalbuminuria due to type 2 diabetes mellitus"
              }
            ]
          },
          {
            "coding": [
              {
                "code": "127013003",
                "system": "http://snomed.info/sct",
                "display": "Disorder of kidney due to diabetes mellitus"
              }
            ]
          },
          {
            "coding": [
              {
                "code": "431855005",
                "system": "http://snomed.info/sct",
                "display": "Chronic kidney disease stage 1"
              }
            ]
          },
          {
            "coding": [
              {
                "code": "55822004",
                "system": "http://snomed.info/sct",
                "display": "Hyperlipidemia"
              }
            ]
          },
          {
            "coding": [
              {
                "code": "59621000",
                "system": "http://snomed.info/sct",
                "display": "Essential hypertension"
              }
            ]
          }
        ],
        "status": "active",
        "intent": "order",
        "code": {
          "coding": [
            {
              "code": "108252007",
              "system": "http://snomed.info/sct",
              "display": "Laboratory procedure"
            }
          ]
        },
        "subject": {
          "reference": "urn:uuid:1dcc8414-9cc2-494b-9ecb-97b52b49f36f",
          "display": "Marthe Gallet"
        },
        "requester": {
          "reference": "urn:uuid:152bcb24-76d0-4cc2-a281-6467e2fb53ea"
        }
      }
    },
    {
      "fullUrl": "urn:uuid:152bcb24-76d0-4cc2-a281-6467e2fb53ea",
      "resource": {
        "resourceType": "PractitionerRole",
        "id": "152bcb24-76d0-4cc2-a281-6467e2fb53ea",
        "meta": {
          "profile": [
            "http://hl7.eu/fhir/base/StructureDefinition/practitionerRole-eu"
          ]
        },
        "text": {
          "status": "generated",
          "div": "<div xmlns=\"http://www.w3.org/1999/xhtml\">Provider Role Id: 152bcb24-76d0-4cc2-a281-6467e2fb53ea</div>"
        },
        "organization": {
          "reference": "urn:uuid:8030e419-476b-4d6e-963e-5aeb16827f21"
        }
      }
    },
    {
      "fullUrl": "urn:uuid:8030e419-476b-4d6e-963e-5aeb16827f21",
      "resource": {
        "resourceType": "Organization",
        "id": "8030e419-476b-4d6e-963e-5aeb16827f21",
        "meta": {
          "profile": [
            "http://hl7.eu/fhir/base/StructureDefinition/organization-eu"
          ]
        },
        "identifier": [
          {
            "assigner": {
              "display": "HL7 Europe"
            },
            "system": "urn:oid:2.16.840.1.113883.2.51.999",
            "value": "eef07ed0-c38a-4724-9b66-20c14f26a04f"
          }
        ],
        "address": [
          {
            "line": [
              "Rue Larrey nan"
            ],
            "city": "Angers",
            "postalCode": "49100",
            "country": "France"
          }
        ],
        "text": {
          "status": "generated",
          "div": "<div xmlns=\"http://www.w3.org/1999/xhtml\">Provider Organization: CHU d&#039;Angers</div>"
        },
        "name": "CHU d&#039;Angers"
      }
    },
    {
      "fullUrl": "urn:uuid:d4e966a9-a82c-4b52-96b3-7357ff2d1282",
      "resource": {
        "resourceType": "Specimen",
        "id": "d4e966a9-a82c-4b52-96b3-7357ff2d1282",
        "meta": {
          "profile": [
            "http://hl7.eu/fhir/laboratory/StructureDefinition/Specimen-eu-lab"
          ]
        },
        "collection": {
          "collectedDateTime": "2025-04-04"
        },
        "text": {
          "status": "generated",
          "div": "<div xmlns=\"http://www.w3.org/1999/xhtml\"><table class=\"hl7__eu__lab__report\"><tr><th>Specimen</th><th>Collection Date</th></tr><tr><td>Whole blood specimen (specimen)</td><td><span class=\"nb\">04-Apr-2025</span></td></tr></table></div>"
        },
        "type": {
          "coding": [
            {
              "code": "258580003",
              "system": "http://snomed.info/sct",
              "display": "Whole blood specimen (specimen)"
            }
          ]
        }
      }
    },
    {
      "fullUrl": "urn:uuid:d00917eb-12e9-405b-a71f-f7de6693d4f0",
      "resource": {
        "resourceType": "Specimen",
        "id": "d00917eb-12e9-405b-a71f-f7de6693d4f0",
        "meta": {
          "profile": [
            "http://hl7.eu/fhir/laboratory/StructureDefinition/Specimen-eu-lab"
          ]
        },
        "collection": {
          "collectedDateTime": "2025-04-04"
        },
        "text": {
          "status": "generated",
          "div": "<div xmlns=\"http://www.w3.org/1999/xhtml\"><table class=\"hl7__eu__lab__report\"><tr><th>Specimen</th><th>Collection Date</th></tr><tr><td>Acellular blood (serum or plasma) specimen</td><td><span class=\"nb\">04-Apr-2025</span></td></tr></table></div>"
        },
        "type": {
          "coding": [
            {
              "code": "122592007",
              "system": "http://snomed.info/sct",
              "display": "Acellular blood (serum or plasma) specimen"
            }
          ]
        }
      }
    },
    {
      "fullUrl": "urn:uuid:479275fa-a250-4078-b703-4ef8cfc05980",
      "resource": {
        "resourceType": "Specimen",
        "id": "479275fa-a250-4078-b703-4ef8cfc05980",
        "meta": {
          "profile": [
            "http://hl7.eu/fhir/laboratory/StructureDefinition/Specimen-eu-lab"
          ]
        },
        "collection": {
          "collectedDateTime": "2025-04-04"
        },
        "text": {
          "status": "generated",
          "div": "<div xmlns=\"http://www.w3.org/1999/xhtml\"><table class=\"hl7__eu__lab__report\"><tr><th>Specimen</th><th>Collection Date</th></tr><tr><td>Serum specimen</td><td><span class=\"nb\">04-Apr-2025</span></td></tr></table></div>"
        },
        "type": {
          "coding": [
            {
              "code": "119364003",
              "system": "http://snomed.info/sct",
              "display": "Serum specimen"
            }
          ]
        }
      }
    },
    {
      "fullUrl": "urn:uuid:3b2be081-8178-4463-a2d5-f71f3e5eff2d",
      "resource": {
        "resourceType": "Observation",
        "id": "3b2be081-8178-4463-a2d5-f71f3e5eff2d",
        "meta": {
          "profile": [
            "http://hl7.eu/fhir/laboratory/StructureDefinition/Observation-resultslab-eu-lab"
          ]
        },
        "performer": [
          {
            "display": "The Central European Lab"
          }
        ],
        "category": [
          {
            "coding": [
              {
                "system": "http://terminology.hl7.org/CodeSystem/observation-category",
                "code": "laboratory"
              }
            ]
          }
        ],
        "code": {
          "coding": [
            {
              "code": "2339-0",
              "system": "http://loinc.org",
              "display": "Glucose [Mass/volume] in Blood"
            }
          ],
          "text": "Glucose [Mass/volume] in Blood"
        },
        "valueQuantity": {
          "system": "http://unitsofmeasure.org",
          "value": 85.9,
          "unit": "mg/dL",
          "code": "mg/dL"
        },
        "referenceRange": [
          {
            "low": {
              "value": 70,
              "code": "mg/dL",
              "system": "http://unitsofmeasure.org"
            }
          },
          {
            "high": {
              "value": 99,
              "code": "mg/dL",
              "system": "http://unitsofmeasure.org"
            }
          }
        ],
        "text": {
          "status": "generated",
          "div": "<div xmlns=\"http://www.w3.org/1999/xhtml\"><table class=\"hl7__eu__lab__report\"><tr><th>Test</th><th>04-Apr-2025</th><th>Reference&#xA0;Range</th><th>Unit</th></tr><tr><td>Glucose [Mass/volume] in Blood</td><td>85.9</td><td>70 - 99</td><td></td><td>mg/dL</td></tr></table></div>"
        },
        "status": "final",
        "subject": {
          "reference": "urn:uuid:1dcc8414-9cc2-494b-9ecb-97b52b49f36f",
          "display": "Marthe Gallet"
        },
        "effectiveDateTime": "2025-04-04T19:05:43Z",
        "specimen": {
          "reference": "urn:uuid:d4e966a9-a82c-4b52-96b3-7357ff2d1282"
        }
      }
    },
    {
      "fullUrl": "urn:uuid:8cf7276a-261b-4b01-9430-e0b4eb2e77e6",
      "resource": {
        "resourceType": "Observation",
        "id": "8cf7276a-261b-4b01-9430-e0b4eb2e77e6",
        "meta": {
          "profile": [
            "http://hl7.eu/fhir/laboratory/StructureDefinition/Observation-resultslab-eu-lab"
          ]
        },
        "performer": [
          {
            "display": "The Central European Lab"
          }
        ],
        "category": [
          {
            "coding": [
              {
                "system": "http://terminology.hl7.org/CodeSystem/observation-category",
                "code": "laboratory"
              }
            ]
          }
        ],
        "code": {
          "coding": [
            {
              "code": "6299-2",
              "system": "http://loinc.org",
              "display": "Urea nitrogen [Mass/volume] in Blood"
            }
          ],
          "text": "Urea nitrogen [Mass/volume] in Blood"
        },
        "valueQuantity": {
          "system": "http://unitsofmeasure.org",
          "value": 11,
          "unit": "mg/dL",
          "code": "mg/dL"
        },
        "referenceRange": [
          {
            "low": {
              "value": 7,
              "code": "mg/dL",
              "system": "http://unitsofmeasure.org"
            }
          },
          {
            "high": {
              "value": 45,
              "code": "mg/dL",
              "system": "http://unitsofmeasure.org"
            }
          }
        ],
        "text": {
          "status": "generated",
          "div": "<div xmlns=\"http://www.w3.org/1999/xhtml\"><table class=\"hl7__eu__lab__report\"><tr><th>Test</th><th>04-Apr-2025</th><th>Reference&#xA0;Range</th><th>Unit</th></tr><tr><td>Urea nitrogen [Mass/volume] in Blood</td><td>11.0</td><td>7 - 45</td><td></td><td>mg/dL</td></tr></table></div>"
        },
        "status": "final",
        "subject": {
          "reference": "urn:uuid:1dcc8414-9cc2-494b-9ecb-97b52b49f36f",
          "display": "Marthe Gallet"
        },
        "effectiveDateTime": "2025-04-04T19:05:43Z",
        "specimen": {
          "reference": "urn:uuid:d4e966a9-a82c-4b52-96b3-7357ff2d1282"
        }
      }
    },
    {
      "fullUrl": "urn:uuid:3fa3b457-233f-470e-8ac1-002d64f93c4a",
      "resource": {
        "resourceType": "Observation",
        "id": "3fa3b457-233f-470e-8ac1-002d64f93c4a",
        "meta": {
          "profile": [
            "http://hl7.eu/fhir/laboratory/StructureDefinition/Observation-resultslab-eu-lab"
          ]
        },
        "performer": [
          {
            "display": "The Central European Lab"
          }
        ],
        "category": [
          {
            "coding": [
              {
                "system": "http://terminology.hl7.org/CodeSystem/observation-category",
                "code": "laboratory"
              }
            ]
          }
        ],
        "code": {
          "coding": [
            {
              "code": "38483-4",
              "system": "http://loinc.org",
              "display": "Creatinine [Mass/volume] in Blood"
            }
          ],
          "text": "Creatinine [Mass/volume] in Blood"
        },
        "valueQuantity": {
          "system": "http://unitsofmeasure.org",
          "value": 3.5,
          "unit": "mg/dL",
          "code": "mg/dL"
        },
        "referenceRange": [
          {
            "low": {
              "value": 0.6,
              "code": "mg/dL",
              "system": "http://unitsofmeasure.org"
            }
          },
          {
            "high": {
              "value": 1.1,
              "code": "mg/dL",
              "system": "http://unitsofmeasure.org"
            }
          }
        ],
        "interpretation": [
          {
            "coding": [
              {
                "code": "H",
                "system": "http://terminology.hl7.org/CodeSystem/v3-ObservationInterpretation",
                "display": "High"
              }
            ]
          }
        ],
        "text": {
          "status": "generated",
          "div": "<div xmlns=\"http://www.w3.org/1999/xhtml\"><table class=\"hl7__eu__lab__report\"><tr><th>Test</th><th>04-Apr-2025</th><th>Reference&#xA0;Range</th><th>Unit</th></tr><tr><td>Creatinine [Mass/volume] in Blood</td><td>3.5</td><td>0.6 - 1.1</td><td>H</td><td>mg/dL</td></tr></table></div>"
        },
        "status": "final",
        "subject": {
          "reference": "urn:uuid:1dcc8414-9cc2-494b-9ecb-97b52b49f36f",
          "display": "Marthe Gallet"
        },
        "effectiveDateTime": "2025-04-04T19:05:43Z",
        "specimen": {
          "reference": "urn:uuid:d4e966a9-a82c-4b52-96b3-7357ff2d1282"
        }
      }
    },
    {
      "fullUrl": "urn:uuid:cf29205e-3c5d-4667-8f57-890f7b2bc477",
      "resource": {
        "resourceType": "Observation",
        "id": "cf29205e-3c5d-4667-8f57-890f7b2bc477",
        "meta": {
          "profile": [
            "http://hl7.eu/fhir/laboratory/StructureDefinition/Observation-resultslab-eu-lab"
          ]
        },
        "performer": [
          {
            "display": "The Central European Lab"
          }
        ],
        "category": [
          {
            "coding": [
              {
                "system": "http://terminology.hl7.org/CodeSystem/observation-category",
                "code": "laboratory"
              }
            ]
          }
        ],
        "code": {
          "coding": [
            {
              "code": "49765-1",
              "system": "http://loinc.org",
              "display": "Calcium [Mass/volume] in Blood"
            }
          ],
          "text": "Calcium [Mass/volume] in Blood"
        },
        "valueQuantity": {
          "system": "http://unitsofmeasure.org",
          "value": 8.7,
          "unit": "mg/dL",
          "code": "mg/dL"
        },
        "referenceRange": [
          {
            "low": {
              "value": 8.5,
              "code": "mg/dL",
              "system": "http://unitsofmeasure.org"
            }
          },
          {
            "high": {
              "value": 10.4,
              "code": "mg/dL",
              "system": "http://unitsofmeasure.org"
            }
          }
        ],
        "text": {
          "status": "generated",
          "div": "<div xmlns=\"http://www.w3.org/1999/xhtml\"><table class=\"hl7__eu__lab__report\"><tr><th>Test</th><th>04-Apr-2025</th><th>Reference&#xA0;Range</th><th>Unit</th></tr><tr><td>Calcium [Mass/volume] in Blood</td><td>8.7</td><td>8.5 - 10.4</td><td></td><td>mg/dL</td></tr></table></div>"
        },
        "status": "final",
        "subject": {
          "reference": "urn:uuid:1dcc8414-9cc2-494b-9ecb-97b52b49f36f",
          "display": "Marthe Gallet"
        },
        "effectiveDateTime": "2025-04-04T19:05:43Z",
        "specimen": {
          "reference": "urn:uuid:d4e966a9-a82c-4b52-96b3-7357ff2d1282"
        }
      }
    },
    {
      "fullUrl": "urn:uuid:f0b7b52a-ae54-4243-911c-b7c434cddb3e",
      "resource": {
        "resourceType": "Observation",
        "id": "f0b7b52a-ae54-4243-911c-b7c434cddb3e",
        "meta": {
          "profile": [
            "http://hl7.eu/fhir/laboratory/StructureDefinition/Observation-resultslab-eu-lab"
          ]
        },
        "performer": [
          {
            "display": "The Central European Lab"
          }
        ],
        "category": [
          {
            "coding": [
              {
                "system": "http://terminology.hl7.org/CodeSystem/observation-category",
                "code": "laboratory"
              }
            ]
          }
        ],
        "code": {
          "coding": [
            {
              "code": "2947-0",
              "system": "http://loinc.org",
              "display": "Sodium [Moles/volume] in Blood"
            }
          ],
          "text": "Sodium [Moles/volume] in Blood"
        },
        "valueQuantity": {
          "system": "http://unitsofmeasure.org",
          "value": 143.8,
          "unit": "mmol/L",
          "code": "mmol/L"
        },
        "referenceRange": [
          {
            "low": {
              "value": 135,
              "code": "mmol/L",
              "system": "http://unitsofmeasure.org"
            }
          },
          {
            "high": {
              "value": 145,
              "code": "mmol/L",
              "system": "http://unitsofmeasure.org"
            }
          }
        ],
        "text": {
          "status": "generated",
          "div": "<div xmlns=\"http://www.w3.org/1999/xhtml\"><table class=\"hl7__eu__lab__report\"><tr><th>Test</th><th>04-Apr-2025</th><th>Reference&#xA0;Range</th><th>Unit</th></tr><tr><td>Sodium [Moles/volume] in Blood</td><td>143.8</td><td>135 - 145</td><td></td><td>mmol/L</td></tr></table></div>"
        },
        "status": "final",
        "subject": {
          "reference": "urn:uuid:1dcc8414-9cc2-494b-9ecb-97b52b49f36f",
          "display": "Marthe Gallet"
        },
        "effectiveDateTime": "2025-04-04T19:05:43Z",
        "specimen": {
          "reference": "urn:uuid:d4e966a9-a82c-4b52-96b3-7357ff2d1282"
        }
      }
    },
    {
      "fullUrl": "urn:uuid:64fb99c0-5cd6-4777-9e22-646f8fd662c3",
      "resource": {
        "resourceType": "Observation",
        "id": "64fb99c0-5cd6-4777-9e22-646f8fd662c3",
        "meta": {
          "profile": [
            "http://hl7.eu/fhir/laboratory/StructureDefinition/Observation-resultslab-eu-lab"
          ]
        },
        "performer": [
          {
            "display": "The Central European Lab"
          }
        ],
        "category": [
          {
            "coding": [
              {
                "system": "http://terminology.hl7.org/CodeSystem/observation-category",
                "code": "laboratory"
              }
            ]
          }
        ],
        "code": {
          "coding": [
            {
              "code": "6298-4",
              "system": "http://loinc.org",
              "display": "Potassium [Moles/volume] in Blood"
            }
          ],
          "text": "Potassium [Moles/volume] in Blood"
        },
        "valueQuantity": {
          "system": "http://unitsofmeasure.org",
          "value": 4.6,
          "unit": "mmol/L",
          "code": "mmol/L"
        },
        "referenceRange": [
          {
            "low": {
              "value": 3.5,
              "code": "mmol/L",
              "system": "http://unitsofmeasure.org"
            }
          },
          {
            "high": {
              "value": 5.1,
              "code": "mmol/L",
              "system": "http://unitsofmeasure.org"
            }
          }
        ],
        "text": {
          "status": "generated",
          "div": "<div xmlns=\"http://www.w3.org/1999/xhtml\"><table class=\"hl7__eu__lab__report\"><tr><th>Test</th><th>04-Apr-2025</th><th>Reference&#xA0;Range</th><th>Unit</th></tr><tr><td>Potassium [Moles/volume] in Blood</td><td>4.6</td><td>3.5 - 5.1</td><td></td><td>mmol/L</td></tr></table></div>"
        },
        "status": "final",
        "subject": {
          "reference": "urn:uuid:1dcc8414-9cc2-494b-9ecb-97b52b49f36f",
          "display": "Marthe Gallet"
        },
        "effectiveDateTime": "2025-04-04T19:05:43Z",
        "specimen": {
          "reference": "urn:uuid:d4e966a9-a82c-4b52-96b3-7357ff2d1282"
        }
      }
    },
    {
      "fullUrl": "urn:uuid:6113639c-4bc7-44c2-95a5-45a2910d44d1",
      "resource": {
        "resourceType": "Observation",
        "id": "6113639c-4bc7-44c2-95a5-45a2910d44d1",
        "meta": {
          "profile": [
            "http://hl7.eu/fhir/laboratory/StructureDefinition/Observation-resultslab-eu-lab"
          ]
        },
        "performer": [
          {
            "display": "The Central European Lab"
          }
        ],
        "category": [
          {
            "coding": [
              {
                "system": "http://terminology.hl7.org/CodeSystem/observation-category",
                "code": "laboratory"
              }
            ]
          }
        ],
        "code": {
          "coding": [
            {
              "code": "2069-3",
              "system": "http://loinc.org",
              "display": "Chloride [Moles/volume] in Blood"
            }
          ],
          "text": "Chloride [Moles/volume] in Blood"
        },
        "valueQuantity": {
          "system": "http://unitsofmeasure.org",
          "value": 106.1,
          "unit": "mmol/L",
          "code": "mmol/L"
        },
        "referenceRange": [
          {
            "low": {
              "value": 98,
              "code": "mmol/L",
              "system": "http://unitsofmeasure.org"
            }
          },
          {
            "high": {
              "value": 110,
              "code": "mmol/L",
              "system": "http://unitsofmeasure.org"
            }
          }
        ],
        "text": {
          "status": "generated",
          "div": "<div xmlns=\"http://www.w3.org/1999/xhtml\"><table class=\"hl7__eu__lab__report\"><tr><th>Test</th><th>04-Apr-2025</th><th>Reference&#xA0;Range</th><th>Unit</th></tr><tr><td>Chloride [Moles/volume] in Blood</td><td>106.1</td><td>98 - 110</td><td></td><td>mmol/L</td></tr></table></div>"
        },
        "status": "final",
        "subject": {
          "reference": "urn:uuid:1dcc8414-9cc2-494b-9ecb-97b52b49f36f",
          "display": "Marthe Gallet"
        },
        "effectiveDateTime": "2025-04-04T19:05:43Z",
        "specimen": {
          "reference": "urn:uuid:d4e966a9-a82c-4b52-96b3-7357ff2d1282"
        }
      }
    },
    {
      "fullUrl": "urn:uuid:7f96ea8b-b9ae-42be-9c94-1891144d3228",
      "resource": {
        "resourceType": "Observation",
        "id": "7f96ea8b-b9ae-42be-9c94-1891144d3228",
        "meta": {
          "profile": [
            "http://hl7.eu/fhir/laboratory/StructureDefinition/Observation-resultslab-eu-lab"
          ]
        },
        "performer": [
          {
            "display": "The Central European Lab"
          }
        ],
        "category": [
          {
            "coding": [
              {
                "system": "http://terminology.hl7.org/CodeSystem/observation-category",
                "code": "laboratory"
              }
            ]
          }
        ],
        "code": {
          "coding": [
            {
              "code": "20565-8",
              "system": "http://loinc.org",
              "display": "Carbon dioxide, total [Moles/volume] in Blood"
            }
          ],
          "text": "Carbon dioxide, total [Moles/volume] in Blood"
        },
        "valueQuantity": {
          "system": "http://unitsofmeasure.org",
          "value": 28.6,
          "unit": "mmol/L",
          "code": "mmol/L"
        },
        "referenceRange": [
          {
            "low": {
              "value": 22,
              "code": "mmol/L",
              "system": "http://unitsofmeasure.org"
            }
          },
          {
            "high": {
              "value": 29,
              "code": "mmol/L",
              "system": "http://unitsofmeasure.org"
            }
          }
        ],
        "text": {
          "status": "generated",
          "div": "<div xmlns=\"http://www.w3.org/1999/xhtml\"><table class=\"hl7__eu__lab__report\"><tr><th>Test</th><th>04-Apr-2025</th><th>Reference&#xA0;Range</th><th>Unit</th></tr><tr><td>Carbon dioxide, total [Moles/volume] in Blood</td><td>28.6</td><td>22 - 29</td><td></td><td>mmol/L</td></tr></table></div>"
        },
        "status": "final",
        "subject": {
          "reference": "urn:uuid:1dcc8414-9cc2-494b-9ecb-97b52b49f36f",
          "display": "Marthe Gallet"
        },
        "effectiveDateTime": "2025-04-04T19:05:43Z",
        "specimen": {
          "reference": "urn:uuid:d4e966a9-a82c-4b52-96b3-7357ff2d1282"
        }
      }
    },
    {
      "fullUrl": "urn:uuid:3cb3a258-b0f6-4e5f-a386-a73d77184d4f",
      "resource": {
        "resourceType": "Observation",
        "id": "3cb3a258-b0f6-4e5f-a386-a73d77184d4f",
        "meta": {
          "profile": [
            "http://hl7.eu/fhir/laboratory/StructureDefinition/Observation-resultslab-eu-lab"
          ]
        },
        "performer": [
          {
            "display": "The Central European Lab"
          }
        ],
        "category": [
          {
            "coding": [
              {
                "system": "http://terminology.hl7.org/CodeSystem/observation-category",
                "code": "laboratory"
              }
            ]
          }
        ],
        "code": {
          "coding": [
            {
              "code": "2885-2",
              "system": "http://loinc.org",
              "display": "Protein [Mass/volume] in Serum or Plasma"
            }
          ],
          "text": "Protein [Mass/volume] in Serum or Plasma"
        },
        "valueQuantity": {
          "system": "http://unitsofmeasure.org",
          "value": 7.2,
          "unit": "g/dL",
          "code": "g/dL"
        },
        "referenceRange": [
          {
            "low": {
              "value": 6,
              "code": "g/dL",
              "system": "http://unitsofmeasure.org"
            }
          },
          {
            "high": {
              "value": 8.3,
              "code": "g/dL",
              "system": "http://unitsofmeasure.org"
            }
          }
        ],
        "text": {
          "status": "generated",
          "div": "<div xmlns=\"http://www.w3.org/1999/xhtml\"><table class=\"hl7__eu__lab__report\"><tr><th>Test</th><th>04-Apr-2025</th><th>Reference&#xA0;Range</th><th>Unit</th></tr><tr><td>Protein [Mass/volume] in Serum or Plasma</td><td>7.2</td><td>6 - 8.3</td><td></td><td>g/dL</td></tr></table></div>"
        },
        "status": "final",
        "subject": {
          "reference": "urn:uuid:1dcc8414-9cc2-494b-9ecb-97b52b49f36f",
          "display": "Marthe Gallet"
        },
        "effectiveDateTime": "2025-04-04T19:05:43Z",
        "specimen": {
          "reference": "urn:uuid:d00917eb-12e9-405b-a71f-f7de6693d4f0"
        }
      }
    },
    {
      "fullUrl": "urn:uuid:c28eb8c1-9a99-4343-a771-a015aaa2b167",
      "resource": {
        "resourceType": "Observation",
        "id": "c28eb8c1-9a99-4343-a771-a015aaa2b167",
        "meta": {
          "profile": [
            "http://hl7.eu/fhir/laboratory/StructureDefinition/Observation-resultslab-eu-lab"
          ]
        },
        "performer": [
          {
            "display": "The Central European Lab"
          }
        ],
        "category": [
          {
            "coding": [
              {
                "system": "http://terminology.hl7.org/CodeSystem/observation-category",
                "code": "laboratory"
              }
            ]
          }
        ],
        "code": {
          "coding": [
            {
              "code": "1751-7",
              "system": "http://loinc.org",
              "display": "Albumin [Mass/volume] in Serum or Plasma"
            }
          ],
          "text": "Albumin [Mass/volume] in Serum or Plasma"
        },
        "valueQuantity": {
          "system": "http://unitsofmeasure.org",
          "value": 4,
          "unit": "g/dL",
          "code": "g/dL"
        },
        "referenceRange": [
          {
            "low": {
              "value": 3.5,
              "code": "g/dL",
              "system": "http://unitsofmeasure.org"
            }
          },
          {
            "high": {
              "value": 5.5,
              "code": "g/dL",
              "system": "http://unitsofmeasure.org"
            }
          }
        ],
        "text": {
          "status": "generated",
          "div": "<div xmlns=\"http://www.w3.org/1999/xhtml\"><table class=\"hl7__eu__lab__report\"><tr><th>Test</th><th>04-Apr-2025</th><th>Reference&#xA0;Range</th><th>Unit</th></tr><tr><td>Albumin [Mass/volume] in Serum or Plasma</td><td>4.0</td><td>3.5 - 5.5</td><td></td><td>g/dL</td></tr></table></div>"
        },
        "status": "final",
        "subject": {
          "reference": "urn:uuid:1dcc8414-9cc2-494b-9ecb-97b52b49f36f",
          "display": "Marthe Gallet"
        },
        "effectiveDateTime": "2025-04-04T19:05:43Z",
        "specimen": {
          "reference": "urn:uuid:d00917eb-12e9-405b-a71f-f7de6693d4f0"
        }
      }
    },
    {
      "fullUrl": "urn:uuid:f5c42b8f-fc72-43ac-afc1-d1504b84527c",
      "resource": {
        "resourceType": "Observation",
        "id": "f5c42b8f-fc72-43ac-afc1-d1504b84527c",
        "meta": {
          "profile": [
            "http://hl7.eu/fhir/laboratory/StructureDefinition/Observation-resultslab-eu-lab"
          ]
        },
        "performer": [
          {
            "display": "The Central European Lab"
          }
        ],
        "category": [
          {
            "coding": [
              {
                "system": "http://terminology.hl7.org/CodeSystem/observation-category",
                "code": "laboratory"
              }
            ]
          }
        ],
        "code": {
          "coding": [
            {
              "code": "10834-0",
              "system": "http://loinc.org",
              "display": "Globulin [Mass/volume] in Serum by calculation"
            }
          ],
          "text": "Globulin [Mass/volume] in Serum by calculation"
        },
        "valueQuantity": {
          "system": "http://unitsofmeasure.org",
          "value": 3.2,
          "unit": "g/L",
          "code": "g/L"
        },
        "referenceRange": [
          {
            "low": {
              "value": 2,
              "code": "g/L",
              "system": "http://unitsofmeasure.org"
            }
          },
          {
            "high": {
              "value": 3.5,
              "code": "g/L",
              "system": "http://unitsofmeasure.org"
            }
          }
        ],
        "text": {
          "status": "generated",
          "div": "<div xmlns=\"http://www.w3.org/1999/xhtml\"><table class=\"hl7__eu__lab__report\"><tr><th>Test</th><th>04-Apr-2025</th><th>Reference&#xA0;Range</th><th>Unit</th></tr><tr><td>Globulin [Mass/volume] in Serum by calculation</td><td>3.2</td><td>2 - 3.5</td><td></td><td>g/L</td></tr></table></div>"
        },
        "status": "final",
        "subject": {
          "reference": "urn:uuid:1dcc8414-9cc2-494b-9ecb-97b52b49f36f",
          "display": "Marthe Gallet"
        },
        "effectiveDateTime": "2025-04-04T19:05:43Z",
        "specimen": {
          "reference": "urn:uuid:479275fa-a250-4078-b703-4ef8cfc05980"
        }
      }
    },
    {
      "fullUrl": "urn:uuid:535183dd-0875-4173-ad64-0d186c5a31a7",
      "resource": {
        "resourceType": "Observation",
        "id": "535183dd-0875-4173-ad64-0d186c5a31a7",
        "meta": {
          "profile": [
            "http://hl7.eu/fhir/laboratory/StructureDefinition/Observation-resultslab-eu-lab"
          ]
        },
        "performer": [
          {
            "display": "The Central European Lab"
          }
        ],
        "category": [
          {
            "coding": [
              {
                "system": "http://terminology.hl7.org/CodeSystem/observation-category",
                "code": "laboratory"
              }
            ]
          }
        ],
        "code": {
          "coding": [
            {
              "code": "1975-2",
              "system": "http://loinc.org",
              "display": "Bilirubin.total [Mass/volume] in Serum or Plasma"
            }
          ],
          "text": "Bilirubin.total [Mass/volume] in Serum or Plasma"
        },
        "valueQuantity": {
          "system": "http://unitsofmeasure.org",
          "value": 0.3,
          "unit": "mg/dL",
          "code": "mg/dL"
        },
        "referenceRange": [
          {
            "low": {
              "value": 0.3,
              "code": "mg/dL",
              "system": "http://unitsofmeasure.org"
            }
          },
          {
            "high": {
              "value": 1.2,
              "code": "mg/dL",
              "system": "http://unitsofmeasure.org"
            }
          }
        ],
        "text": {
          "status": "generated",
          "div": "<div xmlns=\"http://www.w3.org/1999/xhtml\"><table class=\"hl7__eu__lab__report\"><tr><th>Test</th><th>04-Apr-2025</th><th>Reference&#xA0;Range</th><th>Unit</th></tr><tr><td>Bilirubin.total [Mass/volume] in Serum or Plasma</td><td>0.3</td><td>0.3 - 1.2</td><td></td><td>mg/dL</td></tr></table></div>"
        },
        "status": "final",
        "subject": {
          "reference": "urn:uuid:1dcc8414-9cc2-494b-9ecb-97b52b49f36f",
          "display": "Marthe Gallet"
        },
        "effectiveDateTime": "2025-04-04T19:05:43Z",
        "specimen": {
          "reference": "urn:uuid:d00917eb-12e9-405b-a71f-f7de6693d4f0"
        }
      }
    },
    {
      "fullUrl": "urn:uuid:e32d9dd1-036c-4389-8f72-b0c3e2aa862f",
      "resource": {
        "resourceType": "Observation",
        "id": "e32d9dd1-036c-4389-8f72-b0c3e2aa862f",
        "meta": {
          "profile": [
            "http://hl7.eu/fhir/laboratory/StructureDefinition/Observation-resultslab-eu-lab"
          ]
        },
        "performer": [
          {
            "display": "The Central European Lab"
          }
        ],
        "category": [
          {
            "coding": [
              {
                "system": "http://terminology.hl7.org/CodeSystem/observation-category",
                "code": "laboratory"
              }
            ]
          }
        ],
        "code": {
          "coding": [
            {
              "code": "6768-6",
              "system": "http://loinc.org",
              "display": "Alkaline phosphatase [Enzymatic activity/volume] in Serum or Plasma"
            }
          ],
          "text": "Alkaline phosphatase [Enzymatic activity/volume] in Serum or Plasma"
        },
        "valueQuantity": {
          "system": "http://unitsofmeasure.org",
          "value": 22.8,
          "unit": "U/L",
          "code": "U/L"
        },
        "referenceRange": [
          {
            "low": {
              "value": 44,
              "code": "U/L",
              "system": "http://unitsofmeasure.org"
            }
          },
          {
            "high": {
              "value": 130,
              "code": "U/L",
              "system": "http://unitsofmeasure.org"
            }
          }
        ],
        "interpretation": [
          {
            "coding": [
              {
                "code": "L",
                "system": "http://terminology.hl7.org/CodeSystem/v3-ObservationInterpretation",
                "display": "Low"
              }
            ]
          }
        ],
        "text": {
          "status": "generated",
          "div": "<div xmlns=\"http://www.w3.org/1999/xhtml\"><table class=\"hl7__eu__lab__report\"><tr><th>Test</th><th>04-Apr-2025</th><th>Reference&#xA0;Range</th><th>Unit</th></tr><tr><td>Alkaline phosphatase [Enzymatic activity/volume] in Serum or Plasma</td><td>22.8</td><td>44 - 130</td><td>L</td><td>U/L</td></tr></table></div>"
        },
        "status": "final",
        "subject": {
          "reference": "urn:uuid:1dcc8414-9cc2-494b-9ecb-97b52b49f36f",
          "display": "Marthe Gallet"
        },
        "effectiveDateTime": "2025-04-04T19:05:43Z",
        "specimen": {
          "reference": "urn:uuid:d00917eb-12e9-405b-a71f-f7de6693d4f0"
        }
      }
    },
    {
      "fullUrl": "urn:uuid:344090d2-834c-480b-9413-dbc20b072ef9",
      "resource": {
        "resourceType": "Observation",
        "id": "344090d2-834c-480b-9413-dbc20b072ef9",
        "meta": {
          "profile": [
            "http://hl7.eu/fhir/laboratory/StructureDefinition/Observation-resultslab-eu-lab"
          ]
        },
        "performer": [
          {
            "display": "The Central European Lab"
          }
        ],
        "category": [
          {
            "coding": [
              {
                "system": "http://terminology.hl7.org/CodeSystem/observation-category",
                "code": "laboratory"
              }
            ]
          }
        ],
        "code": {
          "coding": [
            {
              "code": "1742-6",
              "system": "http://loinc.org",
              "display": "Alanine aminotransferase [Enzymatic activity/volume] in Serum or Plasma"
            }
          ],
          "text": "Alanine aminotransferase [Enzymatic activity/volume] in Serum or Plasma"
        },
        "valueQuantity": {
          "system": "http://unitsofmeasure.org",
          "value": 35.7,
          "unit": "U/L",
          "code": "U/L"
        },
        "referenceRange": [
          {
            "low": {
              "value": 7,
              "code": "U/L",
              "system": "http://unitsofmeasure.org"
            }
          },
          {
            "high": {
              "value": 33,
              "code": "U/L",
              "system": "http://unitsofmeasure.org"
            }
          }
        ],
        "interpretation": [
          {
            "coding": [
              {
                "code": "H",
                "system": "http://terminology.hl7.org/CodeSystem/v3-ObservationInterpretation",
                "display": "High"
              }
            ]
          }
        ],
        "text": {
          "status": "generated",
          "div": "<div xmlns=\"http://www.w3.org/1999/xhtml\"><table class=\"hl7__eu__lab__report\"><tr><th>Test</th><th>04-Apr-2025</th><th>Reference&#xA0;Range</th><th>Unit</th></tr><tr><td>Alanine aminotransferase [Enzymatic activity/volume] in Serum or Plasma</td><td>35.7</td><td>7 - 33</td><td>H</td><td>U/L</td></tr></table></div>"
        },
        "status": "final",
        "subject": {
          "reference": "urn:uuid:1dcc8414-9cc2-494b-9ecb-97b52b49f36f",
          "display": "Marthe Gallet"
        },
        "effectiveDateTime": "2025-04-04T19:05:43Z",
        "specimen": {
          "reference": "urn:uuid:d00917eb-12e9-405b-a71f-f7de6693d4f0"
        }
      }
    },
    {
      "fullUrl": "urn:uuid:cb6fbbea-8db4-4795-b9d6-1f6e0f45daee",
      "resource": {
        "resourceType": "Observation",
        "id": "cb6fbbea-8db4-4795-b9d6-1f6e0f45daee",
        "meta": {
          "profile": [
            "http://hl7.eu/fhir/laboratory/StructureDefinition/Observation-resultslab-eu-lab"
          ]
        },
        "performer": [
          {
            "display": "The Central European Lab"
          }
        ],
        "category": [
          {
            "coding": [
              {
                "system": "http://terminology.hl7.org/CodeSystem/observation-category",
                "code": "laboratory"
              }
            ]
          }
        ],
        "code": {
          "coding": [
            {
              "code": "1920-8",
              "system": "http://loinc.org",
              "display": "Aspartate aminotransferase [Enzymatic activity/volume] in Serum or Plasma"
            }
          ],
          "text": "Aspartate aminotransferase [Enzymatic activity/volume] in Serum or Plasma"
        },
        "valueQuantity": {
          "system": "http://unitsofmeasure.org",
          "value": 36.2,
          "unit": "U/L",
          "code": "U/L"
        },
        "referenceRange": [
          {
            "low": {
              "value": 10,
              "code": "U/L",
              "system": "http://unitsofmeasure.org"
            }
          },
          {
            "high": {
              "value": 40,
              "code": "U/L",
              "system": "http://unitsofmeasure.org"
            }
          }
        ],
        "text": {
          "status": "generated",
          "div": "<div xmlns=\"http://www.w3.org/1999/xhtml\"><table class=\"hl7__eu__lab__report\"><tr><th>Test</th><th>04-Apr-2025</th><th>Reference&#xA0;Range</th><th>Unit</th></tr><tr><td>Aspartate aminotransferase [Enzymatic activity/volume] in Serum or Plasma</td><td>36.2</td><td>10 - 40</td><td></td><td>U/L</td></tr></table></div>"
        },
        "status": "final",
        "subject": {
          "reference": "urn:uuid:1dcc8414-9cc2-494b-9ecb-97b52b49f36f",
          "display": "Marthe Gallet"
        },
        "effectiveDateTime": "2025-04-04T19:05:43Z",
        "specimen": {
          "reference": "urn:uuid:d00917eb-12e9-405b-a71f-f7de6693d4f0"
        }
      }
    },
    {
      "fullUrl": "urn:uuid:a4ba2d22-33fd-4f52-9839-c42a6ec7719d",
      "resource": {
        "resourceType": "Observation",
        "id": "a4ba2d22-33fd-4f52-9839-c42a6ec7719d",
        "meta": {
          "profile": [
            "http://hl7.eu/fhir/laboratory/StructureDefinition/Observation-resultslab-eu-lab"
          ]
        },
        "performer": [
          {
            "display": "The Central European Lab"
          }
        ],
        "category": [
          {
            "coding": [
              {
                "system": "http://terminology.hl7.org/CodeSystem/observation-category",
                "code": "laboratory"
              }
            ]
          }
        ],
        "code": {
          "coding": [
            {
              "code": "2093-3",
              "system": "http://loinc.org",
              "display": "Cholesterol [Mass/volume] in Serum or Plasma"
            }
          ],
          "text": "Cholesterol [Mass/volume] in Serum or Plasma"
        },
        "valueQuantity": {
          "system": "http://unitsofmeasure.org",
          "value": 191.2,
          "unit": "mg/dL",
          "code": "mg/dL"
        },
        "referenceRange": [
          {
            "low": {
              "value": 125,
              "code": "mg/dL",
              "system": "http://unitsofmeasure.org"
            }
          },
          {
            "high": {
              "value": 200,
              "code": "mg/dL",
              "system": "http://unitsofmeasure.org"
            }
          }
        ],
        "text": {
          "status": "generated",
          "div": "<div xmlns=\"http://www.w3.org/1999/xhtml\"><table class=\"hl7__eu__lab__report\"><tr><th>Test</th><th>04-Apr-2025</th><th>Reference&#xA0;Range</th><th>Unit</th></tr><tr><td>Cholesterol [Mass/volume] in Serum or Plasma</td><td>191.2</td><td>125 - 200</td><td></td><td>mg/dL</td></tr></table></div>"
        },
        "status": "final",
        "subject": {
          "reference": "urn:uuid:1dcc8414-9cc2-494b-9ecb-97b52b49f36f",
          "display": "Marthe Gallet"
        },
        "effectiveDateTime": "2025-04-04T19:05:43Z",
        "specimen": {
          "reference": "urn:uuid:d00917eb-12e9-405b-a71f-f7de6693d4f0"
        }
      }
    },
    {
      "fullUrl": "urn:uuid:4ed4a730-d521-4da5-b3be-78089e248691",
      "resource": {
        "resourceType": "Observation",
        "id": "4ed4a730-d521-4da5-b3be-78089e248691",
        "meta": {
          "profile": [
            "http://hl7.eu/fhir/laboratory/StructureDefinition/Observation-resultslab-eu-lab"
          ]
        },
        "performer": [
          {
            "display": "The Central European Lab"
          }
        ],
        "category": [
          {
            "coding": [
              {
                "system": "http://terminology.hl7.org/CodeSystem/observation-category",
                "code": "laboratory"
              }
            ]
          }
        ],
        "code": {
          "coding": [
            {
              "code": "2571-8",
              "system": "http://loinc.org",
              "display": "Triglyceride [Mass/volume] in Serum or Plasma"
            }
          ],
          "text": "Triglyceride [Mass/volume] in Serum or Plasma"
        },
        "valueQuantity": {
          "system": "http://unitsofmeasure.org",
          "value": 125.1,
          "unit": "mg/dL",
          "code": "mg/dL"
        },
        "referenceRange": [
          {
            "low": {
              "value": 10,
              "code": "mg/dL",
              "system": "http://unitsofmeasure.org"
            }
          },
          {
            "high": {
              "value": 175,
              "code": "mg/dL",
              "system": "http://unitsofmeasure.org"
            }
          }
        ],
        "text": {
          "status": "generated",
          "div": "<div xmlns=\"http://www.w3.org/1999/xhtml\"><table class=\"hl7__eu__lab__report\"><tr><th>Test</th><th>04-Apr-2025</th><th>Reference&#xA0;Range</th><th>Unit</th></tr><tr><td>Triglyceride [Mass/volume] in Serum or Plasma</td><td>125.1</td><td>10 - 175</td><td></td><td>mg/dL</td></tr></table></div>"
        },
        "status": "final",
        "subject": {
          "reference": "urn:uuid:1dcc8414-9cc2-494b-9ecb-97b52b49f36f",
          "display": "Marthe Gallet"
        },
        "effectiveDateTime": "2025-04-04T19:05:43Z",
        "specimen": {
          "reference": "urn:uuid:d00917eb-12e9-405b-a71f-f7de6693d4f0"
        }
      }
    },
    {
      "fullUrl": "urn:uuid:d939f34f-da63-4255-9c1d-fa802b47781d",
      "resource": {
        "resourceType": "Observation",
        "id": "d939f34f-da63-4255-9c1d-fa802b47781d",
        "meta": {
          "profile": [
            "http://hl7.eu/fhir/laboratory/StructureDefinition/Observation-resultslab-eu-lab"
          ]
        },
        "performer": [
          {
            "display": "The Central European Lab"
          }
        ],
        "category": [
          {
            "coding": [
              {
                "system": "http://terminology.hl7.org/CodeSystem/observation-category",
                "code": "laboratory"
              }
            ]
          }
        ],
        "code": {
          "coding": [
            {
              "code": "18262-6",
              "system": "http://loinc.org",
              "display": "Cholesterol in LDL [Mass/volume] in Serum or Plasma by Direct assay"
            }
          ],
          "text": "Cholesterol in LDL [Mass/volume] in Serum or Plasma by Direct assay"
        },
        "valueQuantity": {
          "system": "http://unitsofmeasure.org",
          "value": 125.6,
          "unit": "mg/dL",
          "code": "mg/dL"
        },
        "referenceRange": [
          {
            "low": {
              "value": 0,
              "code": "mg/dL",
              "system": "http://unitsofmeasure.org"
            }
          },
          {
            "high": {
              "value": 130,
              "code": "mg/dL",
              "system": "http://unitsofmeasure.org"
            }
          }
        ],
        "text": {
          "status": "generated",
          "div": "<div xmlns=\"http://www.w3.org/1999/xhtml\"><table class=\"hl7__eu__lab__report\"><tr><th>Test</th><th>04-Apr-2025</th><th>Reference&#xA0;Range</th><th>Unit</th></tr><tr><td>Cholesterol in LDL [Mass/volume] in Serum or Plasma by Direct assay</td><td>125.6</td><td>0 - 130</td><td></td><td>mg/dL</td></tr></table></div>"
        },
        "status": "final",
        "subject": {
          "reference": "urn:uuid:1dcc8414-9cc2-494b-9ecb-97b52b49f36f",
          "display": "Marthe Gallet"
        },
        "effectiveDateTime": "2025-04-04T19:05:43Z",
        "specimen": {
          "reference": "urn:uuid:d00917eb-12e9-405b-a71f-f7de6693d4f0"
        }
      }
    },
    {
      "fullUrl": "urn:uuid:8c18d85d-5c6a-418e-8b4f-a0e51483fd06",
      "resource": {
        "resourceType": "Observation",
        "id": "8c18d85d-5c6a-418e-8b4f-a0e51483fd06",
        "meta": {
          "profile": [
            "http://hl7.eu/fhir/laboratory/StructureDefinition/Observation-resultslab-eu-lab"
          ]
        },
        "performer": [
          {
            "display": "The Central European Lab"
          }
        ],
        "category": [
          {
            "coding": [
              {
                "system": "http://terminology.hl7.org/CodeSystem/observation-category",
                "code": "laboratory"
              }
            ]
          }
        ],
        "code": {
          "coding": [
            {
              "code": "2085-9",
              "system": "http://loinc.org",
              "display": "Cholesterol in HDL [Mass/volume] in Serum or Plasma"
            }
          ],
          "text": "Cholesterol in HDL [Mass/volume] in Serum or Plasma"
        },
        "valueQuantity": {
          "system": "http://unitsofmeasure.org",
          "value": 42.5,
          "unit": "mg/dL",
          "code": "mg/dL"
        },
        "referenceRange": [
          {
            "low": {
              "value": 40,
              "code": "mg/dL",
              "system": "http://unitsofmeasure.org"
            }
          },
          {
            "high": {
              "value": 100,
              "code": "mg/dL",
              "system": "http://unitsofmeasure.org"
            }
          }
        ],
        "text": {
          "status": "generated",
          "div": "<div xmlns=\"http://www.w3.org/1999/xhtml\"><table class=\"hl7__eu__lab__report\"><tr><th>Test</th><th>04-Apr-2025</th><th>Reference&#xA0;Range</th><th>Unit</th></tr><tr><td>Cholesterol in HDL [Mass/volume] in Serum or Plasma</td><td>42.5</td><td>40 - 100</td><td></td><td>mg/dL</td></tr></table></div>"
        },
        "status": "final",
        "subject": {
          "reference": "urn:uuid:1dcc8414-9cc2-494b-9ecb-97b52b49f36f",
          "display": "Marthe Gallet"
        },
        "effectiveDateTime": "2025-04-04T19:05:43Z",
        "specimen": {
          "reference": "urn:uuid:d00917eb-12e9-405b-a71f-f7de6693d4f0"
        }
      }
    },
    {
      "fullUrl": "urn:uuid:35804d99-21fb-4ebb-84bb-77772f24dbac",
      "resource": {
        "resourceType": "Device",
        "id": "35804d99-21fb-4ebb-84bb-77772f24dbac",
        "deviceName": [
          {
            "name": "SYNDERAI Synthetic Generator",
            "type": "manufacturer-name"
          }
        ],
        "version": [
          {
            "value": "5.0"
          }
        ],
        "text": {
          "status": "generated",
          "div": "<div xmlns=\"http://www.w3.org/1999/xhtml\">SYNDERAI Synthetic Generator v5.0</div>"
        },
        "status": "active\"",
        "distinctIdentifier": "synderai-generator-50",
        "manufacturer": "SYNDERAI Project"
      }
    },
    {
      "fullUrl": "urn:uuid:80473143-9002-4282-a895-c296df17376e",
      "resource": {
        "resourceType": "Provenance",
        "id": "80473143-9002-4282-a895-c296df17376e",
        "target": [
          {
            "reference": "Patient/1dcc8414-9cc2-494b-9ecb-97b52b49f36f"
          },
          {
            "reference": "Bundle/4d119253-eeeb-4cca-8677-07f24c7ecdce"
          },
          {
            "reference": "Composition/ec337758-36ad-4cef-959d-89280f3463eb"
          },
          {
            "reference": "PractitionerRole/23898394-8fb9-433a-bafb-798de07927fc"
          },
          {
            "reference": "Practitioner/441bba43-aaf9-4ea1-a270-1963f58eae30"
          },
          {
            "reference": "PractitionerRole/152bcb24-76d0-4cc2-a281-6467e2fb53ea"
          },
          {
            "reference": "Organization/8030e419-476b-4d6e-963e-5aeb16827f21"
          }
        ],
        "activity": {
          "text": "Synthetic Example Data Generation"
        },
        "policy": [
          "https://synderai.net/synderai-synthetic-data-policy"
        ],
        "agent": [
          {
            "type": {
              "text": "author"
            },
            "who": {
              "reference": "Device/35804d99-21fb-4ebb-84bb-77772f24dbac"
            }
          }
        ],
        "reason": [
          {
            "text": "Interoperability Testing and Training (non-clinical use)"
          }
        ],
        "text": {
          "status": "generated",
          "div": "<div xmlns=\"http://www.w3.org/1999/xhtml\">Provenance for SYNDERAI Synthetic Example Data Resource</div>"
        },
        "recorded": "2025-04-04T21:05:43Z"
      }
    },
    {
      "fullUrl": "urn:uuid:23898394-8fb9-433a-bafb-798de07927fc",
      "resource": {
        "resourceType": "PractitionerRole",
        "id": "23898394-8fb9-433a-bafb-798de07927fc",
        "meta": {
          "profile": [
            "http://hl7.eu/fhir/base/StructureDefinition/practitionerRole-eu"
          ]
        },
        "text": {
          "status": "generated",
          "div": "<div xmlns=\"http://www.w3.org/1999/xhtml\">Laboratory Role Id: 23898394-8fb9-433a-bafb-798de07927fc</div>"
        },
        "practitioner": {
          "reference": "urn:uuid:441bba43-aaf9-4ea1-a270-1963f58eae30"
        }
      }
    },
    {
      "fullUrl": "urn:uuid:441bba43-aaf9-4ea1-a270-1963f58eae30",
      "resource": {
        "resourceType": "Practitioner",
        "id": "441bba43-aaf9-4ea1-a270-1963f58eae30",
        "meta": {
          "profile": [
            "http://hl7.eu/fhir/base/StructureDefinition/practitioner-eu"
          ]
        },
        "identifier": [
          {
            "assigner": {
              "display": "HL7 Europe"
            },
            "system": "urn:oid:2.16.840.1.113883.2.51.999",
            "value": "e4cb0d7f-c2e1-47c5-bbd2-02da2d357a62"
          }
        ],
        "name": [
          {
            "prefix": [
              "dr"
            ],
            "given": [
              "Ex"
            ],
            "family": "Ample"
          }
        ],
        "address": [
          {
            "line": [
              "Laboratoire Central Européenne",
              "Boulevard du Jardin Botanique 32"
            ],
            "postalCode": "1000",
            "city": "Brussels",
            "country": "Belgium"
          }
        ],
        "text": {
          "status": "generated",
          "div": "<div xmlns=\"http://www.w3.org/1999/xhtml\">Laboratory: Laboratoire Central Européenne, 1000 Brussels, Belgium</div>"
        }
      }
    }
  ],
  "type": "document",
  "timestamp": "2025-04-04T21:05:43Z"
}
