{
  "resourceType": "Bundle",
  "id": "1798d876-ff8b-43f2-b277-c625fa623df2",
  "meta": {
    "profile": [
      "http://hl7.eu/fhir/laboratory/StructureDefinition/Bundle-eu-lab"
    ]
  },
  "identifier": {
    "assigner": {
      "display": "HL7 Europe"
    },
    "system": "urn:oid:2.16.840.1.113883.2.51.999",
    "value": "59727d1c-d5a2-4880-8582-e265501fde86"
  },
  "entry": [
    {
      "fullUrl": "urn:uuid:9e892be3-6b83-4b28-91f5-92e19b0c0ec3",
      "resource": {
        "resourceType": "Composition",
        "id": "9e892be3-6b83-4b28-91f5-92e19b0c0ec3",
        "meta": {
          "profile": [
            "http://hl7.eu/fhir/laboratory/StructureDefinition/Composition-eu-lab"
          ]
        },
        "identifier": {
          "assigner": {
            "display": "HL7 Europe"
          },
          "system": "urn:oid:2.16.840.1.113883.2.51.999",
          "value": "22c59281-8bff-4024-ad71-4027377b40fc"
        },
        "author": [
          {
            "reference": "urn:uuid:3ef31dd9-f157-494c-bde0-804e57297998"
          }
        ],
        "category": [
          {
            "coding": [
              {
                "code": "26436-6",
                "system": "http://loinc.org",
                "display": "Laboratory studies (set)"
              }
            ]
          }
        ],
        "type": {
          "coding": [
            {
              "code": "11502-2",
              "system": "http://loinc.org",
              "display": "Laboratory report"
            }
          ],
          "text": "Laboratory Report"
        },
        "section": [
          {
            "code": {
              "coding": [
                {
                  "code": "26436-6",
                  "system": "http://loinc.org",
                  "display": "Laboratory studies (set)"
                }
              ],
              "text": "Laboratory studies"
            },
            "section": [
              {
                "code": {
                  "coding": [
                    {
                      "code": "$18719-5",
                      "system": "http://loinc.org",
                      "display": "Chemistry studies (set)"
                    }
                  ],
                  "text": "Chemistry"
                },
                "entry": [
                  {
                    "reference": "urn:uuid:f7706f3c-2882-41c1-b3dd-484434e778b7"
                  },
                  {
                    "reference": "urn:uuid:9462c9f6-fc93-4fe2-9798-a6150b0f50b8"
                  },
                  {
                    "reference": "urn:uuid:468eeedd-55d8-4a54-bc86-1f95eb96d44e"
                  },
                  {
                    "reference": "urn:uuid:fcfe1485-b1d4-4ca9-9e45-68f76457757e"
                  },
                  {
                    "reference": "urn:uuid:6e0c457c-095b-4023-afce-0ca843d0518c"
                  },
                  {
                    "reference": "urn:uuid:87a43d72-3631-4958-80d7-f5edf27e2c88"
                  },
                  {
                    "reference": "urn:uuid:74981289-8c78-4623-94a1-d4bfdfe1e2f7"
                  },
                  {
                    "reference": "urn:uuid:b7bd06eb-66da-41ed-885b-7350b08abc6f"
                  },
                  {
                    "reference": "urn:uuid:93a7b52c-4c3d-4fa4-b9a5-9a2dc1d88bdf"
                  },
                  {
                    "reference": "urn:uuid:9a42b72a-c759-483e-ba3a-fb9389c9a681"
                  },
                  {
                    "reference": "urn:uuid:14ebb423-d489-4491-b8a6-3b73e7b4e79c"
                  },
                  {
                    "reference": "urn:uuid:f70b657d-2b49-40a9-8eda-44f942ed1cf7"
                  },
                  {
                    "reference": "urn:uuid:8a9b4bbe-ee67-4601-8783-c5792080bffb"
                  }
                ],
                "text": {
                  "status": "generated",
                  "div": "<div xmlns=\"http://www.w3.org/1999/xhtml\"><h3>Chemistry</h3><table class=\"hl7__eu__lab__report\"><thead><tr><th>Test</th><th>09-OCT-2020</th><th>Reference&#xA0;Range</th><th>Unit</th></tr></thead><tbody><tr><td>Hemoglobin A1c/Hemoglobin.total in Blood</td><td><strong>4.0 L</strong></td><td>4.6 - 6.4</td><td>%</td></tr><tr><td>Glucose [Mass/volume] in Blood</td><td>75.5</td><td>70 - 110</td><td>mg/dL</td></tr><tr><td>Urea nitrogen [Mass/volume] in Blood</td><td>17.1</td><td>7 - 43</td><td>mg/dL</td></tr><tr><td>Creatinine [Mass/volume] in Blood</td><td><strong>0.8 L</strong></td><td>0.9 - 1.3</td><td>mg/dL</td></tr><tr><td>Calcium [Mass/volume] in Blood</td><td>8.8</td><td>8.5 - 10.5</td><td>mg/dL</td></tr><tr><td>Sodium [Moles/volume] in Blood</td><td>143.7</td><td>135 - 145</td><td>mmol/L</td></tr><tr><td>Potassium [Moles/volume] in Blood</td><td>4.6</td><td>3.5 - 5.3</td><td>mmol/L</td></tr><tr><td>Chloride [Moles/volume] in Blood</td><td>101.4</td><td>98 - 108</td><td>mmol/L</td></tr><tr><td>Carbon dioxide, total [Moles/volume] in Blood</td><td>27.8</td><td>22 - 29</td><td>mmol/L</td></tr><tr><td>Cholesterol [Mass/volume] in Serum or Plasma</td><td><strong>261.4 H</strong></td><td>0 - 200</td><td>mg/dL</td></tr><tr><td>Triglyceride [Mass/volume] in Serum or Plasma</td><td>111.8</td><td>0 - 199</td><td>mg/dL</td></tr><tr><td>Cholesterol in LDL [Mass/volume] in Serum or Plasma by Direct assay</td><td><strong>208.2 H</strong></td><td>0 - 130</td><td>mg/dL</td></tr><tr><td>Cholesterol in HDL [Mass/volume] in Serum or Plasma</td><td><strong>30.8 L</strong></td><td>40 - 100</td><td>mg/dL</td></tr></tbody></table></div>"
                },
                "title": "Chemistry"
              }
            ],
            "title": "Laboratory Report"
          },
          {
            "text": {
              "status": "generated",
              "div": "<div xmlns=\"http://www.w3.org/1999/xhtml\"><h3>Annotation</h3><table class=\"hl7__eu__lab__report\"><tr><th>Conclusion and Recommendations based on this report and previous findings known to us</th></tr><tr><td>The patient shows dyslipidemia with elevated total and LDL cholesterol and low HDL cholesterol, increasing cardiovascular risk. HbA1c is below normal, possibly reflecting hypoglycemia or recent changes in glucose metabolism, though current glucose is normal. Creatinine is slightly low but not clinically significant. Other parameters are within normal limits. Recommend further cardiovascular risk assessment and review of glycemic control.</td></tr></table></div>"
            },
            "code": {
              "coding": [
                {
                  "system": "http://loinc.org",
                  "code": "48767-8",
                  "display": "Annotation comment"
                }
              ]
            },
            "title": "Annotation comment"
          }
        ],
        "status": "final",
        "subject": {
          "reference": "urn:uuid:f9df2116-625d-48da-a658-3fb14435bf09",
          "display": "Gabrielius Gaičiūnas"
        },
        "date": "2020-10-09T18:05:46Z",
        "title": "Laboratory Report",
        "confidentiality": "N"
      }
    },
    {
      "fullUrl": "urn:uuid:4af28e85-6b29-4e15-ae78-8922ef1c4ec5",
      "resource": {
        "resourceType": "DiagnosticReport",
        "id": "4af28e85-6b29-4e15-ae78-8922ef1c4ec5",
        "meta": {
          "profile": [
            "http://hl7.eu/fhir/laboratory/StructureDefinition/DiagnosticReport-eu-lab"
          ]
        },
        "identifier": [
          {
            "assigner": {
              "display": "HL7 Europe"
            },
            "system": "urn:oid:2.16.840.1.113883.2.51.999",
            "value": "7715c224-2c24-4539-a9f9-86edd79de9b8"
          }
        ],
        "extension": [
          {
            "url": "http://hl7.org/fhir/5.0/StructureDefinition/extension-DiagnosticReport.composition",
            "valueReference": {
              "reference": "urn:uuid:22c59281-8bff-4024-ad71-4027377b40fc"
            }
          }
        ],
        "category": [
          {
            "coding": [
              {
                "code": "26436-6",
                "system": "http://loinc.org",
                "display": "Laboratory studies (set)"
              }
            ]
          }
        ],
        "specimen": [
          {
            "reference": "urn:uuid:3d9871b0-4c19-4e25-a1ef-735402f70af7"
          },
          {
            "reference": "urn:uuid:32db78fe-e2b7-4818-abc2-0305674d6bc7"
          }
        ],
        "result": [
          {
            "reference": "urn:uuid:f7706f3c-2882-41c1-b3dd-484434e778b7"
          },
          {
            "reference": "urn:uuid:9462c9f6-fc93-4fe2-9798-a6150b0f50b8"
          },
          {
            "reference": "urn:uuid:468eeedd-55d8-4a54-bc86-1f95eb96d44e"
          },
          {
            "reference": "urn:uuid:fcfe1485-b1d4-4ca9-9e45-68f76457757e"
          },
          {
            "reference": "urn:uuid:6e0c457c-095b-4023-afce-0ca843d0518c"
          },
          {
            "reference": "urn:uuid:87a43d72-3631-4958-80d7-f5edf27e2c88"
          },
          {
            "reference": "urn:uuid:74981289-8c78-4623-94a1-d4bfdfe1e2f7"
          },
          {
            "reference": "urn:uuid:b7bd06eb-66da-41ed-885b-7350b08abc6f"
          },
          {
            "reference": "urn:uuid:93a7b52c-4c3d-4fa4-b9a5-9a2dc1d88bdf"
          },
          {
            "reference": "urn:uuid:9a42b72a-c759-483e-ba3a-fb9389c9a681"
          },
          {
            "reference": "urn:uuid:14ebb423-d489-4491-b8a6-3b73e7b4e79c"
          },
          {
            "reference": "urn:uuid:f70b657d-2b49-40a9-8eda-44f942ed1cf7"
          },
          {
            "reference": "urn:uuid:8a9b4bbe-ee67-4601-8783-c5792080bffb"
          }
        ],
        "status": "registered",
        "code": {
          "coding": [
            {
              "code": "11502-2",
              "system": "http://loinc.org",
              "display": "Laboratory report"
            }
          ]
        },
        "subject": {
          "reference": "urn:uuid:f9df2116-625d-48da-a658-3fb14435bf09",
          "display": "Gabrielius Gaičiūnas"
        }
      }
    },
    {
      "fullUrl": "urn:uuid:f9df2116-625d-48da-a658-3fb14435bf09",
      "resource": {
        "resourceType": "Patient",
        "id": "f9df2116-625d-48da-a658-3fb14435bf09",
        "meta": {
          "security": [
            {
              "system": "http://terminology.hl7.org/CodeSystem/v3-ActReason",
              "code": "HTEST"
            },
            {
              "system": "http://terminology.hl7.org/CodeSystem/v3-ActReason",
              "code": "TRAIN"
            }
          ],
          "tag": [
            {
              "system": "https://synderai.net/fhir/CodeSystem/tags",
              "code": "synthetic",
              "display": "SYNDERAI Synthetic data"
            }
          ],
          "profile": [
            "http://hl7.eu/fhir/base/StructureDefinition/patient-eu-core"
          ]
        },
        "identifier": [
          {
            "type": {
              "coding": [
                {
                  "code": "PT",
                  "system": "http://terminology.hl7.org/CodeSystem/v2-0203"
                }
              ]
            },
            "system": "http://ec.europa.eu/identifier/eci",
            "value": "5711-320329-3"
          },
          {
            "type": {
              "coding": [
                {
                  "code": "MR",
                  "system": "http://terminology.hl7.org/CodeSystem/v2-0203"
                }
              ]
            },
            "system": "http://local.setting.eu/identifier",
            "value": "b2cdf95b-c12d-3f56-84e4-d085f70edd0c"
          }
        ],
        "name": [
          {
            "family": "Gaičiūnas"
          },
          {
            "given": [
              "Gabrielius"
            ]
          },
          {
            "text": "Gabrielius Gaičiūnas"
          }
        ],
        "address": [
          {
            "line": [
              "5951 Monika Rapid"
            ],
            "use": "home",
            "type": "physical",
            "postalCode": "97190",
            "city": "Poškaton",
            "country": "Lithuania"
          }
        ],
        "telecom": [
          {
            "system": "phone",
            "value": "+370 71605146"
          }
        ],
        "extension": [
          {
            "url": "http://hl7.org/fhir/StructureDefinition/patient-nationality",
            "valueCodeableConcept": {
              "coding": [
                {
                  "code": "LT",
                  "system": "http://hl7.org/fhir/ValueSet/country"
                }
              ]
            }
          }
        ],
        "text": {
          "status": "generated",
          "div": "<div xmlns=\"http://www.w3.org/1999/xhtml\"><table class=\"hl7__ips\"><tr><td>Gabrielius Gaičiūnas</td><td>male</td><td>19-May-1948</td></tr></table></div>"
        },
        "gender": "male",
        "birthDate": "1948-05-19"
      }
    },
    {
      "fullUrl": "urn:uuid:137077ba-1d10-4489-87c1-d1b73b0b8253",
      "resource": {
        "resourceType": "ServiceRequest",
        "id": "137077ba-1d10-4489-87c1-d1b73b0b8253",
        "meta": {
          "profile": [
            "http://hl7.eu/fhir/laboratory/StructureDefinition/ServiceRequest-eu-lab"
          ]
        },
        "identifier": [
          {
            "system": "http://example.org",
            "value": "6faedc8e-a7f7-47ab-8159-44952dd308b7"
          }
        ],
        "specimen": [
          {
            "reference": "urn:uuid:3d9871b0-4c19-4e25-a1ef-735402f70af7"
          },
          {
            "reference": "urn:uuid:32db78fe-e2b7-4818-abc2-0305674d6bc7"
          }
        ],
        "reasonCode": [
          {
            "coding": [
              {
                "code": "414545008",
                "system": "http://snomed.info/sct",
                "display": "Ischemic heart disease"
              }
            ]
          },
          {
            "coding": [
              {
                "code": "157141000119108",
                "system": "http://snomed.info/sct",
                "display": "Proteinuria due to type 2 diabetes mellitus"
              }
            ]
          },
          {
            "coding": [
              {
                "code": "401303003",
                "system": "http://snomed.info/sct",
                "display": "Acute ST segment elevation myocardial infarction"
              }
            ]
          },
          {
            "coding": [
              {
                "code": "40055000",
                "system": "http://snomed.info/sct",
                "display": "Chronic sinusitis"
              }
            ]
          },
          {
            "coding": [
              {
                "code": "90781000119102",
                "system": "http://snomed.info/sct",
                "display": "Microalbuminuria due to type 2 diabetes mellitus"
              }
            ]
          },
          {
            "coding": [
              {
                "code": "127013003",
                "system": "http://snomed.info/sct",
                "display": "Disorder of kidney due to diabetes mellitus"
              }
            ]
          },
          {
            "coding": [
              {
                "code": "59621000",
                "system": "http://snomed.info/sct",
                "display": "Essential hypertension"
              }
            ]
          },
          {
            "coding": [
              {
                "code": "15777000",
                "system": "http://snomed.info/sct",
                "display": "Prediabetes"
              }
            ]
          },
          {
            "coding": [
              {
                "code": "271737000",
                "system": "http://snomed.info/sct",
                "display": "Anemia"
              }
            ]
          }
        ],
        "status": "active",
        "intent": "order",
        "code": {
          "coding": [
            {
              "code": "108252007",
              "system": "http://snomed.info/sct",
              "display": "Laboratory procedure"
            }
          ]
        },
        "subject": {
          "reference": "urn:uuid:f9df2116-625d-48da-a658-3fb14435bf09",
          "display": "Gabrielius Gaičiūnas"
        },
        "requester": {
          "reference": "urn:uuid:b3ce038e-fd4f-49ec-9194-c8fb15cf7e4e"
        }
      }
    },
    {
      "fullUrl": "urn:uuid:b3ce038e-fd4f-49ec-9194-c8fb15cf7e4e",
      "resource": {
        "resourceType": "PractitionerRole",
        "id": "b3ce038e-fd4f-49ec-9194-c8fb15cf7e4e",
        "meta": {
          "profile": [
            "http://hl7.eu/fhir/base/StructureDefinition/practitionerRole-eu"
          ]
        },
        "text": {
          "status": "generated",
          "div": "<div xmlns=\"http://www.w3.org/1999/xhtml\">Provider Role Id: b3ce038e-fd4f-49ec-9194-c8fb15cf7e4e</div>"
        },
        "organization": {
          "reference": "urn:uuid:8ea9d976-fb4b-47ae-a6cf-4ad1b7180795"
        }
      }
    },
    {
      "fullUrl": "urn:uuid:8ea9d976-fb4b-47ae-a6cf-4ad1b7180795",
      "resource": {
        "resourceType": "Organization",
        "id": "8ea9d976-fb4b-47ae-a6cf-4ad1b7180795",
        "meta": {
          "profile": [
            "http://hl7.eu/fhir/base/StructureDefinition/organization-eu"
          ]
        },
        "identifier": [
          {
            "assigner": {
              "display": "HL7 Europe"
            },
            "system": "urn:oid:2.16.840.1.113883.2.51.999",
            "value": "34ebaf6c-3316-4412-be15-61524d3c8467"
          }
        ],
        "address": [
          {
            "line": [
              "182 Savanorių pr."
            ],
            "city": "Klaipėda",
            "postalCode": "LT-91200",
            "country": "Lithuania"
          }
        ],
        "text": {
          "status": "generated",
          "div": "<div xmlns=\"http://www.w3.org/1999/xhtml\">Provider Organization: Dr. Tomas Bakas</div>"
        },
        "name": "Dr. Tomas Bakas"
      }
    },
    {
      "fullUrl": "urn:uuid:3d9871b0-4c19-4e25-a1ef-735402f70af7",
      "resource": {
        "resourceType": "Specimen",
        "id": "3d9871b0-4c19-4e25-a1ef-735402f70af7",
        "meta": {
          "profile": [
            "http://hl7.eu/fhir/laboratory/StructureDefinition/Specimen-eu-lab"
          ]
        },
        "collection": {
          "collectedDateTime": "2020-10-09"
        },
        "text": {
          "status": "generated",
          "div": "<div xmlns=\"http://www.w3.org/1999/xhtml\"><table class=\"hl7__eu__lab__report\"><tr><th>Specimen</th><th>Collection Date</th></tr><tr><td>Whole blood specimen (specimen)</td><td><span class=\"nb\">09-Oct-2020</span></td></tr></table></div>"
        },
        "type": {
          "coding": [
            {
              "code": "258580003",
              "system": "http://snomed.info/sct",
              "display": "Whole blood specimen (specimen)"
            }
          ]
        }
      }
    },
    {
      "fullUrl": "urn:uuid:32db78fe-e2b7-4818-abc2-0305674d6bc7",
      "resource": {
        "resourceType": "Specimen",
        "id": "32db78fe-e2b7-4818-abc2-0305674d6bc7",
        "meta": {
          "profile": [
            "http://hl7.eu/fhir/laboratory/StructureDefinition/Specimen-eu-lab"
          ]
        },
        "collection": {
          "collectedDateTime": "2020-10-09"
        },
        "text": {
          "status": "generated",
          "div": "<div xmlns=\"http://www.w3.org/1999/xhtml\"><table class=\"hl7__eu__lab__report\"><tr><th>Specimen</th><th>Collection Date</th></tr><tr><td>Acellular blood (serum or plasma) specimen</td><td><span class=\"nb\">09-Oct-2020</span></td></tr></table></div>"
        },
        "type": {
          "coding": [
            {
              "code": "122592007",
              "system": "http://snomed.info/sct",
              "display": "Acellular blood (serum or plasma) specimen"
            }
          ]
        }
      }
    },
    {
      "fullUrl": "urn:uuid:f7706f3c-2882-41c1-b3dd-484434e778b7",
      "resource": {
        "resourceType": "Observation",
        "id": "f7706f3c-2882-41c1-b3dd-484434e778b7",
        "meta": {
          "profile": [
            "http://hl7.eu/fhir/laboratory/StructureDefinition/Observation-resultslab-eu-lab"
          ]
        },
        "performer": [
          {
            "display": "The Central European Lab"
          }
        ],
        "category": [
          {
            "coding": [
              {
                "system": "http://terminology.hl7.org/CodeSystem/observation-category",
                "code": "laboratory"
              }
            ]
          }
        ],
        "code": {
          "coding": [
            {
              "code": "4548-4",
              "system": "http://loinc.org",
              "display": "Hemoglobin A1c/Hemoglobin.total in Blood"
            }
          ],
          "text": "Hemoglobin A1c/Hemoglobin.total in Blood"
        },
        "valueQuantity": {
          "system": "http://unitsofmeasure.org",
          "value": 4,
          "unit": "%",
          "code": "%"
        },
        "referenceRange": [
          {
            "low": {
              "value": 4.6,
              "code": "%",
              "system": "http://unitsofmeasure.org"
            }
          },
          {
            "high": {
              "value": 6.4,
              "code": "%",
              "system": "http://unitsofmeasure.org"
            }
          }
        ],
        "interpretation": [
          {
            "coding": [
              {
                "code": "L",
                "system": "http://terminology.hl7.org/CodeSystem/v3-ObservationInterpretation",
                "display": "Low"
              }
            ]
          }
        ],
        "text": {
          "status": "generated",
          "div": "<div xmlns=\"http://www.w3.org/1999/xhtml\"><table class=\"hl7__eu__lab__report\"><tr><th>Test</th><th>09-Oct-2020</th><th>Reference&#xA0;Range</th><th>Unit</th></tr><tr><td>Hemoglobin A1c/Hemoglobin.total in Blood</td><td>4.0</td><td>4.6 - 6.4</td><td>L</td><td>%</td></tr></table></div>"
        },
        "status": "final",
        "subject": {
          "reference": "urn:uuid:f9df2116-625d-48da-a658-3fb14435bf09",
          "display": "Gabrielius Gaičiūnas"
        },
        "effectiveDateTime": "2020-10-09T16:05:46Z",
        "specimen": {
          "reference": "urn:uuid:3d9871b0-4c19-4e25-a1ef-735402f70af7"
        }
      }
    },
    {
      "fullUrl": "urn:uuid:9462c9f6-fc93-4fe2-9798-a6150b0f50b8",
      "resource": {
        "resourceType": "Observation",
        "id": "9462c9f6-fc93-4fe2-9798-a6150b0f50b8",
        "meta": {
          "profile": [
            "http://hl7.eu/fhir/laboratory/StructureDefinition/Observation-resultslab-eu-lab"
          ]
        },
        "performer": [
          {
            "display": "The Central European Lab"
          }
        ],
        "category": [
          {
            "coding": [
              {
                "system": "http://terminology.hl7.org/CodeSystem/observation-category",
                "code": "laboratory"
              }
            ]
          }
        ],
        "code": {
          "coding": [
            {
              "code": "2339-0",
              "system": "http://loinc.org",
              "display": "Glucose [Mass/volume] in Blood"
            }
          ],
          "text": "Glucose [Mass/volume] in Blood"
        },
        "valueQuantity": {
          "system": "http://unitsofmeasure.org",
          "value": 75.5,
          "unit": "mg/dL",
          "code": "mg/dL"
        },
        "referenceRange": [
          {
            "low": {
              "value": 70,
              "code": "mg/dL",
              "system": "http://unitsofmeasure.org"
            }
          },
          {
            "high": {
              "value": 110,
              "code": "mg/dL",
              "system": "http://unitsofmeasure.org"
            }
          }
        ],
        "text": {
          "status": "generated",
          "div": "<div xmlns=\"http://www.w3.org/1999/xhtml\"><table class=\"hl7__eu__lab__report\"><tr><th>Test</th><th>09-Oct-2020</th><th>Reference&#xA0;Range</th><th>Unit</th></tr><tr><td>Glucose [Mass/volume] in Blood</td><td>75.5</td><td>70 - 110</td><td></td><td>mg/dL</td></tr></table></div>"
        },
        "status": "final",
        "subject": {
          "reference": "urn:uuid:f9df2116-625d-48da-a658-3fb14435bf09",
          "display": "Gabrielius Gaičiūnas"
        },
        "effectiveDateTime": "2020-10-09T16:05:46Z",
        "specimen": {
          "reference": "urn:uuid:3d9871b0-4c19-4e25-a1ef-735402f70af7"
        }
      }
    },
    {
      "fullUrl": "urn:uuid:468eeedd-55d8-4a54-bc86-1f95eb96d44e",
      "resource": {
        "resourceType": "Observation",
        "id": "468eeedd-55d8-4a54-bc86-1f95eb96d44e",
        "meta": {
          "profile": [
            "http://hl7.eu/fhir/laboratory/StructureDefinition/Observation-resultslab-eu-lab"
          ]
        },
        "performer": [
          {
            "display": "The Central European Lab"
          }
        ],
        "category": [
          {
            "coding": [
              {
                "system": "http://terminology.hl7.org/CodeSystem/observation-category",
                "code": "laboratory"
              }
            ]
          }
        ],
        "code": {
          "coding": [
            {
              "code": "6299-2",
              "system": "http://loinc.org",
              "display": "Urea nitrogen [Mass/volume] in Blood"
            }
          ],
          "text": "Urea nitrogen [Mass/volume] in Blood"
        },
        "valueQuantity": {
          "system": "http://unitsofmeasure.org",
          "value": 17.1,
          "unit": "mg/dL",
          "code": "mg/dL"
        },
        "referenceRange": [
          {
            "low": {
              "value": 7,
              "code": "mg/dL",
              "system": "http://unitsofmeasure.org"
            }
          },
          {
            "high": {
              "value": 43,
              "code": "mg/dL",
              "system": "http://unitsofmeasure.org"
            }
          }
        ],
        "text": {
          "status": "generated",
          "div": "<div xmlns=\"http://www.w3.org/1999/xhtml\"><table class=\"hl7__eu__lab__report\"><tr><th>Test</th><th>09-Oct-2020</th><th>Reference&#xA0;Range</th><th>Unit</th></tr><tr><td>Urea nitrogen [Mass/volume] in Blood</td><td>17.1</td><td>7 - 43</td><td></td><td>mg/dL</td></tr></table></div>"
        },
        "status": "final",
        "subject": {
          "reference": "urn:uuid:f9df2116-625d-48da-a658-3fb14435bf09",
          "display": "Gabrielius Gaičiūnas"
        },
        "effectiveDateTime": "2020-10-09T16:05:46Z",
        "specimen": {
          "reference": "urn:uuid:3d9871b0-4c19-4e25-a1ef-735402f70af7"
        }
      }
    },
    {
      "fullUrl": "urn:uuid:fcfe1485-b1d4-4ca9-9e45-68f76457757e",
      "resource": {
        "resourceType": "Observation",
        "id": "fcfe1485-b1d4-4ca9-9e45-68f76457757e",
        "meta": {
          "profile": [
            "http://hl7.eu/fhir/laboratory/StructureDefinition/Observation-resultslab-eu-lab"
          ]
        },
        "performer": [
          {
            "display": "The Central European Lab"
          }
        ],
        "category": [
          {
            "coding": [
              {
                "system": "http://terminology.hl7.org/CodeSystem/observation-category",
                "code": "laboratory"
              }
            ]
          }
        ],
        "code": {
          "coding": [
            {
              "code": "38483-4",
              "system": "http://loinc.org",
              "display": "Creatinine [Mass/volume] in Blood"
            }
          ],
          "text": "Creatinine [Mass/volume] in Blood"
        },
        "valueQuantity": {
          "system": "http://unitsofmeasure.org",
          "value": 0.8,
          "unit": "mg/dL",
          "code": "mg/dL"
        },
        "referenceRange": [
          {
            "low": {
              "value": 0.9,
              "code": "mg/dL",
              "system": "http://unitsofmeasure.org"
            }
          },
          {
            "high": {
              "value": 1.3,
              "code": "mg/dL",
              "system": "http://unitsofmeasure.org"
            }
          }
        ],
        "interpretation": [
          {
            "coding": [
              {
                "code": "L",
                "system": "http://terminology.hl7.org/CodeSystem/v3-ObservationInterpretation",
                "display": "Low"
              }
            ]
          }
        ],
        "text": {
          "status": "generated",
          "div": "<div xmlns=\"http://www.w3.org/1999/xhtml\"><table class=\"hl7__eu__lab__report\"><tr><th>Test</th><th>09-Oct-2020</th><th>Reference&#xA0;Range</th><th>Unit</th></tr><tr><td>Creatinine [Mass/volume] in Blood</td><td>0.8</td><td>0.9 - 1.3</td><td>L</td><td>mg/dL</td></tr></table></div>"
        },
        "status": "final",
        "subject": {
          "reference": "urn:uuid:f9df2116-625d-48da-a658-3fb14435bf09",
          "display": "Gabrielius Gaičiūnas"
        },
        "effectiveDateTime": "2020-10-09T16:05:46Z",
        "specimen": {
          "reference": "urn:uuid:3d9871b0-4c19-4e25-a1ef-735402f70af7"
        }
      }
    },
    {
      "fullUrl": "urn:uuid:6e0c457c-095b-4023-afce-0ca843d0518c",
      "resource": {
        "resourceType": "Observation",
        "id": "6e0c457c-095b-4023-afce-0ca843d0518c",
        "meta": {
          "profile": [
            "http://hl7.eu/fhir/laboratory/StructureDefinition/Observation-resultslab-eu-lab"
          ]
        },
        "performer": [
          {
            "display": "The Central European Lab"
          }
        ],
        "category": [
          {
            "coding": [
              {
                "system": "http://terminology.hl7.org/CodeSystem/observation-category",
                "code": "laboratory"
              }
            ]
          }
        ],
        "code": {
          "coding": [
            {
              "code": "49765-1",
              "system": "http://loinc.org",
              "display": "Calcium [Mass/volume] in Blood"
            }
          ],
          "text": "Calcium [Mass/volume] in Blood"
        },
        "valueQuantity": {
          "system": "http://unitsofmeasure.org",
          "value": 8.8,
          "unit": "mg/dL",
          "code": "mg/dL"
        },
        "referenceRange": [
          {
            "low": {
              "value": 8.5,
              "code": "mg/dL",
              "system": "http://unitsofmeasure.org"
            }
          },
          {
            "high": {
              "value": 10.5,
              "code": "mg/dL",
              "system": "http://unitsofmeasure.org"
            }
          }
        ],
        "text": {
          "status": "generated",
          "div": "<div xmlns=\"http://www.w3.org/1999/xhtml\"><table class=\"hl7__eu__lab__report\"><tr><th>Test</th><th>09-Oct-2020</th><th>Reference&#xA0;Range</th><th>Unit</th></tr><tr><td>Calcium [Mass/volume] in Blood</td><td>8.8</td><td>8.5 - 10.5</td><td></td><td>mg/dL</td></tr></table></div>"
        },
        "status": "final",
        "subject": {
          "reference": "urn:uuid:f9df2116-625d-48da-a658-3fb14435bf09",
          "display": "Gabrielius Gaičiūnas"
        },
        "effectiveDateTime": "2020-10-09T16:05:46Z",
        "specimen": {
          "reference": "urn:uuid:3d9871b0-4c19-4e25-a1ef-735402f70af7"
        }
      }
    },
    {
      "fullUrl": "urn:uuid:87a43d72-3631-4958-80d7-f5edf27e2c88",
      "resource": {
        "resourceType": "Observation",
        "id": "87a43d72-3631-4958-80d7-f5edf27e2c88",
        "meta": {
          "profile": [
            "http://hl7.eu/fhir/laboratory/StructureDefinition/Observation-resultslab-eu-lab"
          ]
        },
        "performer": [
          {
            "display": "The Central European Lab"
          }
        ],
        "category": [
          {
            "coding": [
              {
                "system": "http://terminology.hl7.org/CodeSystem/observation-category",
                "code": "laboratory"
              }
            ]
          }
        ],
        "code": {
          "coding": [
            {
              "code": "2947-0",
              "system": "http://loinc.org",
              "display": "Sodium [Moles/volume] in Blood"
            }
          ],
          "text": "Sodium [Moles/volume] in Blood"
        },
        "valueQuantity": {
          "system": "http://unitsofmeasure.org",
          "value": 143.7,
          "unit": "mmol/L",
          "code": "mmol/L"
        },
        "referenceRange": [
          {
            "low": {
              "value": 135,
              "code": "mmol/L",
              "system": "http://unitsofmeasure.org"
            }
          },
          {
            "high": {
              "value": 145,
              "code": "mmol/L",
              "system": "http://unitsofmeasure.org"
            }
          }
        ],
        "text": {
          "status": "generated",
          "div": "<div xmlns=\"http://www.w3.org/1999/xhtml\"><table class=\"hl7__eu__lab__report\"><tr><th>Test</th><th>09-Oct-2020</th><th>Reference&#xA0;Range</th><th>Unit</th></tr><tr><td>Sodium [Moles/volume] in Blood</td><td>143.7</td><td>135 - 145</td><td></td><td>mmol/L</td></tr></table></div>"
        },
        "status": "final",
        "subject": {
          "reference": "urn:uuid:f9df2116-625d-48da-a658-3fb14435bf09",
          "display": "Gabrielius Gaičiūnas"
        },
        "effectiveDateTime": "2020-10-09T16:05:46Z",
        "specimen": {
          "reference": "urn:uuid:3d9871b0-4c19-4e25-a1ef-735402f70af7"
        }
      }
    },
    {
      "fullUrl": "urn:uuid:74981289-8c78-4623-94a1-d4bfdfe1e2f7",
      "resource": {
        "resourceType": "Observation",
        "id": "74981289-8c78-4623-94a1-d4bfdfe1e2f7",
        "meta": {
          "profile": [
            "http://hl7.eu/fhir/laboratory/StructureDefinition/Observation-resultslab-eu-lab"
          ]
        },
        "performer": [
          {
            "display": "The Central European Lab"
          }
        ],
        "category": [
          {
            "coding": [
              {
                "system": "http://terminology.hl7.org/CodeSystem/observation-category",
                "code": "laboratory"
              }
            ]
          }
        ],
        "code": {
          "coding": [
            {
              "code": "6298-4",
              "system": "http://loinc.org",
              "display": "Potassium [Moles/volume] in Blood"
            }
          ],
          "text": "Potassium [Moles/volume] in Blood"
        },
        "valueQuantity": {
          "system": "http://unitsofmeasure.org",
          "value": 4.6,
          "unit": "mmol/L",
          "code": "mmol/L"
        },
        "referenceRange": [
          {
            "low": {
              "value": 3.5,
              "code": "mmol/L",
              "system": "http://unitsofmeasure.org"
            }
          },
          {
            "high": {
              "value": 5.3,
              "code": "mmol/L",
              "system": "http://unitsofmeasure.org"
            }
          }
        ],
        "text": {
          "status": "generated",
          "div": "<div xmlns=\"http://www.w3.org/1999/xhtml\"><table class=\"hl7__eu__lab__report\"><tr><th>Test</th><th>09-Oct-2020</th><th>Reference&#xA0;Range</th><th>Unit</th></tr><tr><td>Potassium [Moles/volume] in Blood</td><td>4.6</td><td>3.5 - 5.3</td><td></td><td>mmol/L</td></tr></table></div>"
        },
        "status": "final",
        "subject": {
          "reference": "urn:uuid:f9df2116-625d-48da-a658-3fb14435bf09",
          "display": "Gabrielius Gaičiūnas"
        },
        "effectiveDateTime": "2020-10-09T16:05:46Z",
        "specimen": {
          "reference": "urn:uuid:3d9871b0-4c19-4e25-a1ef-735402f70af7"
        }
      }
    },
    {
      "fullUrl": "urn:uuid:b7bd06eb-66da-41ed-885b-7350b08abc6f",
      "resource": {
        "resourceType": "Observation",
        "id": "b7bd06eb-66da-41ed-885b-7350b08abc6f",
        "meta": {
          "profile": [
            "http://hl7.eu/fhir/laboratory/StructureDefinition/Observation-resultslab-eu-lab"
          ]
        },
        "performer": [
          {
            "display": "The Central European Lab"
          }
        ],
        "category": [
          {
            "coding": [
              {
                "system": "http://terminology.hl7.org/CodeSystem/observation-category",
                "code": "laboratory"
              }
            ]
          }
        ],
        "code": {
          "coding": [
            {
              "code": "2069-3",
              "system": "http://loinc.org",
              "display": "Chloride [Moles/volume] in Blood"
            }
          ],
          "text": "Chloride [Moles/volume] in Blood"
        },
        "valueQuantity": {
          "system": "http://unitsofmeasure.org",
          "value": 101.4,
          "unit": "mmol/L",
          "code": "mmol/L"
        },
        "referenceRange": [
          {
            "low": {
              "value": 98,
              "code": "mmol/L",
              "system": "http://unitsofmeasure.org"
            }
          },
          {
            "high": {
              "value": 108,
              "code": "mmol/L",
              "system": "http://unitsofmeasure.org"
            }
          }
        ],
        "text": {
          "status": "generated",
          "div": "<div xmlns=\"http://www.w3.org/1999/xhtml\"><table class=\"hl7__eu__lab__report\"><tr><th>Test</th><th>09-Oct-2020</th><th>Reference&#xA0;Range</th><th>Unit</th></tr><tr><td>Chloride [Moles/volume] in Blood</td><td>101.4</td><td>98 - 108</td><td></td><td>mmol/L</td></tr></table></div>"
        },
        "status": "final",
        "subject": {
          "reference": "urn:uuid:f9df2116-625d-48da-a658-3fb14435bf09",
          "display": "Gabrielius Gaičiūnas"
        },
        "effectiveDateTime": "2020-10-09T16:05:46Z",
        "specimen": {
          "reference": "urn:uuid:3d9871b0-4c19-4e25-a1ef-735402f70af7"
        }
      }
    },
    {
      "fullUrl": "urn:uuid:93a7b52c-4c3d-4fa4-b9a5-9a2dc1d88bdf",
      "resource": {
        "resourceType": "Observation",
        "id": "93a7b52c-4c3d-4fa4-b9a5-9a2dc1d88bdf",
        "meta": {
          "profile": [
            "http://hl7.eu/fhir/laboratory/StructureDefinition/Observation-resultslab-eu-lab"
          ]
        },
        "performer": [
          {
            "display": "The Central European Lab"
          }
        ],
        "category": [
          {
            "coding": [
              {
                "system": "http://terminology.hl7.org/CodeSystem/observation-category",
                "code": "laboratory"
              }
            ]
          }
        ],
        "code": {
          "coding": [
            {
              "code": "20565-8",
              "system": "http://loinc.org",
              "display": "Carbon dioxide, total [Moles/volume] in Blood"
            }
          ],
          "text": "Carbon dioxide, total [Moles/volume] in Blood"
        },
        "valueQuantity": {
          "system": "http://unitsofmeasure.org",
          "value": 27.8,
          "unit": "mmol/L",
          "code": "mmol/L"
        },
        "referenceRange": [
          {
            "low": {
              "value": 22,
              "code": "mmol/L",
              "system": "http://unitsofmeasure.org"
            }
          },
          {
            "high": {
              "value": 29,
              "code": "mmol/L",
              "system": "http://unitsofmeasure.org"
            }
          }
        ],
        "text": {
          "status": "generated",
          "div": "<div xmlns=\"http://www.w3.org/1999/xhtml\"><table class=\"hl7__eu__lab__report\"><tr><th>Test</th><th>09-Oct-2020</th><th>Reference&#xA0;Range</th><th>Unit</th></tr><tr><td>Carbon dioxide, total [Moles/volume] in Blood</td><td>27.8</td><td>22 - 29</td><td></td><td>mmol/L</td></tr></table></div>"
        },
        "status": "final",
        "subject": {
          "reference": "urn:uuid:f9df2116-625d-48da-a658-3fb14435bf09",
          "display": "Gabrielius Gaičiūnas"
        },
        "effectiveDateTime": "2020-10-09T16:05:46Z",
        "specimen": {
          "reference": "urn:uuid:3d9871b0-4c19-4e25-a1ef-735402f70af7"
        }
      }
    },
    {
      "fullUrl": "urn:uuid:9a42b72a-c759-483e-ba3a-fb9389c9a681",
      "resource": {
        "resourceType": "Observation",
        "id": "9a42b72a-c759-483e-ba3a-fb9389c9a681",
        "meta": {
          "profile": [
            "http://hl7.eu/fhir/laboratory/StructureDefinition/Observation-resultslab-eu-lab"
          ]
        },
        "performer": [
          {
            "display": "The Central European Lab"
          }
        ],
        "category": [
          {
            "coding": [
              {
                "system": "http://terminology.hl7.org/CodeSystem/observation-category",
                "code": "laboratory"
              }
            ]
          }
        ],
        "code": {
          "coding": [
            {
              "code": "2093-3",
              "system": "http://loinc.org",
              "display": "Cholesterol [Mass/volume] in Serum or Plasma"
            }
          ],
          "text": "Cholesterol [Mass/volume] in Serum or Plasma"
        },
        "valueQuantity": {
          "system": "http://unitsofmeasure.org",
          "value": 261.4,
          "unit": "mg/dL",
          "code": "mg/dL"
        },
        "referenceRange": [
          {
            "low": {
              "value": 0,
              "code": "mg/dL",
              "system": "http://unitsofmeasure.org"
            }
          },
          {
            "high": {
              "value": 200,
              "code": "mg/dL",
              "system": "http://unitsofmeasure.org"
            }
          }
        ],
        "interpretation": [
          {
            "coding": [
              {
                "code": "H",
                "system": "http://terminology.hl7.org/CodeSystem/v3-ObservationInterpretation",
                "display": "High"
              }
            ]
          }
        ],
        "text": {
          "status": "generated",
          "div": "<div xmlns=\"http://www.w3.org/1999/xhtml\"><table class=\"hl7__eu__lab__report\"><tr><th>Test</th><th>09-Oct-2020</th><th>Reference&#xA0;Range</th><th>Unit</th></tr><tr><td>Cholesterol [Mass/volume] in Serum or Plasma</td><td>261.4</td><td>0 - 200</td><td>H</td><td>mg/dL</td></tr></table></div>"
        },
        "status": "final",
        "subject": {
          "reference": "urn:uuid:f9df2116-625d-48da-a658-3fb14435bf09",
          "display": "Gabrielius Gaičiūnas"
        },
        "effectiveDateTime": "2020-10-09T16:05:46Z",
        "specimen": {
          "reference": "urn:uuid:32db78fe-e2b7-4818-abc2-0305674d6bc7"
        }
      }
    },
    {
      "fullUrl": "urn:uuid:14ebb423-d489-4491-b8a6-3b73e7b4e79c",
      "resource": {
        "resourceType": "Observation",
        "id": "14ebb423-d489-4491-b8a6-3b73e7b4e79c",
        "meta": {
          "profile": [
            "http://hl7.eu/fhir/laboratory/StructureDefinition/Observation-resultslab-eu-lab"
          ]
        },
        "performer": [
          {
            "display": "The Central European Lab"
          }
        ],
        "category": [
          {
            "coding": [
              {
                "system": "http://terminology.hl7.org/CodeSystem/observation-category",
                "code": "laboratory"
              }
            ]
          }
        ],
        "code": {
          "coding": [
            {
              "code": "2571-8",
              "system": "http://loinc.org",
              "display": "Triglyceride [Mass/volume] in Serum or Plasma"
            }
          ],
          "text": "Triglyceride [Mass/volume] in Serum or Plasma"
        },
        "valueQuantity": {
          "system": "http://unitsofmeasure.org",
          "value": 111.8,
          "unit": "mg/dL",
          "code": "mg/dL"
        },
        "referenceRange": [
          {
            "low": {
              "value": 0,
              "code": "mg/dL",
              "system": "http://unitsofmeasure.org"
            }
          },
          {
            "high": {
              "value": 199,
              "code": "mg/dL",
              "system": "http://unitsofmeasure.org"
            }
          }
        ],
        "text": {
          "status": "generated",
          "div": "<div xmlns=\"http://www.w3.org/1999/xhtml\"><table class=\"hl7__eu__lab__report\"><tr><th>Test</th><th>09-Oct-2020</th><th>Reference&#xA0;Range</th><th>Unit</th></tr><tr><td>Triglyceride [Mass/volume] in Serum or Plasma</td><td>111.8</td><td>0 - 199</td><td></td><td>mg/dL</td></tr></table></div>"
        },
        "status": "final",
        "subject": {
          "reference": "urn:uuid:f9df2116-625d-48da-a658-3fb14435bf09",
          "display": "Gabrielius Gaičiūnas"
        },
        "effectiveDateTime": "2020-10-09T16:05:46Z",
        "specimen": {
          "reference": "urn:uuid:32db78fe-e2b7-4818-abc2-0305674d6bc7"
        }
      }
    },
    {
      "fullUrl": "urn:uuid:f70b657d-2b49-40a9-8eda-44f942ed1cf7",
      "resource": {
        "resourceType": "Observation",
        "id": "f70b657d-2b49-40a9-8eda-44f942ed1cf7",
        "meta": {
          "profile": [
            "http://hl7.eu/fhir/laboratory/StructureDefinition/Observation-resultslab-eu-lab"
          ]
        },
        "performer": [
          {
            "display": "The Central European Lab"
          }
        ],
        "category": [
          {
            "coding": [
              {
                "system": "http://terminology.hl7.org/CodeSystem/observation-category",
                "code": "laboratory"
              }
            ]
          }
        ],
        "code": {
          "coding": [
            {
              "code": "18262-6",
              "system": "http://loinc.org",
              "display": "Cholesterol in LDL [Mass/volume] in Serum or Plasma by Direct assay"
            }
          ],
          "text": "Cholesterol in LDL [Mass/volume] in Serum or Plasma by Direct assay"
        },
        "valueQuantity": {
          "system": "http://unitsofmeasure.org",
          "value": 208.2,
          "unit": "mg/dL",
          "code": "mg/dL"
        },
        "referenceRange": [
          {
            "low": {
              "value": 0,
              "code": "mg/dL",
              "system": "http://unitsofmeasure.org"
            }
          },
          {
            "high": {
              "value": 130,
              "code": "mg/dL",
              "system": "http://unitsofmeasure.org"
            }
          }
        ],
        "interpretation": [
          {
            "coding": [
              {
                "code": "H",
                "system": "http://terminology.hl7.org/CodeSystem/v3-ObservationInterpretation",
                "display": "High"
              }
            ]
          }
        ],
        "text": {
          "status": "generated",
          "div": "<div xmlns=\"http://www.w3.org/1999/xhtml\"><table class=\"hl7__eu__lab__report\"><tr><th>Test</th><th>09-Oct-2020</th><th>Reference&#xA0;Range</th><th>Unit</th></tr><tr><td>Cholesterol in LDL [Mass/volume] in Serum or Plasma by Direct assay</td><td>208.2</td><td>0 - 130</td><td>H</td><td>mg/dL</td></tr></table></div>"
        },
        "status": "final",
        "subject": {
          "reference": "urn:uuid:f9df2116-625d-48da-a658-3fb14435bf09",
          "display": "Gabrielius Gaičiūnas"
        },
        "effectiveDateTime": "2020-10-09T16:05:46Z",
        "specimen": {
          "reference": "urn:uuid:32db78fe-e2b7-4818-abc2-0305674d6bc7"
        }
      }
    },
    {
      "fullUrl": "urn:uuid:8a9b4bbe-ee67-4601-8783-c5792080bffb",
      "resource": {
        "resourceType": "Observation",
        "id": "8a9b4bbe-ee67-4601-8783-c5792080bffb",
        "meta": {
          "profile": [
            "http://hl7.eu/fhir/laboratory/StructureDefinition/Observation-resultslab-eu-lab"
          ]
        },
        "performer": [
          {
            "display": "The Central European Lab"
          }
        ],
        "category": [
          {
            "coding": [
              {
                "system": "http://terminology.hl7.org/CodeSystem/observation-category",
                "code": "laboratory"
              }
            ]
          }
        ],
        "code": {
          "coding": [
            {
              "code": "2085-9",
              "system": "http://loinc.org",
              "display": "Cholesterol in HDL [Mass/volume] in Serum or Plasma"
            }
          ],
          "text": "Cholesterol in HDL [Mass/volume] in Serum or Plasma"
        },
        "valueQuantity": {
          "system": "http://unitsofmeasure.org",
          "value": 30.8,
          "unit": "mg/dL",
          "code": "mg/dL"
        },
        "referenceRange": [
          {
            "low": {
              "value": 40,
              "code": "mg/dL",
              "system": "http://unitsofmeasure.org"
            }
          },
          {
            "high": {
              "value": 100,
              "code": "mg/dL",
              "system": "http://unitsofmeasure.org"
            }
          }
        ],
        "interpretation": [
          {
            "coding": [
              {
                "code": "L",
                "system": "http://terminology.hl7.org/CodeSystem/v3-ObservationInterpretation",
                "display": "Low"
              }
            ]
          }
        ],
        "text": {
          "status": "generated",
          "div": "<div xmlns=\"http://www.w3.org/1999/xhtml\"><table class=\"hl7__eu__lab__report\"><tr><th>Test</th><th>09-Oct-2020</th><th>Reference&#xA0;Range</th><th>Unit</th></tr><tr><td>Cholesterol in HDL [Mass/volume] in Serum or Plasma</td><td>30.8</td><td>40 - 100</td><td>L</td><td>mg/dL</td></tr></table></div>"
        },
        "status": "final",
        "subject": {
          "reference": "urn:uuid:f9df2116-625d-48da-a658-3fb14435bf09",
          "display": "Gabrielius Gaičiūnas"
        },
        "effectiveDateTime": "2020-10-09T16:05:46Z",
        "specimen": {
          "reference": "urn:uuid:32db78fe-e2b7-4818-abc2-0305674d6bc7"
        }
      }
    },
    {
      "fullUrl": "urn:uuid:ca50be1f-7e0d-49ec-b12c-711fd4595be2",
      "resource": {
        "resourceType": "Device",
        "id": "ca50be1f-7e0d-49ec-b12c-711fd4595be2",
        "deviceName": [
          {
            "name": "SYNDERAI Synthetic Generator",
            "type": "manufacturer-name"
          }
        ],
        "version": [
          {
            "value": "5.0"
          }
        ],
        "text": {
          "status": "generated",
          "div": "<div xmlns=\"http://www.w3.org/1999/xhtml\">SYNDERAI Synthetic Generator v5.0</div>"
        },
        "status": "active\"",
        "distinctIdentifier": "synderai-generator-50",
        "manufacturer": "SYNDERAI Project"
      }
    },
    {
      "fullUrl": "urn:uuid:64051efa-46a4-434d-ae19-90c968d47384",
      "resource": {
        "resourceType": "Provenance",
        "id": "64051efa-46a4-434d-ae19-90c968d47384",
        "target": [
          {
            "reference": "Patient/f9df2116-625d-48da-a658-3fb14435bf09"
          },
          {
            "reference": "Bundle/1798d876-ff8b-43f2-b277-c625fa623df2"
          },
          {
            "reference": "Composition/9e892be3-6b83-4b28-91f5-92e19b0c0ec3"
          },
          {
            "reference": "PractitionerRole/3ef31dd9-f157-494c-bde0-804e57297998"
          },
          {
            "reference": "Practitioner/21384f41-a3b4-4cb8-95dd-a9de2729fc7b"
          },
          {
            "reference": "PractitionerRole/b3ce038e-fd4f-49ec-9194-c8fb15cf7e4e"
          },
          {
            "reference": "Organization/8ea9d976-fb4b-47ae-a6cf-4ad1b7180795"
          }
        ],
        "activity": {
          "text": "Synthetic Example Data Generation"
        },
        "policy": [
          "https://synderai.net/synderai-synthetic-data-policy"
        ],
        "agent": [
          {
            "type": {
              "text": "author"
            },
            "who": {
              "reference": "Device/ca50be1f-7e0d-49ec-b12c-711fd4595be2"
            }
          }
        ],
        "reason": [
          {
            "text": "Interoperability Testing and Training (non-clinical use)"
          }
        ],
        "text": {
          "status": "generated",
          "div": "<div xmlns=\"http://www.w3.org/1999/xhtml\">Provenance for SYNDERAI Synthetic Example Data Resource</div>"
        },
        "recorded": "2020-10-09T18:05:46Z"
      }
    },
    {
      "fullUrl": "urn:uuid:3ef31dd9-f157-494c-bde0-804e57297998",
      "resource": {
        "resourceType": "PractitionerRole",
        "id": "3ef31dd9-f157-494c-bde0-804e57297998",
        "meta": {
          "profile": [
            "http://hl7.eu/fhir/base/StructureDefinition/practitionerRole-eu"
          ]
        },
        "text": {
          "status": "generated",
          "div": "<div xmlns=\"http://www.w3.org/1999/xhtml\">Laboratory Role Id: 3ef31dd9-f157-494c-bde0-804e57297998</div>"
        },
        "practitioner": {
          "reference": "urn:uuid:21384f41-a3b4-4cb8-95dd-a9de2729fc7b"
        }
      }
    },
    {
      "fullUrl": "urn:uuid:21384f41-a3b4-4cb8-95dd-a9de2729fc7b",
      "resource": {
        "resourceType": "Practitioner",
        "id": "21384f41-a3b4-4cb8-95dd-a9de2729fc7b",
        "meta": {
          "profile": [
            "http://hl7.eu/fhir/base/StructureDefinition/practitioner-eu"
          ]
        },
        "identifier": [
          {
            "assigner": {
              "display": "HL7 Europe"
            },
            "system": "urn:oid:2.16.840.1.113883.2.51.999",
            "value": "88bd9da1-b6b5-44eb-81b4-00cea5b8b6ef"
          }
        ],
        "name": [
          {
            "prefix": [
              "dr"
            ],
            "given": [
              "Ex"
            ],
            "family": "Ample"
          }
        ],
        "address": [
          {
            "line": [
              "Laboratoire Central Européenne",
              "Boulevard du Jardin Botanique 32"
            ],
            "postalCode": "1000",
            "city": "Brussels",
            "country": "Belgium"
          }
        ],
        "text": {
          "status": "generated",
          "div": "<div xmlns=\"http://www.w3.org/1999/xhtml\">Laboratory: Laboratoire Central Européenne, 1000 Brussels, Belgium</div>"
        }
      }
    }
  ],
  "type": "document",
  "timestamp": "2020-10-09T18:05:46Z"
}
