<Bundle xmlns="http://hl7.org/fhir">
   <id value="4cd85979-11fc-4c35-8ace-89bc04352081"/>
   <meta>
      <profile value="http://hl7.eu/fhir/laboratory/StructureDefinition/Bundle-eu-lab"/>
   </meta>
   <identifier>
      <system value="urn:oid:2.16.840.1.113883.2.51.999"/>
      <value value="f3e1eb96-720b-4153-bda9-e16f3db14004"/>
      <assigner>
         <display value="HL7 Europe"/>
      </assigner>
   </identifier>
   <type value="document"/>
   <timestamp value="2018-08-05T22:22:24Z"/>
   <entry>
      <fullUrl value="urn:uuid:05a54396-3e9a-4a2e-8c8d-b80b1bdacd4a"/>
      <resource>
         <Composition>
            <id value="05a54396-3e9a-4a2e-8c8d-b80b1bdacd4a"/>
            <meta>
               <profile value="http://hl7.eu/fhir/laboratory/StructureDefinition/Composition-eu-lab"/>
            </meta>
            <identifier>
               <system value="urn:oid:2.16.840.1.113883.2.51.999"/>
               <value value="daaf12d9-32f4-4f12-800d-cce6d921a868"/>
               <assigner>
                  <display value="HL7 Europe"/>
               </assigner>
            </identifier>
            <status value="final"/>
            <type>
               <coding>
                  <system value="http://loinc.org"/>
                  <code value="11502-2"/>
                  <display value="Laboratory report"/>
               </coding>
               <text value="Laboratory Report"/>
            </type>
            <category>
               <coding>
                  <system value="http://loinc.org"/>
                  <code value="26436-6"/>
                  <display value="Laboratory studies (set)"/>
               </coding>
            </category>
            <subject>
               <reference value="urn:uuid:1d9c1679-c005-43d6-9f2e-93ffd21f5e0d"/>
               <display value="Maria Nohlmans"/>
            </subject>
            <date value="2018-08-05T22:22:24Z"/>
            <author>
               <reference value="urn:uuid:7e2b839b-853e-425a-9aef-f410121444bb"/>
            </author>
            <title value="Laboratory Report"/>
            <confidentiality value="N"/>
            <section>
               <title value="Laboratory Report"/>
               <code>
                  <coding>
                     <system value="http://loinc.org"/>
                     <code value="26436-6"/>
                     <display value="Laboratory studies (set)"/>
                  </coding>
                  <text value="Laboratory studies"/>
               </code>
               <section>
                  <title value="Hematology"/>
                  <code>
                     <coding>
                        <system value="http://loinc.org"/>
                        <code value="$18723-7"/>
                        <display value="Hematology studies (set)"/>
                     </coding>
                     <text value="Hematology"/>
                  </code>
                  <text>
                     <status value="generated"/>
                     <div xmlns="http://www.w3.org/1999/xhtml">
                        <h3>Hematology</h3>
                        <table class="hl7__eu__lab__report">
                           <thead>
                              <tr>
                                 <th>Test</th>
                                 <th>05-AUG-2018</th>
                                 <th>Reference Range</th>
                                 <th>Unit</th>
                              </tr>
                           </thead>
                           <tbody>
                              <tr>
                                 <td>Leukocytes [#/volume] in Blood by Automated count</td>
                                 <td>9.9</td>
                                 <td>4 - 11</td>
                                 <td>10*3/uL</td>
                              </tr>
                              <tr>
                                 <td>Erythrocytes [#/volume] in Blood by Automated count</td>
                                 <td>4.5</td>
                                 <td>3.9 - 5.2</td>
                                 <td>10*6/uL</td>
                              </tr>
                              <tr>
                                 <td>Hemoglobin [Mass/volume] in Blood</td>
                                 <td>
                                    <strong>16.3 H</strong>
                                 </td>
                                 <td>12 - 15.5</td>
                                 <td>g/dL</td>
                              </tr>
                              <tr>
                                 <td>Hematocrit [Volume Fraction] of Blood by Automated count</td>
                                 <td>46.0</td>
                                 <td>38 - 54</td>
                                 <td>%</td>
                              </tr>
                              <tr>
                                 <td>MCV [Entitic volume] by Automated count</td>
                                 <td>89.9</td>
                                 <td>78 - 98</td>
                                 <td>fL</td>
                              </tr>
                              <tr>
                                 <td>MCH [Entitic mass] by Automated count</td>
                                 <td>29.3</td>
                                 <td>27 - 33</td>
                                 <td>pg</td>
                              </tr>
                              <tr>
                                 <td>MCHC [Mass/volume] by Automated count</td>
                                 <td>
                                    <strong>35.5 H</strong>
                                 </td>
                                 <td>31 - 35</td>
                                 <td>g/dL</td>
                              </tr>
                              <tr>
                                 <td>Erythrocyte distribution width [Entitic volume] by Automated count</td>
                                 <td>42.7</td>
                                 <td>36 - 56</td>
                                 <td>fL</td>
                              </tr>
                              <tr>
                                 <td>Platelets [#/volume] in Blood by Automated count</td>
                                 <td>185.4</td>
                                 <td>150 - 450</td>
                                 <td>10*3/uL</td>
                              </tr>
                              <tr>
                                 <td>Platelet distribution width [Entitic volume] in Blood by Automated count</td>
                                 <td>177.0</td>
                                 <td>15.5 - 450</td>
                                 <td>fL</td>
                              </tr>
                              <tr>
                                 <td>Platelet mean volume [Entitic volume] in Blood by Automated count</td>
                                 <td>10.8</td>
                                 <td>7.2 - 13.5</td>
                                 <td>fL</td>
                              </tr>
                           </tbody>
                        </table>
                     </div>
                  </text>
                  <entry>
                     <reference value="urn:uuid:6c420661-0a66-4986-aa37-51c437cb7167"/>
                  </entry>
                  <entry>
                     <reference value="urn:uuid:9e4713fd-2019-429d-8f21-a972fa1fb140"/>
                  </entry>
                  <entry>
                     <reference value="urn:uuid:8ea83800-8787-47cf-a44e-e25e0689e4b1"/>
                  </entry>
                  <entry>
                     <reference value="urn:uuid:dd6d0cfe-3fe8-46a2-980c-7031a0359a78"/>
                  </entry>
                  <entry>
                     <reference value="urn:uuid:a6bd62cc-cb61-4de6-9853-8998d97e8bc1"/>
                  </entry>
                  <entry>
                     <reference value="urn:uuid:6f8a4358-48ca-4e10-a1e3-d8b2f2125649"/>
                  </entry>
                  <entry>
                     <reference value="urn:uuid:9f31561a-c450-45fa-b7d7-1fafe7941aca"/>
                  </entry>
                  <entry>
                     <reference value="urn:uuid:078ca8f3-4920-49c1-be7b-4670c236fed9"/>
                  </entry>
                  <entry>
                     <reference value="urn:uuid:b51f1a45-dd16-41d3-8e3f-ea0e0a310935"/>
                  </entry>
                  <entry>
                     <reference value="urn:uuid:f9278025-10f4-491d-ad50-73e9e60a061c"/>
                  </entry>
                  <entry>
                     <reference value="urn:uuid:2492d01f-d2e0-41c3-ab8a-37ebf998b538"/>
                  </entry>
               </section>
               <section>
                  <title value="Chemistry"/>
                  <code>
                     <coding>
                        <system value="http://loinc.org"/>
                        <code value="$18719-5"/>
                        <display value="Chemistry studies (set)"/>
                     </coding>
                     <text value="Chemistry"/>
                  </code>
                  <text>
                     <status value="generated"/>
                     <div xmlns="http://www.w3.org/1999/xhtml">
                        <h3>Chemistry</h3>
                        <table class="hl7__eu__lab__report">
                           <thead>
                              <tr>
                                 <th>Test</th>
                                 <th>05-AUG-2018</th>
                                 <th>Reference Range</th>
                                 <th>Unit</th>
                              </tr>
                           </thead>
                           <tbody>
                              <tr>
                                 <td>Glucose [Mass/volume] in Blood</td>
                                 <td>80.3</td>
                                 <td>70 - 140</td>
                                 <td>mg/dL</td>
                              </tr>
                              <tr>
                                 <td>Urea nitrogen [Mass/volume] in Blood</td>
                                 <td>13.3</td>
                                 <td>7 - 30</td>
                                 <td>mg/dL</td>
                              </tr>
                              <tr>
                                 <td>Creatinine [Mass/volume] in Blood</td>
                                 <td>0.7</td>
                                 <td>0.5 - 1.3</td>
                                 <td>mg/dL</td>
                              </tr>
                              <tr>
                                 <td>Calcium [Mass/volume] in Blood</td>
                                 <td>9.0</td>
                                 <td>8.6 - 10.2</td>
                                 <td>mg/dL</td>
                              </tr>
                              <tr>
                                 <td>Sodium [Moles/volume] in Blood</td>
                                 <td>140.6</td>
                                 <td>135 - 145</td>
                                 <td>mmol/L</td>
                              </tr>
                              <tr>
                                 <td>Potassium [Moles/volume] in Blood</td>
                                 <td>4.7</td>
                                 <td>3.5 - 5.1</td>
                                 <td>mmol/L</td>
                              </tr>
                              <tr>
                                 <td>Chloride [Moles/volume] in Blood</td>
                                 <td>108.3</td>
                                 <td>98 - 114</td>
                                 <td>mmol/L</td>
                              </tr>
                              <tr>
                                 <td>Carbon dioxide, total [Moles/volume] in Blood</td>
                                 <td>
                                    <strong>21.6 L</strong>
                                 </td>
                                 <td>22 - 32</td>
                                 <td>mmol/L</td>
                              </tr>
                              <tr>
                                 <td>Ketones [Presence] in Urine by Test strip</td>
                                 <td>0.0</td>
                                 <td>0 - 0</td>
                                 <td>{presence}</td>
                              </tr>
                           </tbody>
                        </table>
                     </div>
                  </text>
                  <entry>
                     <reference value="urn:uuid:c4e513ce-25ed-4edc-967f-22d42ee8c60a"/>
                  </entry>
                  <entry>
                     <reference value="urn:uuid:c25721dd-a84b-485c-811d-4c3d601f7b31"/>
                  </entry>
                  <entry>
                     <reference value="urn:uuid:2f5fc802-7ab9-40ad-be50-ef137a2d3cab"/>
                  </entry>
                  <entry>
                     <reference value="urn:uuid:6e680dd6-1598-4ab3-bbc5-102c173b49ea"/>
                  </entry>
                  <entry>
                     <reference value="urn:uuid:01dd596a-3204-4b72-b23c-677c0fd9938a"/>
                  </entry>
                  <entry>
                     <reference value="urn:uuid:584b8227-7b2f-4c18-96e8-dfcd20c507d0"/>
                  </entry>
                  <entry>
                     <reference value="urn:uuid:534b66fd-73ad-4510-9da2-ea2bedab4d15"/>
                  </entry>
                  <entry>
                     <reference value="urn:uuid:1e651fad-bb01-4f10-8414-c3f17da9ebdb"/>
                  </entry>
                  <entry>
                     <reference value="urn:uuid:c87f50c1-dc0e-410e-baf2-273985c78524"/>
                  </entry>
               </section>
               <section>
                  <title value="Urinalysis"/>
                  <code>
                     <coding>
                        <system value="http://loinc.org"/>
                        <code value="$18729-4"/>
                        <display value="Urinalysis studies (set)"/>
                     </coding>
                     <text value="Urinalysis"/>
                  </code>
                  <text>
                     <status value="generated"/>
                     <div xmlns="http://www.w3.org/1999/xhtml">
                        <h3>Urinalysis</h3>
                        <table class="hl7__eu__lab__report">
                           <thead>
                              <tr>
                                 <th>Test</th>
                                 <th>05-AUG-2018</th>
                                 <th>Reference Range</th>
                                 <th>Unit</th>
                              </tr>
                           </thead>
                           <tbody>
                              <tr>
                                 <td>Glucose [Presence] in Urine by Test strip</td>
                                 <td>0.0</td>
                                 <td>0 - 0</td>
                                 <td>{presence}</td>
                              </tr>
                              <tr>
                                 <td>Bilirubin.total [Presence] in Urine by Test strip</td>
                                 <td>0.0</td>
                                 <td>0 - 0</td>
                                 <td>{presence}</td>
                              </tr>
                              <tr>
                                 <td>Specific gravity of Urine by Test strip</td>
                                 <td>
                                    <strong>1.0 L</strong>
                                 </td>
                                 <td>1.005 - 1.03</td>
                                 <td>{SG}</td>
                              </tr>
                              <tr>
                                 <td>pH of Urine by Test strip</td>
                                 <td>4.8</td>
                                 <td>4.5 - 7.5</td>
                                 <td>[pH]</td>
                              </tr>
                              <tr>
                                 <td>Protein [Presence] in Urine by Test strip</td>
                                 <td>0.0</td>
                                 <td>0 - 0</td>
                                 <td>{presence}</td>
                              </tr>
                              <tr>
                                 <td>Nitrite [Presence] in Urine by Test strip</td>
                                 <td>0.0</td>
                                 <td>0 - 0</td>
                                 <td>{presence}</td>
                              </tr>
                              <tr>
                                 <td>Hemoglobin [Presence] in Urine by Test strip</td>
                                 <td>0.0</td>
                                 <td>0 - 0</td>
                                 <td>{presence}</td>
                              </tr>
                              <tr>
                                 <td>Leukocyte esterase [Presence] in Urine by Test strip</td>
                                 <td>0.0</td>
                                 <td>0 - 0</td>
                                 <td>{presence}</td>
                              </tr>
                           </tbody>
                        </table>
                     </div>
                  </text>
                  <entry>
                     <reference value="urn:uuid:a19f57fe-d40e-4929-a6fe-2ac4a042152a"/>
                  </entry>
                  <entry>
                     <reference value="urn:uuid:1f3f883f-cde8-4149-bd6b-4d270f6a9061"/>
                  </entry>
                  <entry>
                     <reference value="urn:uuid:1c992aaf-6061-47b9-9d4f-f713d0a05d2e"/>
                  </entry>
                  <entry>
                     <reference value="urn:uuid:821f0d99-fc6c-4a9c-8ea6-ff04dcf6ffbe"/>
                  </entry>
                  <entry>
                     <reference value="urn:uuid:b69a0433-d968-41cf-bb1f-ee40af5fc1ed"/>
                  </entry>
                  <entry>
                     <reference value="urn:uuid:2ba59a93-7fd0-4a7e-8d85-484ea6e9e2b6"/>
                  </entry>
                  <entry>
                     <reference value="urn:uuid:47e91987-7b7b-4257-86f8-95bd810b1459"/>
                  </entry>
                  <entry>
                     <reference value="urn:uuid:0aed61c2-9552-48b1-a877-2e1d3bb71abd"/>
                  </entry>
               </section>
            </section>
            <section>
               <title value="Annotation comment"/>
               <code>
                  <coding>
                     <system value="http://loinc.org"/>
                     <code value="48767-8"/>
                     <display value="Annotation comment"/>
                  </coding>
               </code>
               <text>
                  <status value="generated"/>
                  <div xmlns="http://www.w3.org/1999/xhtml">
                     <h3>Annotation</h3>
                     <table class="hl7__eu__lab__report">
                        <tr>
                           <th>Conclusion and Recommendations based on this report and previous findings known to us</th>
                        </tr>
                        <tr>
                           <td>Most parameters are within normal limits. Notable findings include mildly low total CO₂, which may suggest mild metabolic acidosis or compensated respiratory alkalosis, and elevated hemoglobin and MCHC, possibly indicating mild dehydration or hemoconcentration. Urine specific gravity is low, which may reflect dilute urine or overhydration. No evidence of infection or renal dysfunction. Clinical correlation is recommended.</td>
                        </tr>
                     </table>
                  </div>
               </text>
            </section>
         </Composition>
      </resource>
   </entry>
   <entry>
      <fullUrl value="urn:uuid:ca76e091-3e18-4e01-aa3b-c0d273ac2156"/>
      <resource>
         <DiagnosticReport>
            <id value="ca76e091-3e18-4e01-aa3b-c0d273ac2156"/>
            <meta>
               <profile value="http://hl7.eu/fhir/laboratory/StructureDefinition/DiagnosticReport-eu-lab"/>
            </meta>
            <extension url="http://hl7.org/fhir/5.0/StructureDefinition/extension-DiagnosticReport.composition">
               <valueReference>
                  <reference value="urn:uuid:daaf12d9-32f4-4f12-800d-cce6d921a868"/>
               </valueReference>
            </extension>
            <identifier>
               <system value="urn:oid:2.16.840.1.113883.2.51.999"/>
               <value value="f1ec5ce7-3fd2-47dc-9478-8e8afde3caca"/>
               <assigner>
                  <display value="HL7 Europe"/>
               </assigner>
            </identifier>
            <status value="registered"/>
            <category>
               <coding>
                  <system value="http://loinc.org"/>
                  <code value="26436-6"/>
                  <display value="Laboratory studies (set)"/>
               </coding>
            </category>
            <code>
               <coding>
                  <system value="http://loinc.org"/>
                  <code value="11502-2"/>
                  <display value="Laboratory report"/>
               </coding>
            </code>
            <subject>
               <reference value="urn:uuid:1d9c1679-c005-43d6-9f2e-93ffd21f5e0d"/>
               <display value="Maria Nohlmans"/>
            </subject>
            <specimen>
               <reference value="urn:uuid:e6609335-819c-466a-9c29-f97d93974d79"/>
            </specimen>
            <specimen>
               <reference value="urn:uuid:e6609335-819c-466a-9c29-f97d93974d79"/>
            </specimen>
            <specimen>
               <reference value="urn:uuid:4ce3a092-7250-488b-97f7-dbcefd1d21ca"/>
            </specimen>
            <result>
               <reference value="urn:uuid:c4e513ce-25ed-4edc-967f-22d42ee8c60a"/>
            </result>
            <result>
               <reference value="urn:uuid:c25721dd-a84b-485c-811d-4c3d601f7b31"/>
            </result>
            <result>
               <reference value="urn:uuid:2f5fc802-7ab9-40ad-be50-ef137a2d3cab"/>
            </result>
            <result>
               <reference value="urn:uuid:6e680dd6-1598-4ab3-bbc5-102c173b49ea"/>
            </result>
            <result>
               <reference value="urn:uuid:01dd596a-3204-4b72-b23c-677c0fd9938a"/>
            </result>
            <result>
               <reference value="urn:uuid:584b8227-7b2f-4c18-96e8-dfcd20c507d0"/>
            </result>
            <result>
               <reference value="urn:uuid:534b66fd-73ad-4510-9da2-ea2bedab4d15"/>
            </result>
            <result>
               <reference value="urn:uuid:1e651fad-bb01-4f10-8414-c3f17da9ebdb"/>
            </result>
            <result>
               <reference value="urn:uuid:6c420661-0a66-4986-aa37-51c437cb7167"/>
            </result>
            <result>
               <reference value="urn:uuid:9e4713fd-2019-429d-8f21-a972fa1fb140"/>
            </result>
            <result>
               <reference value="urn:uuid:8ea83800-8787-47cf-a44e-e25e0689e4b1"/>
            </result>
            <result>
               <reference value="urn:uuid:dd6d0cfe-3fe8-46a2-980c-7031a0359a78"/>
            </result>
            <result>
               <reference value="urn:uuid:a6bd62cc-cb61-4de6-9853-8998d97e8bc1"/>
            </result>
            <result>
               <reference value="urn:uuid:6f8a4358-48ca-4e10-a1e3-d8b2f2125649"/>
            </result>
            <result>
               <reference value="urn:uuid:9f31561a-c450-45fa-b7d7-1fafe7941aca"/>
            </result>
            <result>
               <reference value="urn:uuid:078ca8f3-4920-49c1-be7b-4670c236fed9"/>
            </result>
            <result>
               <reference value="urn:uuid:b51f1a45-dd16-41d3-8e3f-ea0e0a310935"/>
            </result>
            <result>
               <reference value="urn:uuid:f9278025-10f4-491d-ad50-73e9e60a061c"/>
            </result>
            <result>
               <reference value="urn:uuid:2492d01f-d2e0-41c3-ab8a-37ebf998b538"/>
            </result>
            <result>
               <reference value="urn:uuid:a19f57fe-d40e-4929-a6fe-2ac4a042152a"/>
            </result>
            <result>
               <reference value="urn:uuid:1f3f883f-cde8-4149-bd6b-4d270f6a9061"/>
            </result>
            <result>
               <reference value="urn:uuid:c87f50c1-dc0e-410e-baf2-273985c78524"/>
            </result>
            <result>
               <reference value="urn:uuid:1c992aaf-6061-47b9-9d4f-f713d0a05d2e"/>
            </result>
            <result>
               <reference value="urn:uuid:821f0d99-fc6c-4a9c-8ea6-ff04dcf6ffbe"/>
            </result>
            <result>
               <reference value="urn:uuid:b69a0433-d968-41cf-bb1f-ee40af5fc1ed"/>
            </result>
            <result>
               <reference value="urn:uuid:2ba59a93-7fd0-4a7e-8d85-484ea6e9e2b6"/>
            </result>
            <result>
               <reference value="urn:uuid:47e91987-7b7b-4257-86f8-95bd810b1459"/>
            </result>
            <result>
               <reference value="urn:uuid:0aed61c2-9552-48b1-a877-2e1d3bb71abd"/>
            </result>
         </DiagnosticReport>
      </resource>
   </entry>
   <entry>
      <fullUrl value="urn:uuid:1d9c1679-c005-43d6-9f2e-93ffd21f5e0d"/>
      <resource>
         <Patient>
            <id value="1d9c1679-c005-43d6-9f2e-93ffd21f5e0d"/>
            <meta>
               <profile value="http://hl7.eu/fhir/base/StructureDefinition/patient-eu-core"/>
               <security>
                  <system value="http://terminology.hl7.org/CodeSystem/v3-ActReason"/>
                  <code value="HTEST"/>
               </security>
               <security>
                  <system value="http://terminology.hl7.org/CodeSystem/v3-ActReason"/>
                  <code value="TRAIN"/>
               </security>
               <tag>
                  <system value="https://synderai.net/fhir/CodeSystem/tags"/>
                  <code value="synthetic"/>
                  <display value="SYNDERAI Synthetic data"/>
               </tag>
            </meta>
            <text>
               <status value="generated"/>
               <div xmlns="http://www.w3.org/1999/xhtml">
                  <table class="hl7__ips">
                     <tr>
                        <td>Maria Nohlmans</td>
                        <td>female</td>
                        <td>11-Jun-1947</td>
                     </tr>
                  </table>
               </div>
            </text>
            <extension url="http://hl7.org/fhir/StructureDefinition/patient-nationality">
               <valueCodeableConcept>
                  <coding>
                     <system value="http://hl7.org/fhir/ValueSet/country"/>
                     <code value="DE"/>
                  </coding>
               </valueCodeableConcept>
            </extension>
            <identifier>
               <type>
                  <coding>
                     <system value="http://terminology.hl7.org/CodeSystem/v2-0203"/>
                     <code value="PT"/>
                  </coding>
               </type>
               <system value="http://ec.europa.eu/identifier/eci"/>
               <value value="6886-506417-1"/>
            </identifier>
            <identifier>
               <type>
                  <coding>
                     <system value="http://terminology.hl7.org/CodeSystem/v2-0203"/>
                     <code value="MR"/>
                  </coding>
               </type>
               <system value="http://local.setting.eu/identifier"/>
               <value value="2cb21ed6-b617-b1f3-2290-589a710de5ee"/>
            </identifier>
            <name>
               <family value="Nohlmans"/>
            </name>
            <name>
               <given value="Maria"/>
            </name>
            <name>
               <text value="Maria Nohlmans"/>
            </name>
            <telecom>
               <system value="phone"/>
               <value value="+49(0)1911 105501"/>
            </telecom>
            <gender value="female"/>
            <birthDate value="1947-06-11"/>
            <address>
               <use value="home"/>
               <type value="physical"/>
               <line value="Alfons-Wulff-Weg 1"/>
               <city value="Husum"/>
               <postalCode value="25813"/>
               <country value="Germany"/>
            </address>
         </Patient>
      </resource>
   </entry>
   <entry>
      <fullUrl value="urn:uuid:32a51736-1fb3-4088-957b-58f015e23cc6"/>
      <resource>
         <ServiceRequest>
            <id value="32a51736-1fb3-4088-957b-58f015e23cc6"/>
            <meta>
               <profile value="http://hl7.eu/fhir/laboratory/StructureDefinition/ServiceRequest-eu-lab"/>
            </meta>
            <identifier>
               <system value="http://example.org"/>
               <value value="3cf769bf-dfcc-44c2-9c50-f984157a6248"/>
            </identifier>
            <status value="active"/>
            <intent value="order"/>
            <code>
               <coding>
                  <system value="http://snomed.info/sct"/>
                  <code value="108252007"/>
                  <display value="Laboratory procedure"/>
               </coding>
            </code>
            <subject>
               <reference value="urn:uuid:1d9c1679-c005-43d6-9f2e-93ffd21f5e0d"/>
               <display value="Maria Nohlmans"/>
            </subject>
            <requester>
               <reference value="urn:uuid:98bc8d92-379a-4c71-b2e7-a39354cbaca4"/>
            </requester>
            <reasonCode>
               <coding>
                  <system value="http://snomed.info/sct"/>
                  <code value="401314000"/>
                  <display value="Acute non-ST segment elevation myocardial infarction"/>
               </coding>
            </reasonCode>
            <reasonCode>
               <coding>
                  <system value="http://snomed.info/sct"/>
                  <code value="157141000119108"/>
                  <display value="Proteinuria due to type 2 diabetes mellitus"/>
               </coding>
            </reasonCode>
            <reasonCode>
               <coding>
                  <system value="http://snomed.info/sct"/>
                  <code value="237602007"/>
                  <display value="Metabolic syndrome X"/>
               </coding>
            </reasonCode>
            <reasonCode>
               <coding>
                  <system value="http://snomed.info/sct"/>
                  <code value="90781000119102"/>
                  <display value="Microalbuminuria due to type 2 diabetes mellitus"/>
               </coding>
            </reasonCode>
            <reasonCode>
               <coding>
                  <system value="http://snomed.info/sct"/>
                  <code value="127013003"/>
                  <display value="Disorder of kidney due to diabetes mellitus"/>
               </coding>
            </reasonCode>
            <reasonCode>
               <coding>
                  <system value="http://snomed.info/sct"/>
                  <code value="59621000"/>
                  <display value="Essential hypertension"/>
               </coding>
            </reasonCode>
            <reasonCode>
               <coding>
                  <system value="http://snomed.info/sct"/>
                  <code value="271737000"/>
                  <display value="Anemia"/>
               </coding>
            </reasonCode>
            <reasonCode>
               <coding>
                  <system value="http://snomed.info/sct"/>
                  <code value="15777000"/>
                  <display value="Prediabetes"/>
               </coding>
            </reasonCode>
            <specimen>
               <reference value="urn:uuid:e6609335-819c-466a-9c29-f97d93974d79"/>
            </specimen>
            <specimen>
               <reference value="urn:uuid:4ce3a092-7250-488b-97f7-dbcefd1d21ca"/>
            </specimen>
         </ServiceRequest>
      </resource>
   </entry>
   <entry>
      <fullUrl value="urn:uuid:98bc8d92-379a-4c71-b2e7-a39354cbaca4"/>
      <resource>
         <PractitionerRole>
            <id value="98bc8d92-379a-4c71-b2e7-a39354cbaca4"/>
            <meta>
               <profile value="http://hl7.eu/fhir/base/StructureDefinition/practitionerRole-eu"/>
            </meta>
            <text>
               <status value="generated"/>
               <div xmlns="http://www.w3.org/1999/xhtml">Provider Role Id: 98bc8d92-379a-4c71-b2e7-a39354cbaca4</div>
            </text>
            <organization>
               <reference value="urn:uuid:26801ddb-88e2-40fe-b41b-dda17202e744"/>
            </organization>
         </PractitionerRole>
      </resource>
   </entry>
   <entry>
      <fullUrl value="urn:uuid:26801ddb-88e2-40fe-b41b-dda17202e744"/>
      <resource>
         <Organization>
            <id value="26801ddb-88e2-40fe-b41b-dda17202e744"/>
            <meta>
               <profile value="http://hl7.eu/fhir/base/StructureDefinition/organization-eu"/>
            </meta>
            <text>
               <status value="generated"/>
               <div xmlns="http://www.w3.org/1999/xhtml">Provider Organization: Dr. Wolfram Hussels Kieferorthopäde</div>
            </text>
            <identifier>
               <system value="urn:oid:2.16.840.1.113883.2.51.999"/>
               <value value="aeeedc18-7a34-49d1-986a-9dc726772f11"/>
               <assigner>
                  <display value="HL7 Europe"/>
               </assigner>
            </identifier>
            <name value="Dr. Wolfram Hussels Kieferorthopäde"/>
            <address>
               <line value="Brinckmannstraße 35"/>
               <city value="Husum"/>
               <postalCode value="25813"/>
               <country value="Germany"/>
            </address>
         </Organization>
      </resource>
   </entry>
   <entry>
      <fullUrl value="urn:uuid:e6609335-819c-466a-9c29-f97d93974d79"/>
      <resource>
         <Specimen>
            <id value="e6609335-819c-466a-9c29-f97d93974d79"/>
            <meta>
               <profile value="http://hl7.eu/fhir/laboratory/StructureDefinition/Specimen-eu-lab"/>
            </meta>
            <text>
               <status value="generated"/>
               <div xmlns="http://www.w3.org/1999/xhtml">
                  <table class="hl7__eu__lab__report">
                     <tr>
                        <th>Specimen</th>
                        <th>Collection Date</th>
                     </tr>
                     <tr>
                        <td>Whole blood specimen (specimen)</td>
                        <td>
                           <span class="nb">05-Aug-2018</span>
                        </td>
                     </tr>
                  </table>
               </div>
            </text>
            <type>
               <coding>
                  <system value="http://snomed.info/sct"/>
                  <code value="258580003"/>
                  <display value="Whole blood specimen (specimen)"/>
               </coding>
            </type>
            <collection>
               <collectedDateTime value="2018-08-05"/>
            </collection>
         </Specimen>
      </resource>
   </entry>
   <entry>
      <fullUrl value="urn:uuid:e6609335-819c-466a-9c29-f97d93974d79"/>
      <resource>
         <Specimen>
            <id value="e6609335-819c-466a-9c29-f97d93974d79"/>
            <meta>
               <profile value="http://hl7.eu/fhir/laboratory/StructureDefinition/Specimen-eu-lab"/>
            </meta>
            <text>
               <status value="generated"/>
               <div xmlns="http://www.w3.org/1999/xhtml">
                  <table class="hl7__eu__lab__report">
                     <tr>
                        <th>Specimen</th>
                        <th>Collection Date</th>
                     </tr>
                     <tr>
                        <td>Whole blood specimen (specimen)</td>
                        <td>
                           <span class="nb">05-Aug-2018</span>
                        </td>
                     </tr>
                  </table>
               </div>
            </text>
            <type>
               <coding>
                  <system value="http://snomed.info/sct"/>
                  <code value="258580003"/>
                  <display value="Whole blood specimen (specimen)"/>
               </coding>
            </type>
            <collection>
               <collectedDateTime value="2018-08-05"/>
            </collection>
         </Specimen>
      </resource>
   </entry>
   <entry>
      <fullUrl value="urn:uuid:4ce3a092-7250-488b-97f7-dbcefd1d21ca"/>
      <resource>
         <Specimen>
            <id value="4ce3a092-7250-488b-97f7-dbcefd1d21ca"/>
            <meta>
               <profile value="http://hl7.eu/fhir/laboratory/StructureDefinition/Specimen-eu-lab"/>
            </meta>
            <text>
               <status value="generated"/>
               <div xmlns="http://www.w3.org/1999/xhtml">
                  <table class="hl7__eu__lab__report">
                     <tr>
                        <th>Specimen</th>
                        <th>Collection Date</th>
                     </tr>
                     <tr>
                        <td>Urine specimen</td>
                        <td>
                           <span class="nb">05-Aug-2018</span>
                        </td>
                     </tr>
                  </table>
               </div>
            </text>
            <type>
               <coding>
                  <system value="http://snomed.info/sct"/>
                  <code value="122575003"/>
                  <display value="Urine specimen"/>
               </coding>
            </type>
            <collection>
               <collectedDateTime value="2018-08-05"/>
            </collection>
         </Specimen>
      </resource>
   </entry>
   <entry>
      <fullUrl value="urn:uuid:c4e513ce-25ed-4edc-967f-22d42ee8c60a"/>
      <resource>
         <Observation>
            <id value="c4e513ce-25ed-4edc-967f-22d42ee8c60a"/>
            <meta>
               <profile value="http://hl7.eu/fhir/laboratory/StructureDefinition/Observation-resultslab-eu-lab"/>
            </meta>
            <text>
               <status value="generated"/>
               <div xmlns="http://www.w3.org/1999/xhtml">
                  <table class="hl7__eu__lab__report">
                     <tr>
                        <th>Test</th>
                        <th>05-Aug-2018</th>
                        <th>Reference Range</th>
                        <th>Unit</th>
                     </tr>
                     <tr>
                        <td>Glucose [Mass/volume] in Blood</td>
                        <td>80.3</td>
                        <td>70 - 140</td>
                        <td/>
                        <td>mg/dL</td>
                     </tr>
                  </table>
               </div>
            </text>
            <status value="final"/>
            <category>
               <coding>
                  <system value="http://terminology.hl7.org/CodeSystem/observation-category"/>
                  <code value="laboratory"/>
               </coding>
            </category>
            <code>
               <coding>
                  <system value="http://loinc.org"/>
                  <code value="2339-0"/>
                  <display value="Glucose [Mass/volume] in Blood"/>
               </coding>
               <text value="Glucose [Mass/volume] in Blood"/>
            </code>
            <subject>
               <reference value="urn:uuid:1d9c1679-c005-43d6-9f2e-93ffd21f5e0d"/>
               <display value="Maria Nohlmans"/>
            </subject>
            <effectiveDateTime value="2018-08-05T20:22:24Z"/>
            <performer>
               <display value="The Central European Lab"/>
            </performer>
            <valueQuantity>
               <value value="80.3"/>
               <unit value="mg/dL"/>
               <system value="http://unitsofmeasure.org"/>
               <code value="mg/dL"/>
            </valueQuantity>
            <specimen>
               <reference value="urn:uuid:e6609335-819c-466a-9c29-f97d93974d79"/>
            </specimen>
            <referenceRange>
               <low>
                  <value value="70"/>
                  <system value="http://unitsofmeasure.org"/>
                  <code value="mg/dL"/>
               </low>
            </referenceRange>
            <referenceRange>
               <high>
                  <value value="140"/>
                  <system value="http://unitsofmeasure.org"/>
                  <code value="mg/dL"/>
               </high>
            </referenceRange>
         </Observation>
      </resource>
   </entry>
   <entry>
      <fullUrl value="urn:uuid:c25721dd-a84b-485c-811d-4c3d601f7b31"/>
      <resource>
         <Observation>
            <id value="c25721dd-a84b-485c-811d-4c3d601f7b31"/>
            <meta>
               <profile value="http://hl7.eu/fhir/laboratory/StructureDefinition/Observation-resultslab-eu-lab"/>
            </meta>
            <text>
               <status value="generated"/>
               <div xmlns="http://www.w3.org/1999/xhtml">
                  <table class="hl7__eu__lab__report">
                     <tr>
                        <th>Test</th>
                        <th>05-Aug-2018</th>
                        <th>Reference Range</th>
                        <th>Unit</th>
                     </tr>
                     <tr>
                        <td>Urea nitrogen [Mass/volume] in Blood</td>
                        <td>13.3</td>
                        <td>7 - 30</td>
                        <td/>
                        <td>mg/dL</td>
                     </tr>
                  </table>
               </div>
            </text>
            <status value="final"/>
            <category>
               <coding>
                  <system value="http://terminology.hl7.org/CodeSystem/observation-category"/>
                  <code value="laboratory"/>
               </coding>
            </category>
            <code>
               <coding>
                  <system value="http://loinc.org"/>
                  <code value="6299-2"/>
                  <display value="Urea nitrogen [Mass/volume] in Blood"/>
               </coding>
               <text value="Urea nitrogen [Mass/volume] in Blood"/>
            </code>
            <subject>
               <reference value="urn:uuid:1d9c1679-c005-43d6-9f2e-93ffd21f5e0d"/>
               <display value="Maria Nohlmans"/>
            </subject>
            <effectiveDateTime value="2018-08-05T20:22:24Z"/>
            <performer>
               <display value="The Central European Lab"/>
            </performer>
            <valueQuantity>
               <value value="13.3"/>
               <unit value="mg/dL"/>
               <system value="http://unitsofmeasure.org"/>
               <code value="mg/dL"/>
            </valueQuantity>
            <specimen>
               <reference value="urn:uuid:e6609335-819c-466a-9c29-f97d93974d79"/>
            </specimen>
            <referenceRange>
               <low>
                  <value value="7"/>
                  <system value="http://unitsofmeasure.org"/>
                  <code value="mg/dL"/>
               </low>
            </referenceRange>
            <referenceRange>
               <high>
                  <value value="30"/>
                  <system value="http://unitsofmeasure.org"/>
                  <code value="mg/dL"/>
               </high>
            </referenceRange>
         </Observation>
      </resource>
   </entry>
   <entry>
      <fullUrl value="urn:uuid:2f5fc802-7ab9-40ad-be50-ef137a2d3cab"/>
      <resource>
         <Observation>
            <id value="2f5fc802-7ab9-40ad-be50-ef137a2d3cab"/>
            <meta>
               <profile value="http://hl7.eu/fhir/laboratory/StructureDefinition/Observation-resultslab-eu-lab"/>
            </meta>
            <text>
               <status value="generated"/>
               <div xmlns="http://www.w3.org/1999/xhtml">
                  <table class="hl7__eu__lab__report">
                     <tr>
                        <th>Test</th>
                        <th>05-Aug-2018</th>
                        <th>Reference Range</th>
                        <th>Unit</th>
                     </tr>
                     <tr>
                        <td>Creatinine [Mass/volume] in Blood</td>
                        <td>0.7</td>
                        <td>0.5 - 1.3</td>
                        <td/>
                        <td>mg/dL</td>
                     </tr>
                  </table>
               </div>
            </text>
            <status value="final"/>
            <category>
               <coding>
                  <system value="http://terminology.hl7.org/CodeSystem/observation-category"/>
                  <code value="laboratory"/>
               </coding>
            </category>
            <code>
               <coding>
                  <system value="http://loinc.org"/>
                  <code value="38483-4"/>
                  <display value="Creatinine [Mass/volume] in Blood"/>
               </coding>
               <text value="Creatinine [Mass/volume] in Blood"/>
            </code>
            <subject>
               <reference value="urn:uuid:1d9c1679-c005-43d6-9f2e-93ffd21f5e0d"/>
               <display value="Maria Nohlmans"/>
            </subject>
            <effectiveDateTime value="2018-08-05T20:22:24Z"/>
            <performer>
               <display value="The Central European Lab"/>
            </performer>
            <valueQuantity>
               <value value="0.7"/>
               <unit value="mg/dL"/>
               <system value="http://unitsofmeasure.org"/>
               <code value="mg/dL"/>
            </valueQuantity>
            <specimen>
               <reference value="urn:uuid:e6609335-819c-466a-9c29-f97d93974d79"/>
            </specimen>
            <referenceRange>
               <low>
                  <value value="0.5"/>
                  <system value="http://unitsofmeasure.org"/>
                  <code value="mg/dL"/>
               </low>
            </referenceRange>
            <referenceRange>
               <high>
                  <value value="1.3"/>
                  <system value="http://unitsofmeasure.org"/>
                  <code value="mg/dL"/>
               </high>
            </referenceRange>
         </Observation>
      </resource>
   </entry>
   <entry>
      <fullUrl value="urn:uuid:6e680dd6-1598-4ab3-bbc5-102c173b49ea"/>
      <resource>
         <Observation>
            <id value="6e680dd6-1598-4ab3-bbc5-102c173b49ea"/>
            <meta>
               <profile value="http://hl7.eu/fhir/laboratory/StructureDefinition/Observation-resultslab-eu-lab"/>
            </meta>
            <text>
               <status value="generated"/>
               <div xmlns="http://www.w3.org/1999/xhtml">
                  <table class="hl7__eu__lab__report">
                     <tr>
                        <th>Test</th>
                        <th>05-Aug-2018</th>
                        <th>Reference Range</th>
                        <th>Unit</th>
                     </tr>
                     <tr>
                        <td>Calcium [Mass/volume] in Blood</td>
                        <td>9.0</td>
                        <td>8.6 - 10.2</td>
                        <td/>
                        <td>mg/dL</td>
                     </tr>
                  </table>
               </div>
            </text>
            <status value="final"/>
            <category>
               <coding>
                  <system value="http://terminology.hl7.org/CodeSystem/observation-category"/>
                  <code value="laboratory"/>
               </coding>
            </category>
            <code>
               <coding>
                  <system value="http://loinc.org"/>
                  <code value="49765-1"/>
                  <display value="Calcium [Mass/volume] in Blood"/>
               </coding>
               <text value="Calcium [Mass/volume] in Blood"/>
            </code>
            <subject>
               <reference value="urn:uuid:1d9c1679-c005-43d6-9f2e-93ffd21f5e0d"/>
               <display value="Maria Nohlmans"/>
            </subject>
            <effectiveDateTime value="2018-08-05T20:22:24Z"/>
            <performer>
               <display value="The Central European Lab"/>
            </performer>
            <valueQuantity>
               <value value="9"/>
               <unit value="mg/dL"/>
               <system value="http://unitsofmeasure.org"/>
               <code value="mg/dL"/>
            </valueQuantity>
            <specimen>
               <reference value="urn:uuid:e6609335-819c-466a-9c29-f97d93974d79"/>
            </specimen>
            <referenceRange>
               <low>
                  <value value="8.6"/>
                  <system value="http://unitsofmeasure.org"/>
                  <code value="mg/dL"/>
               </low>
            </referenceRange>
            <referenceRange>
               <high>
                  <value value="10.2"/>
                  <system value="http://unitsofmeasure.org"/>
                  <code value="mg/dL"/>
               </high>
            </referenceRange>
         </Observation>
      </resource>
   </entry>
   <entry>
      <fullUrl value="urn:uuid:01dd596a-3204-4b72-b23c-677c0fd9938a"/>
      <resource>
         <Observation>
            <id value="01dd596a-3204-4b72-b23c-677c0fd9938a"/>
            <meta>
               <profile value="http://hl7.eu/fhir/laboratory/StructureDefinition/Observation-resultslab-eu-lab"/>
            </meta>
            <text>
               <status value="generated"/>
               <div xmlns="http://www.w3.org/1999/xhtml">
                  <table class="hl7__eu__lab__report">
                     <tr>
                        <th>Test</th>
                        <th>05-Aug-2018</th>
                        <th>Reference Range</th>
                        <th>Unit</th>
                     </tr>
                     <tr>
                        <td>Sodium [Moles/volume] in Blood</td>
                        <td>140.6</td>
                        <td>135 - 145</td>
                        <td/>
                        <td>mmol/L</td>
                     </tr>
                  </table>
               </div>
            </text>
            <status value="final"/>
            <category>
               <coding>
                  <system value="http://terminology.hl7.org/CodeSystem/observation-category"/>
                  <code value="laboratory"/>
               </coding>
            </category>
            <code>
               <coding>
                  <system value="http://loinc.org"/>
                  <code value="2947-0"/>
                  <display value="Sodium [Moles/volume] in Blood"/>
               </coding>
               <text value="Sodium [Moles/volume] in Blood"/>
            </code>
            <subject>
               <reference value="urn:uuid:1d9c1679-c005-43d6-9f2e-93ffd21f5e0d"/>
               <display value="Maria Nohlmans"/>
            </subject>
            <effectiveDateTime value="2018-08-05T20:22:24Z"/>
            <performer>
               <display value="The Central European Lab"/>
            </performer>
            <valueQuantity>
               <value value="140.6"/>
               <unit value="mmol/L"/>
               <system value="http://unitsofmeasure.org"/>
               <code value="mmol/L"/>
            </valueQuantity>
            <specimen>
               <reference value="urn:uuid:e6609335-819c-466a-9c29-f97d93974d79"/>
            </specimen>
            <referenceRange>
               <low>
                  <value value="135"/>
                  <system value="http://unitsofmeasure.org"/>
                  <code value="mmol/L"/>
               </low>
            </referenceRange>
            <referenceRange>
               <high>
                  <value value="145"/>
                  <system value="http://unitsofmeasure.org"/>
                  <code value="mmol/L"/>
               </high>
            </referenceRange>
         </Observation>
      </resource>
   </entry>
   <entry>
      <fullUrl value="urn:uuid:584b8227-7b2f-4c18-96e8-dfcd20c507d0"/>
      <resource>
         <Observation>
            <id value="584b8227-7b2f-4c18-96e8-dfcd20c507d0"/>
            <meta>
               <profile value="http://hl7.eu/fhir/laboratory/StructureDefinition/Observation-resultslab-eu-lab"/>
            </meta>
            <text>
               <status value="generated"/>
               <div xmlns="http://www.w3.org/1999/xhtml">
                  <table class="hl7__eu__lab__report">
                     <tr>
                        <th>Test</th>
                        <th>05-Aug-2018</th>
                        <th>Reference Range</th>
                        <th>Unit</th>
                     </tr>
                     <tr>
                        <td>Potassium [Moles/volume] in Blood</td>
                        <td>4.7</td>
                        <td>3.5 - 5.1</td>
                        <td/>
                        <td>mmol/L</td>
                     </tr>
                  </table>
               </div>
            </text>
            <status value="final"/>
            <category>
               <coding>
                  <system value="http://terminology.hl7.org/CodeSystem/observation-category"/>
                  <code value="laboratory"/>
               </coding>
            </category>
            <code>
               <coding>
                  <system value="http://loinc.org"/>
                  <code value="6298-4"/>
                  <display value="Potassium [Moles/volume] in Blood"/>
               </coding>
               <text value="Potassium [Moles/volume] in Blood"/>
            </code>
            <subject>
               <reference value="urn:uuid:1d9c1679-c005-43d6-9f2e-93ffd21f5e0d"/>
               <display value="Maria Nohlmans"/>
            </subject>
            <effectiveDateTime value="2018-08-05T20:22:24Z"/>
            <performer>
               <display value="The Central European Lab"/>
            </performer>
            <valueQuantity>
               <value value="4.7"/>
               <unit value="mmol/L"/>
               <system value="http://unitsofmeasure.org"/>
               <code value="mmol/L"/>
            </valueQuantity>
            <specimen>
               <reference value="urn:uuid:e6609335-819c-466a-9c29-f97d93974d79"/>
            </specimen>
            <referenceRange>
               <low>
                  <value value="3.5"/>
                  <system value="http://unitsofmeasure.org"/>
                  <code value="mmol/L"/>
               </low>
            </referenceRange>
            <referenceRange>
               <high>
                  <value value="5.1"/>
                  <system value="http://unitsofmeasure.org"/>
                  <code value="mmol/L"/>
               </high>
            </referenceRange>
         </Observation>
      </resource>
   </entry>
   <entry>
      <fullUrl value="urn:uuid:534b66fd-73ad-4510-9da2-ea2bedab4d15"/>
      <resource>
         <Observation>
            <id value="534b66fd-73ad-4510-9da2-ea2bedab4d15"/>
            <meta>
               <profile value="http://hl7.eu/fhir/laboratory/StructureDefinition/Observation-resultslab-eu-lab"/>
            </meta>
            <text>
               <status value="generated"/>
               <div xmlns="http://www.w3.org/1999/xhtml">
                  <table class="hl7__eu__lab__report">
                     <tr>
                        <th>Test</th>
                        <th>05-Aug-2018</th>
                        <th>Reference Range</th>
                        <th>Unit</th>
                     </tr>
                     <tr>
                        <td>Chloride [Moles/volume] in Blood</td>
                        <td>108.3</td>
                        <td>98 - 114</td>
                        <td/>
                        <td>mmol/L</td>
                     </tr>
                  </table>
               </div>
            </text>
            <status value="final"/>
            <category>
               <coding>
                  <system value="http://terminology.hl7.org/CodeSystem/observation-category"/>
                  <code value="laboratory"/>
               </coding>
            </category>
            <code>
               <coding>
                  <system value="http://loinc.org"/>
                  <code value="2069-3"/>
                  <display value="Chloride [Moles/volume] in Blood"/>
               </coding>
               <text value="Chloride [Moles/volume] in Blood"/>
            </code>
            <subject>
               <reference value="urn:uuid:1d9c1679-c005-43d6-9f2e-93ffd21f5e0d"/>
               <display value="Maria Nohlmans"/>
            </subject>
            <effectiveDateTime value="2018-08-05T20:22:24Z"/>
            <performer>
               <display value="The Central European Lab"/>
            </performer>
            <valueQuantity>
               <value value="108.3"/>
               <unit value="mmol/L"/>
               <system value="http://unitsofmeasure.org"/>
               <code value="mmol/L"/>
            </valueQuantity>
            <specimen>
               <reference value="urn:uuid:e6609335-819c-466a-9c29-f97d93974d79"/>
            </specimen>
            <referenceRange>
               <low>
                  <value value="98"/>
                  <system value="http://unitsofmeasure.org"/>
                  <code value="mmol/L"/>
               </low>
            </referenceRange>
            <referenceRange>
               <high>
                  <value value="114"/>
                  <system value="http://unitsofmeasure.org"/>
                  <code value="mmol/L"/>
               </high>
            </referenceRange>
         </Observation>
      </resource>
   </entry>
   <entry>
      <fullUrl value="urn:uuid:1e651fad-bb01-4f10-8414-c3f17da9ebdb"/>
      <resource>
         <Observation>
            <id value="1e651fad-bb01-4f10-8414-c3f17da9ebdb"/>
            <meta>
               <profile value="http://hl7.eu/fhir/laboratory/StructureDefinition/Observation-resultslab-eu-lab"/>
            </meta>
            <text>
               <status value="generated"/>
               <div xmlns="http://www.w3.org/1999/xhtml">
                  <table class="hl7__eu__lab__report">
                     <tr>
                        <th>Test</th>
                        <th>05-Aug-2018</th>
                        <th>Reference Range</th>
                        <th>Unit</th>
                     </tr>
                     <tr>
                        <td>Carbon dioxide, total [Moles/volume] in Blood</td>
                        <td>21.6</td>
                        <td>22 - 32</td>
                        <td>L</td>
                        <td>mmol/L</td>
                     </tr>
                  </table>
               </div>
            </text>
            <status value="final"/>
            <category>
               <coding>
                  <system value="http://terminology.hl7.org/CodeSystem/observation-category"/>
                  <code value="laboratory"/>
               </coding>
            </category>
            <code>
               <coding>
                  <system value="http://loinc.org"/>
                  <code value="20565-8"/>
                  <display value="Carbon dioxide, total [Moles/volume] in Blood"/>
               </coding>
               <text value="Carbon dioxide, total [Moles/volume] in Blood"/>
            </code>
            <subject>
               <reference value="urn:uuid:1d9c1679-c005-43d6-9f2e-93ffd21f5e0d"/>
               <display value="Maria Nohlmans"/>
            </subject>
            <effectiveDateTime value="2018-08-05T20:22:24Z"/>
            <performer>
               <display value="The Central European Lab"/>
            </performer>
            <valueQuantity>
               <value value="21.6"/>
               <unit value="mmol/L"/>
               <system value="http://unitsofmeasure.org"/>
               <code value="mmol/L"/>
            </valueQuantity>
            <interpretation>
               <coding>
                  <system value="http://terminology.hl7.org/CodeSystem/v3-ObservationInterpretation"/>
                  <code value="L"/>
                  <display value="Low"/>
               </coding>
            </interpretation>
            <specimen>
               <reference value="urn:uuid:e6609335-819c-466a-9c29-f97d93974d79"/>
            </specimen>
            <referenceRange>
               <low>
                  <value value="22"/>
                  <system value="http://unitsofmeasure.org"/>
                  <code value="mmol/L"/>
               </low>
            </referenceRange>
            <referenceRange>
               <high>
                  <value value="32"/>
                  <system value="http://unitsofmeasure.org"/>
                  <code value="mmol/L"/>
               </high>
            </referenceRange>
         </Observation>
      </resource>
   </entry>
   <entry>
      <fullUrl value="urn:uuid:6c420661-0a66-4986-aa37-51c437cb7167"/>
      <resource>
         <Observation>
            <id value="6c420661-0a66-4986-aa37-51c437cb7167"/>
            <meta>
               <profile value="http://hl7.eu/fhir/laboratory/StructureDefinition/Observation-resultslab-eu-lab"/>
            </meta>
            <text>
               <status value="generated"/>
               <div xmlns="http://www.w3.org/1999/xhtml">
                  <table class="hl7__eu__lab__report">
                     <tr>
                        <th>Test</th>
                        <th>05-Aug-2018</th>
                        <th>Reference Range</th>
                        <th>Unit</th>
                     </tr>
                     <tr>
                        <td>Leukocytes [#/volume] in Blood by Automated count</td>
                        <td>9.9</td>
                        <td>4 - 11</td>
                        <td/>
                        <td>10*3/uL</td>
                     </tr>
                  </table>
               </div>
            </text>
            <status value="final"/>
            <category>
               <coding>
                  <system value="http://terminology.hl7.org/CodeSystem/observation-category"/>
                  <code value="laboratory"/>
               </coding>
            </category>
            <code>
               <coding>
                  <system value="http://loinc.org"/>
                  <code value="6690-2"/>
                  <display value="Leukocytes [#/volume] in Blood by Automated count"/>
               </coding>
               <text value="Leukocytes [#/volume] in Blood by Automated count"/>
            </code>
            <subject>
               <reference value="urn:uuid:1d9c1679-c005-43d6-9f2e-93ffd21f5e0d"/>
               <display value="Maria Nohlmans"/>
            </subject>
            <effectiveDateTime value="2018-08-05T20:22:24Z"/>
            <performer>
               <display value="The Central European Lab"/>
            </performer>
            <valueQuantity>
               <value value="9.9"/>
               <unit value="10*3/uL"/>
               <system value="http://unitsofmeasure.org"/>
               <code value="10*3/uL"/>
            </valueQuantity>
            <specimen>
               <reference value="urn:uuid:e6609335-819c-466a-9c29-f97d93974d79"/>
            </specimen>
            <referenceRange>
               <low>
                  <value value="4"/>
                  <system value="http://unitsofmeasure.org"/>
                  <code value="10*3/uL"/>
               </low>
            </referenceRange>
            <referenceRange>
               <high>
                  <value value="11"/>
                  <system value="http://unitsofmeasure.org"/>
                  <code value="10*3/uL"/>
               </high>
            </referenceRange>
         </Observation>
      </resource>
   </entry>
   <entry>
      <fullUrl value="urn:uuid:9e4713fd-2019-429d-8f21-a972fa1fb140"/>
      <resource>
         <Observation>
            <id value="9e4713fd-2019-429d-8f21-a972fa1fb140"/>
            <meta>
               <profile value="http://hl7.eu/fhir/laboratory/StructureDefinition/Observation-resultslab-eu-lab"/>
            </meta>
            <text>
               <status value="generated"/>
               <div xmlns="http://www.w3.org/1999/xhtml">
                  <table class="hl7__eu__lab__report">
                     <tr>
                        <th>Test</th>
                        <th>05-Aug-2018</th>
                        <th>Reference Range</th>
                        <th>Unit</th>
                     </tr>
                     <tr>
                        <td>Erythrocytes [#/volume] in Blood by Automated count</td>
                        <td>4.5</td>
                        <td>3.9 - 5.2</td>
                        <td/>
                        <td>10*6/uL</td>
                     </tr>
                  </table>
               </div>
            </text>
            <status value="final"/>
            <category>
               <coding>
                  <system value="http://terminology.hl7.org/CodeSystem/observation-category"/>
                  <code value="laboratory"/>
               </coding>
            </category>
            <code>
               <coding>
                  <system value="http://loinc.org"/>
                  <code value="789-8"/>
                  <display value="Erythrocytes [#/volume] in Blood by Automated count"/>
               </coding>
               <text value="Erythrocytes [#/volume] in Blood by Automated count"/>
            </code>
            <subject>
               <reference value="urn:uuid:1d9c1679-c005-43d6-9f2e-93ffd21f5e0d"/>
               <display value="Maria Nohlmans"/>
            </subject>
            <effectiveDateTime value="2018-08-05T20:22:24Z"/>
            <performer>
               <display value="The Central European Lab"/>
            </performer>
            <valueQuantity>
               <value value="4.5"/>
               <unit value="10*6/uL"/>
               <system value="http://unitsofmeasure.org"/>
               <code value="10*6/uL"/>
            </valueQuantity>
            <specimen>
               <reference value="urn:uuid:e6609335-819c-466a-9c29-f97d93974d79"/>
            </specimen>
            <referenceRange>
               <low>
                  <value value="3.9"/>
                  <system value="http://unitsofmeasure.org"/>
                  <code value="10*6/uL"/>
               </low>
            </referenceRange>
            <referenceRange>
               <high>
                  <value value="5.2"/>
                  <system value="http://unitsofmeasure.org"/>
                  <code value="10*6/uL"/>
               </high>
            </referenceRange>
         </Observation>
      </resource>
   </entry>
   <entry>
      <fullUrl value="urn:uuid:8ea83800-8787-47cf-a44e-e25e0689e4b1"/>
      <resource>
         <Observation>
            <id value="8ea83800-8787-47cf-a44e-e25e0689e4b1"/>
            <meta>
               <profile value="http://hl7.eu/fhir/laboratory/StructureDefinition/Observation-resultslab-eu-lab"/>
            </meta>
            <text>
               <status value="generated"/>
               <div xmlns="http://www.w3.org/1999/xhtml">
                  <table class="hl7__eu__lab__report">
                     <tr>
                        <th>Test</th>
                        <th>05-Aug-2018</th>
                        <th>Reference Range</th>
                        <th>Unit</th>
                     </tr>
                     <tr>
                        <td>Hemoglobin [Mass/volume] in Blood</td>
                        <td>16.3</td>
                        <td>12 - 15.5</td>
                        <td>H</td>
                        <td>g/dL</td>
                     </tr>
                  </table>
               </div>
            </text>
            <status value="final"/>
            <category>
               <coding>
                  <system value="http://terminology.hl7.org/CodeSystem/observation-category"/>
                  <code value="laboratory"/>
               </coding>
            </category>
            <code>
               <coding>
                  <system value="http://loinc.org"/>
                  <code value="718-7"/>
                  <display value="Hemoglobin [Mass/volume] in Blood"/>
               </coding>
               <text value="Hemoglobin [Mass/volume] in Blood"/>
            </code>
            <subject>
               <reference value="urn:uuid:1d9c1679-c005-43d6-9f2e-93ffd21f5e0d"/>
               <display value="Maria Nohlmans"/>
            </subject>
            <effectiveDateTime value="2018-08-05T20:22:24Z"/>
            <performer>
               <display value="The Central European Lab"/>
            </performer>
            <valueQuantity>
               <value value="16.3"/>
               <unit value="g/dL"/>
               <system value="http://unitsofmeasure.org"/>
               <code value="g/dL"/>
            </valueQuantity>
            <interpretation>
               <coding>
                  <system value="http://terminology.hl7.org/CodeSystem/v3-ObservationInterpretation"/>
                  <code value="H"/>
                  <display value="High"/>
               </coding>
            </interpretation>
            <specimen>
               <reference value="urn:uuid:e6609335-819c-466a-9c29-f97d93974d79"/>
            </specimen>
            <referenceRange>
               <low>
                  <value value="12"/>
                  <system value="http://unitsofmeasure.org"/>
                  <code value="g/dL"/>
               </low>
            </referenceRange>
            <referenceRange>
               <high>
                  <value value="15.5"/>
                  <system value="http://unitsofmeasure.org"/>
                  <code value="g/dL"/>
               </high>
            </referenceRange>
         </Observation>
      </resource>
   </entry>
   <entry>
      <fullUrl value="urn:uuid:dd6d0cfe-3fe8-46a2-980c-7031a0359a78"/>
      <resource>
         <Observation>
            <id value="dd6d0cfe-3fe8-46a2-980c-7031a0359a78"/>
            <meta>
               <profile value="http://hl7.eu/fhir/laboratory/StructureDefinition/Observation-resultslab-eu-lab"/>
            </meta>
            <text>
               <status value="generated"/>
               <div xmlns="http://www.w3.org/1999/xhtml">
                  <table class="hl7__eu__lab__report">
                     <tr>
                        <th>Test</th>
                        <th>05-Aug-2018</th>
                        <th>Reference Range</th>
                        <th>Unit</th>
                     </tr>
                     <tr>
                        <td>Hematocrit [Volume Fraction] of Blood by Automated count</td>
                        <td>46.0</td>
                        <td>38 - 54</td>
                        <td/>
                        <td>%</td>
                     </tr>
                  </table>
               </div>
            </text>
            <status value="final"/>
            <category>
               <coding>
                  <system value="http://terminology.hl7.org/CodeSystem/observation-category"/>
                  <code value="laboratory"/>
               </coding>
            </category>
            <code>
               <coding>
                  <system value="http://loinc.org"/>
                  <code value="4544-3"/>
                  <display value="Hematocrit [Volume Fraction] of Blood by Automated count"/>
               </coding>
               <text value="Hematocrit [Volume Fraction] of Blood by Automated count"/>
            </code>
            <subject>
               <reference value="urn:uuid:1d9c1679-c005-43d6-9f2e-93ffd21f5e0d"/>
               <display value="Maria Nohlmans"/>
            </subject>
            <effectiveDateTime value="2018-08-05T20:22:24Z"/>
            <performer>
               <display value="The Central European Lab"/>
            </performer>
            <valueQuantity>
               <value value="46"/>
               <unit value="%"/>
               <system value="http://unitsofmeasure.org"/>
               <code value="%"/>
            </valueQuantity>
            <specimen>
               <reference value="urn:uuid:e6609335-819c-466a-9c29-f97d93974d79"/>
            </specimen>
            <referenceRange>
               <low>
                  <value value="38"/>
                  <system value="http://unitsofmeasure.org"/>
                  <code value="%"/>
               </low>
            </referenceRange>
            <referenceRange>
               <high>
                  <value value="54"/>
                  <system value="http://unitsofmeasure.org"/>
                  <code value="%"/>
               </high>
            </referenceRange>
         </Observation>
      </resource>
   </entry>
   <entry>
      <fullUrl value="urn:uuid:a6bd62cc-cb61-4de6-9853-8998d97e8bc1"/>
      <resource>
         <Observation>
            <id value="a6bd62cc-cb61-4de6-9853-8998d97e8bc1"/>
            <meta>
               <profile value="http://hl7.eu/fhir/laboratory/StructureDefinition/Observation-resultslab-eu-lab"/>
            </meta>
            <text>
               <status value="generated"/>
               <div xmlns="http://www.w3.org/1999/xhtml">
                  <table class="hl7__eu__lab__report">
                     <tr>
                        <th>Test</th>
                        <th>05-Aug-2018</th>
                        <th>Reference Range</th>
                        <th>Unit</th>
                     </tr>
                     <tr>
                        <td>MCV [Entitic volume] by Automated count</td>
                        <td>89.9</td>
                        <td>78 - 98</td>
                        <td/>
                        <td>fL</td>
                     </tr>
                  </table>
               </div>
            </text>
            <status value="final"/>
            <category>
               <coding>
                  <system value="http://terminology.hl7.org/CodeSystem/observation-category"/>
                  <code value="laboratory"/>
               </coding>
            </category>
            <code>
               <coding>
                  <system value="http://loinc.org"/>
                  <code value="787-2"/>
                  <display value="MCV [Entitic volume] by Automated count"/>
               </coding>
               <text value="MCV [Entitic volume] by Automated count"/>
            </code>
            <subject>
               <reference value="urn:uuid:1d9c1679-c005-43d6-9f2e-93ffd21f5e0d"/>
               <display value="Maria Nohlmans"/>
            </subject>
            <effectiveDateTime value="2018-08-05T20:22:24Z"/>
            <performer>
               <display value="The Central European Lab"/>
            </performer>
            <valueQuantity>
               <value value="89.9"/>
               <unit value="fL"/>
               <system value="http://unitsofmeasure.org"/>
               <code value="fL"/>
            </valueQuantity>
            <specimen>
               <reference value="urn:uuid:e6609335-819c-466a-9c29-f97d93974d79"/>
            </specimen>
            <referenceRange>
               <low>
                  <value value="78"/>
                  <system value="http://unitsofmeasure.org"/>
                  <code value="fL"/>
               </low>
            </referenceRange>
            <referenceRange>
               <high>
                  <value value="98"/>
                  <system value="http://unitsofmeasure.org"/>
                  <code value="fL"/>
               </high>
            </referenceRange>
         </Observation>
      </resource>
   </entry>
   <entry>
      <fullUrl value="urn:uuid:6f8a4358-48ca-4e10-a1e3-d8b2f2125649"/>
      <resource>
         <Observation>
            <id value="6f8a4358-48ca-4e10-a1e3-d8b2f2125649"/>
            <meta>
               <profile value="http://hl7.eu/fhir/laboratory/StructureDefinition/Observation-resultslab-eu-lab"/>
            </meta>
            <text>
               <status value="generated"/>
               <div xmlns="http://www.w3.org/1999/xhtml">
                  <table class="hl7__eu__lab__report">
                     <tr>
                        <th>Test</th>
                        <th>05-Aug-2018</th>
                        <th>Reference Range</th>
                        <th>Unit</th>
                     </tr>
                     <tr>
                        <td>MCH [Entitic mass] by Automated count</td>
                        <td>29.3</td>
                        <td>27 - 33</td>
                        <td/>
                        <td>pg</td>
                     </tr>
                  </table>
               </div>
            </text>
            <status value="final"/>
            <category>
               <coding>
                  <system value="http://terminology.hl7.org/CodeSystem/observation-category"/>
                  <code value="laboratory"/>
               </coding>
            </category>
            <code>
               <coding>
                  <system value="http://loinc.org"/>
                  <code value="785-6"/>
                  <display value="MCH [Entitic mass] by Automated count"/>
               </coding>
               <text value="MCH [Entitic mass] by Automated count"/>
            </code>
            <subject>
               <reference value="urn:uuid:1d9c1679-c005-43d6-9f2e-93ffd21f5e0d"/>
               <display value="Maria Nohlmans"/>
            </subject>
            <effectiveDateTime value="2018-08-05T20:22:24Z"/>
            <performer>
               <display value="The Central European Lab"/>
            </performer>
            <valueQuantity>
               <value value="29.3"/>
               <unit value="pg"/>
               <system value="http://unitsofmeasure.org"/>
               <code value="pg"/>
            </valueQuantity>
            <specimen>
               <reference value="urn:uuid:e6609335-819c-466a-9c29-f97d93974d79"/>
            </specimen>
            <referenceRange>
               <low>
                  <value value="27"/>
                  <system value="http://unitsofmeasure.org"/>
                  <code value="pg"/>
               </low>
            </referenceRange>
            <referenceRange>
               <high>
                  <value value="33"/>
                  <system value="http://unitsofmeasure.org"/>
                  <code value="pg"/>
               </high>
            </referenceRange>
         </Observation>
      </resource>
   </entry>
   <entry>
      <fullUrl value="urn:uuid:9f31561a-c450-45fa-b7d7-1fafe7941aca"/>
      <resource>
         <Observation>
            <id value="9f31561a-c450-45fa-b7d7-1fafe7941aca"/>
            <meta>
               <profile value="http://hl7.eu/fhir/laboratory/StructureDefinition/Observation-resultslab-eu-lab"/>
            </meta>
            <text>
               <status value="generated"/>
               <div xmlns="http://www.w3.org/1999/xhtml">
                  <table class="hl7__eu__lab__report">
                     <tr>
                        <th>Test</th>
                        <th>05-Aug-2018</th>
                        <th>Reference Range</th>
                        <th>Unit</th>
                     </tr>
                     <tr>
                        <td>MCHC [Mass/volume] by Automated count</td>
                        <td>35.5</td>
                        <td>31 - 35</td>
                        <td>H</td>
                        <td>g/dL</td>
                     </tr>
                  </table>
               </div>
            </text>
            <status value="final"/>
            <category>
               <coding>
                  <system value="http://terminology.hl7.org/CodeSystem/observation-category"/>
                  <code value="laboratory"/>
               </coding>
            </category>
            <code>
               <coding>
                  <system value="http://loinc.org"/>
                  <code value="786-4"/>
                  <display value="MCHC [Mass/volume] by Automated count"/>
               </coding>
               <text value="MCHC [Mass/volume] by Automated count"/>
            </code>
            <subject>
               <reference value="urn:uuid:1d9c1679-c005-43d6-9f2e-93ffd21f5e0d"/>
               <display value="Maria Nohlmans"/>
            </subject>
            <effectiveDateTime value="2018-08-05T20:22:24Z"/>
            <performer>
               <display value="The Central European Lab"/>
            </performer>
            <valueQuantity>
               <value value="35.5"/>
               <unit value="g/dL"/>
               <system value="http://unitsofmeasure.org"/>
               <code value="g/dL"/>
            </valueQuantity>
            <interpretation>
               <coding>
                  <system value="http://terminology.hl7.org/CodeSystem/v3-ObservationInterpretation"/>
                  <code value="H"/>
                  <display value="High"/>
               </coding>
            </interpretation>
            <specimen>
               <reference value="urn:uuid:e6609335-819c-466a-9c29-f97d93974d79"/>
            </specimen>
            <referenceRange>
               <low>
                  <value value="31"/>
                  <system value="http://unitsofmeasure.org"/>
                  <code value="g/dL"/>
               </low>
            </referenceRange>
            <referenceRange>
               <high>
                  <value value="35"/>
                  <system value="http://unitsofmeasure.org"/>
                  <code value="g/dL"/>
               </high>
            </referenceRange>
         </Observation>
      </resource>
   </entry>
   <entry>
      <fullUrl value="urn:uuid:078ca8f3-4920-49c1-be7b-4670c236fed9"/>
      <resource>
         <Observation>
            <id value="078ca8f3-4920-49c1-be7b-4670c236fed9"/>
            <meta>
               <profile value="http://hl7.eu/fhir/laboratory/StructureDefinition/Observation-resultslab-eu-lab"/>
            </meta>
            <text>
               <status value="generated"/>
               <div xmlns="http://www.w3.org/1999/xhtml">
                  <table class="hl7__eu__lab__report">
                     <tr>
                        <th>Test</th>
                        <th>05-Aug-2018</th>
                        <th>Reference Range</th>
                        <th>Unit</th>
                     </tr>
                     <tr>
                        <td>Erythrocyte distribution width [Entitic volume] by Automated count</td>
                        <td>42.7</td>
                        <td>36 - 56</td>
                        <td/>
                        <td>fL</td>
                     </tr>
                  </table>
               </div>
            </text>
            <status value="final"/>
            <category>
               <coding>
                  <system value="http://terminology.hl7.org/CodeSystem/observation-category"/>
                  <code value="laboratory"/>
               </coding>
            </category>
            <code>
               <coding>
                  <system value="http://loinc.org"/>
                  <code value="21000-5"/>
                  <display value="Erythrocyte distribution width [Entitic volume] by Automated count"/>
               </coding>
               <text value="Erythrocyte distribution width [Entitic volume] by Automated count"/>
            </code>
            <subject>
               <reference value="urn:uuid:1d9c1679-c005-43d6-9f2e-93ffd21f5e0d"/>
               <display value="Maria Nohlmans"/>
            </subject>
            <effectiveDateTime value="2018-08-05T20:22:24Z"/>
            <performer>
               <display value="The Central European Lab"/>
            </performer>
            <valueQuantity>
               <value value="42.7"/>
               <unit value="fL"/>
               <system value="http://unitsofmeasure.org"/>
               <code value="fL"/>
            </valueQuantity>
            <specimen>
               <reference value="urn:uuid:e6609335-819c-466a-9c29-f97d93974d79"/>
            </specimen>
            <referenceRange>
               <low>
                  <value value="36"/>
                  <system value="http://unitsofmeasure.org"/>
                  <code value="fL"/>
               </low>
            </referenceRange>
            <referenceRange>
               <high>
                  <value value="56"/>
                  <system value="http://unitsofmeasure.org"/>
                  <code value="fL"/>
               </high>
            </referenceRange>
         </Observation>
      </resource>
   </entry>
   <entry>
      <fullUrl value="urn:uuid:b51f1a45-dd16-41d3-8e3f-ea0e0a310935"/>
      <resource>
         <Observation>
            <id value="b51f1a45-dd16-41d3-8e3f-ea0e0a310935"/>
            <meta>
               <profile value="http://hl7.eu/fhir/laboratory/StructureDefinition/Observation-resultslab-eu-lab"/>
            </meta>
            <text>
               <status value="generated"/>
               <div xmlns="http://www.w3.org/1999/xhtml">
                  <table class="hl7__eu__lab__report">
                     <tr>
                        <th>Test</th>
                        <th>05-Aug-2018</th>
                        <th>Reference Range</th>
                        <th>Unit</th>
                     </tr>
                     <tr>
                        <td>Platelets [#/volume] in Blood by Automated count</td>
                        <td>185.4</td>
                        <td>150 - 450</td>
                        <td/>
                        <td>10*3/uL</td>
                     </tr>
                  </table>
               </div>
            </text>
            <status value="final"/>
            <category>
               <coding>
                  <system value="http://terminology.hl7.org/CodeSystem/observation-category"/>
                  <code value="laboratory"/>
               </coding>
            </category>
            <code>
               <coding>
                  <system value="http://loinc.org"/>
                  <code value="777-3"/>
                  <display value="Platelets [#/volume] in Blood by Automated count"/>
               </coding>
               <text value="Platelets [#/volume] in Blood by Automated count"/>
            </code>
            <subject>
               <reference value="urn:uuid:1d9c1679-c005-43d6-9f2e-93ffd21f5e0d"/>
               <display value="Maria Nohlmans"/>
            </subject>
            <effectiveDateTime value="2018-08-05T20:22:24Z"/>
            <performer>
               <display value="The Central European Lab"/>
            </performer>
            <valueQuantity>
               <value value="185.4"/>
               <unit value="10*3/uL"/>
               <system value="http://unitsofmeasure.org"/>
               <code value="10*3/uL"/>
            </valueQuantity>
            <specimen>
               <reference value="urn:uuid:e6609335-819c-466a-9c29-f97d93974d79"/>
            </specimen>
            <referenceRange>
               <low>
                  <value value="150"/>
                  <system value="http://unitsofmeasure.org"/>
                  <code value="10*3/uL"/>
               </low>
            </referenceRange>
            <referenceRange>
               <high>
                  <value value="450"/>
                  <system value="http://unitsofmeasure.org"/>
                  <code value="10*3/uL"/>
               </high>
            </referenceRange>
         </Observation>
      </resource>
   </entry>
   <entry>
      <fullUrl value="urn:uuid:f9278025-10f4-491d-ad50-73e9e60a061c"/>
      <resource>
         <Observation>
            <id value="f9278025-10f4-491d-ad50-73e9e60a061c"/>
            <meta>
               <profile value="http://hl7.eu/fhir/laboratory/StructureDefinition/Observation-resultslab-eu-lab"/>
            </meta>
            <text>
               <status value="generated"/>
               <div xmlns="http://www.w3.org/1999/xhtml">
                  <table class="hl7__eu__lab__report">
                     <tr>
                        <th>Test</th>
                        <th>05-Aug-2018</th>
                        <th>Reference Range</th>
                        <th>Unit</th>
                     </tr>
                     <tr>
                        <td>Platelet distribution width [Entitic volume] in Blood by Automated count</td>
                        <td>177.0</td>
                        <td>15.5 - 450</td>
                        <td/>
                        <td>fL</td>
                     </tr>
                  </table>
               </div>
            </text>
            <status value="final"/>
            <category>
               <coding>
                  <system value="http://terminology.hl7.org/CodeSystem/observation-category"/>
                  <code value="laboratory"/>
               </coding>
            </category>
            <code>
               <coding>
                  <system value="http://loinc.org"/>
                  <code value="32207-3"/>
                  <display value="Platelet distribution width [Entitic volume] in Blood by Automated count"/>
               </coding>
               <text value="Platelet distribution width [Entitic volume] in Blood by Automated count"/>
            </code>
            <subject>
               <reference value="urn:uuid:1d9c1679-c005-43d6-9f2e-93ffd21f5e0d"/>
               <display value="Maria Nohlmans"/>
            </subject>
            <effectiveDateTime value="2018-08-05T20:22:24Z"/>
            <performer>
               <display value="The Central European Lab"/>
            </performer>
            <valueQuantity>
               <value value="177"/>
               <unit value="fL"/>
               <system value="http://unitsofmeasure.org"/>
               <code value="fL"/>
            </valueQuantity>
            <specimen>
               <reference value="urn:uuid:e6609335-819c-466a-9c29-f97d93974d79"/>
            </specimen>
            <referenceRange>
               <low>
                  <value value="15.5"/>
                  <system value="http://unitsofmeasure.org"/>
                  <code value="fL"/>
               </low>
            </referenceRange>
            <referenceRange>
               <high>
                  <value value="450"/>
                  <system value="http://unitsofmeasure.org"/>
                  <code value="fL"/>
               </high>
            </referenceRange>
         </Observation>
      </resource>
   </entry>
   <entry>
      <fullUrl value="urn:uuid:2492d01f-d2e0-41c3-ab8a-37ebf998b538"/>
      <resource>
         <Observation>
            <id value="2492d01f-d2e0-41c3-ab8a-37ebf998b538"/>
            <meta>
               <profile value="http://hl7.eu/fhir/laboratory/StructureDefinition/Observation-resultslab-eu-lab"/>
            </meta>
            <text>
               <status value="generated"/>
               <div xmlns="http://www.w3.org/1999/xhtml">
                  <table class="hl7__eu__lab__report">
                     <tr>
                        <th>Test</th>
                        <th>05-Aug-2018</th>
                        <th>Reference Range</th>
                        <th>Unit</th>
                     </tr>
                     <tr>
                        <td>Platelet mean volume [Entitic volume] in Blood by Automated count</td>
                        <td>10.8</td>
                        <td>7.2 - 13.5</td>
                        <td/>
                        <td>fL</td>
                     </tr>
                  </table>
               </div>
            </text>
            <status value="final"/>
            <category>
               <coding>
                  <system value="http://terminology.hl7.org/CodeSystem/observation-category"/>
                  <code value="laboratory"/>
               </coding>
            </category>
            <code>
               <coding>
                  <system value="http://loinc.org"/>
                  <code value="32623-1"/>
                  <display value="Platelet mean volume [Entitic volume] in Blood by Automated count"/>
               </coding>
               <text value="Platelet mean volume [Entitic volume] in Blood by Automated count"/>
            </code>
            <subject>
               <reference value="urn:uuid:1d9c1679-c005-43d6-9f2e-93ffd21f5e0d"/>
               <display value="Maria Nohlmans"/>
            </subject>
            <effectiveDateTime value="2018-08-05T20:22:24Z"/>
            <performer>
               <display value="The Central European Lab"/>
            </performer>
            <valueQuantity>
               <value value="10.8"/>
               <unit value="fL"/>
               <system value="http://unitsofmeasure.org"/>
               <code value="fL"/>
            </valueQuantity>
            <specimen>
               <reference value="urn:uuid:e6609335-819c-466a-9c29-f97d93974d79"/>
            </specimen>
            <referenceRange>
               <low>
                  <value value="7.2"/>
                  <system value="http://unitsofmeasure.org"/>
                  <code value="fL"/>
               </low>
            </referenceRange>
            <referenceRange>
               <high>
                  <value value="13.5"/>
                  <system value="http://unitsofmeasure.org"/>
                  <code value="fL"/>
               </high>
            </referenceRange>
         </Observation>
      </resource>
   </entry>
   <entry>
      <fullUrl value="urn:uuid:a19f57fe-d40e-4929-a6fe-2ac4a042152a"/>
      <resource>
         <Observation>
            <id value="a19f57fe-d40e-4929-a6fe-2ac4a042152a"/>
            <meta>
               <profile value="http://hl7.eu/fhir/laboratory/StructureDefinition/Observation-resultslab-eu-lab"/>
            </meta>
            <text>
               <status value="generated"/>
               <div xmlns="http://www.w3.org/1999/xhtml">
                  <table class="hl7__eu__lab__report">
                     <tr>
                        <th>Test</th>
                        <th>05-Aug-2018</th>
                        <th>Reference Range</th>
                        <th>Unit</th>
                     </tr>
                     <tr>
                        <td>Glucose [Presence] in Urine by Test strip</td>
                        <td>0.0</td>
                        <td>0 - 0</td>
                        <td/>
                        <td>{presence}</td>
                     </tr>
                  </table>
               </div>
            </text>
            <status value="final"/>
            <category>
               <coding>
                  <system value="http://terminology.hl7.org/CodeSystem/observation-category"/>
                  <code value="laboratory"/>
               </coding>
            </category>
            <code>
               <coding>
                  <system value="http://loinc.org"/>
                  <code value="25428-4"/>
                  <display value="Glucose [Presence] in Urine by Test strip"/>
               </coding>
               <text value="Glucose [Presence] in Urine by Test strip"/>
            </code>
            <subject>
               <reference value="urn:uuid:1d9c1679-c005-43d6-9f2e-93ffd21f5e0d"/>
               <display value="Maria Nohlmans"/>
            </subject>
            <effectiveDateTime value="2018-08-05T20:22:24Z"/>
            <performer>
               <display value="The Central European Lab"/>
            </performer>
            <valueQuantity>
               <value value="0"/>
               <unit value="{presence}"/>
               <system value="http://unitsofmeasure.org"/>
               <code value="{presence}"/>
            </valueQuantity>
            <specimen>
               <reference value="urn:uuid:4ce3a092-7250-488b-97f7-dbcefd1d21ca"/>
            </specimen>
            <referenceRange>
               <low>
                  <value value="0"/>
                  <system value="http://unitsofmeasure.org"/>
                  <code value="Presence"/>
               </low>
            </referenceRange>
            <referenceRange>
               <high>
                  <value value="0"/>
                  <system value="http://unitsofmeasure.org"/>
                  <code value="Presence"/>
               </high>
            </referenceRange>
         </Observation>
      </resource>
   </entry>
   <entry>
      <fullUrl value="urn:uuid:1f3f883f-cde8-4149-bd6b-4d270f6a9061"/>
      <resource>
         <Observation>
            <id value="1f3f883f-cde8-4149-bd6b-4d270f6a9061"/>
            <meta>
               <profile value="http://hl7.eu/fhir/laboratory/StructureDefinition/Observation-resultslab-eu-lab"/>
            </meta>
            <text>
               <status value="generated"/>
               <div xmlns="http://www.w3.org/1999/xhtml">
                  <table class="hl7__eu__lab__report">
                     <tr>
                        <th>Test</th>
                        <th>05-Aug-2018</th>
                        <th>Reference Range</th>
                        <th>Unit</th>
                     </tr>
                     <tr>
                        <td>Bilirubin.total [Presence] in Urine by Test strip</td>
                        <td>0.0</td>
                        <td>0 - 0</td>
                        <td/>
                        <td>{presence}</td>
                     </tr>
                  </table>
               </div>
            </text>
            <status value="final"/>
            <category>
               <coding>
                  <system value="http://terminology.hl7.org/CodeSystem/observation-category"/>
                  <code value="laboratory"/>
               </coding>
            </category>
            <code>
               <coding>
                  <system value="http://loinc.org"/>
                  <code value="5770-3"/>
                  <display value="Bilirubin.total [Presence] in Urine by Test strip"/>
               </coding>
               <text value="Bilirubin.total [Presence] in Urine by Test strip"/>
            </code>
            <subject>
               <reference value="urn:uuid:1d9c1679-c005-43d6-9f2e-93ffd21f5e0d"/>
               <display value="Maria Nohlmans"/>
            </subject>
            <effectiveDateTime value="2018-08-05T20:22:24Z"/>
            <performer>
               <display value="The Central European Lab"/>
            </performer>
            <valueQuantity>
               <value value="0"/>
               <unit value="{presence}"/>
               <system value="http://unitsofmeasure.org"/>
               <code value="{presence}"/>
            </valueQuantity>
            <specimen>
               <reference value="urn:uuid:4ce3a092-7250-488b-97f7-dbcefd1d21ca"/>
            </specimen>
            <referenceRange>
               <low>
                  <value value="0"/>
                  <system value="http://unitsofmeasure.org"/>
                  <code value="mg/dL"/>
               </low>
            </referenceRange>
            <referenceRange>
               <high>
                  <value value="0"/>
                  <system value="http://unitsofmeasure.org"/>
                  <code value="mg/dL"/>
               </high>
            </referenceRange>
         </Observation>
      </resource>
   </entry>
   <entry>
      <fullUrl value="urn:uuid:c87f50c1-dc0e-410e-baf2-273985c78524"/>
      <resource>
         <Observation>
            <id value="c87f50c1-dc0e-410e-baf2-273985c78524"/>
            <meta>
               <profile value="http://hl7.eu/fhir/laboratory/StructureDefinition/Observation-resultslab-eu-lab"/>
            </meta>
            <text>
               <status value="generated"/>
               <div xmlns="http://www.w3.org/1999/xhtml">
                  <table class="hl7__eu__lab__report">
                     <tr>
                        <th>Test</th>
                        <th>05-Aug-2018</th>
                        <th>Reference Range</th>
                        <th>Unit</th>
                     </tr>
                     <tr>
                        <td>Ketones [Presence] in Urine by Test strip</td>
                        <td>0.0</td>
                        <td>0 - 0</td>
                        <td/>
                        <td>{presence}</td>
                     </tr>
                  </table>
               </div>
            </text>
            <status value="final"/>
            <category>
               <coding>
                  <system value="http://terminology.hl7.org/CodeSystem/observation-category"/>
                  <code value="laboratory"/>
               </coding>
            </category>
            <code>
               <coding>
                  <system value="http://loinc.org"/>
                  <code value="2514-8"/>
                  <display value="Ketones [Presence] in Urine by Test strip"/>
               </coding>
               <text value="Ketones [Presence] in Urine by Test strip"/>
            </code>
            <subject>
               <reference value="urn:uuid:1d9c1679-c005-43d6-9f2e-93ffd21f5e0d"/>
               <display value="Maria Nohlmans"/>
            </subject>
            <effectiveDateTime value="2018-08-05T20:22:24Z"/>
            <performer>
               <display value="The Central European Lab"/>
            </performer>
            <valueQuantity>
               <value value="0"/>
               <unit value="{presence}"/>
               <system value="http://unitsofmeasure.org"/>
               <code value="{presence}"/>
            </valueQuantity>
            <specimen>
               <reference value="urn:uuid:4ce3a092-7250-488b-97f7-dbcefd1d21ca"/>
            </specimen>
            <referenceRange>
               <low>
                  <value value="0"/>
                  <system value="http://unitsofmeasure.org"/>
                  <code value="Presence"/>
               </low>
            </referenceRange>
            <referenceRange>
               <high>
                  <value value="0"/>
                  <system value="http://unitsofmeasure.org"/>
                  <code value="Presence"/>
               </high>
            </referenceRange>
         </Observation>
      </resource>
   </entry>
   <entry>
      <fullUrl value="urn:uuid:1c992aaf-6061-47b9-9d4f-f713d0a05d2e"/>
      <resource>
         <Observation>
            <id value="1c992aaf-6061-47b9-9d4f-f713d0a05d2e"/>
            <meta>
               <profile value="http://hl7.eu/fhir/laboratory/StructureDefinition/Observation-resultslab-eu-lab"/>
            </meta>
            <text>
               <status value="generated"/>
               <div xmlns="http://www.w3.org/1999/xhtml">
                  <table class="hl7__eu__lab__report">
                     <tr>
                        <th>Test</th>
                        <th>05-Aug-2018</th>
                        <th>Reference Range</th>
                        <th>Unit</th>
                     </tr>
                     <tr>
                        <td>Specific gravity of Urine by Test strip</td>
                        <td>1.0</td>
                        <td>1.005 - 1.03</td>
                        <td>L</td>
                        <td>{SG}</td>
                     </tr>
                  </table>
               </div>
            </text>
            <status value="final"/>
            <category>
               <coding>
                  <system value="http://terminology.hl7.org/CodeSystem/observation-category"/>
                  <code value="laboratory"/>
               </coding>
            </category>
            <code>
               <coding>
                  <system value="http://loinc.org"/>
                  <code value="5811-5"/>
                  <display value="Specific gravity of Urine by Test strip"/>
               </coding>
               <text value="Specific gravity of Urine by Test strip"/>
            </code>
            <subject>
               <reference value="urn:uuid:1d9c1679-c005-43d6-9f2e-93ffd21f5e0d"/>
               <display value="Maria Nohlmans"/>
            </subject>
            <effectiveDateTime value="2018-08-05T20:22:24Z"/>
            <performer>
               <display value="The Central European Lab"/>
            </performer>
            <valueQuantity>
               <value value="1"/>
               <unit value="{SG}"/>
               <system value="http://unitsofmeasure.org"/>
               <code value="{SG}"/>
            </valueQuantity>
            <interpretation>
               <coding>
                  <system value="http://terminology.hl7.org/CodeSystem/v3-ObservationInterpretation"/>
                  <code value="L"/>
                  <display value="Low"/>
               </coding>
            </interpretation>
            <specimen>
               <reference value="urn:uuid:4ce3a092-7250-488b-97f7-dbcefd1d21ca"/>
            </specimen>
            <referenceRange>
               <low>
                  <value value="1.005"/>
                  <system value="http://unitsofmeasure.org"/>
                  <code value="SG"/>
               </low>
            </referenceRange>
            <referenceRange>
               <high>
                  <value value="1.03"/>
                  <system value="http://unitsofmeasure.org"/>
                  <code value="SG"/>
               </high>
            </referenceRange>
         </Observation>
      </resource>
   </entry>
   <entry>
      <fullUrl value="urn:uuid:821f0d99-fc6c-4a9c-8ea6-ff04dcf6ffbe"/>
      <resource>
         <Observation>
            <id value="821f0d99-fc6c-4a9c-8ea6-ff04dcf6ffbe"/>
            <meta>
               <profile value="http://hl7.eu/fhir/laboratory/StructureDefinition/Observation-resultslab-eu-lab"/>
            </meta>
            <text>
               <status value="generated"/>
               <div xmlns="http://www.w3.org/1999/xhtml">
                  <table class="hl7__eu__lab__report">
                     <tr>
                        <th>Test</th>
                        <th>05-Aug-2018</th>
                        <th>Reference Range</th>
                        <th>Unit</th>
                     </tr>
                     <tr>
                        <td>pH of Urine by Test strip</td>
                        <td>4.8</td>
                        <td>4.5 - 7.5</td>
                        <td/>
                        <td>[pH]</td>
                     </tr>
                  </table>
               </div>
            </text>
            <status value="final"/>
            <category>
               <coding>
                  <system value="http://terminology.hl7.org/CodeSystem/observation-category"/>
                  <code value="laboratory"/>
               </coding>
            </category>
            <code>
               <coding>
                  <system value="http://loinc.org"/>
                  <code value="5803-2"/>
                  <display value="pH of Urine by Test strip"/>
               </coding>
               <text value="pH of Urine by Test strip"/>
            </code>
            <subject>
               <reference value="urn:uuid:1d9c1679-c005-43d6-9f2e-93ffd21f5e0d"/>
               <display value="Maria Nohlmans"/>
            </subject>
            <effectiveDateTime value="2018-08-05T20:22:24Z"/>
            <performer>
               <display value="The Central European Lab"/>
            </performer>
            <valueQuantity>
               <value value="4.8"/>
               <unit value="[pH]"/>
               <system value="http://unitsofmeasure.org"/>
               <code value="[pH]"/>
            </valueQuantity>
            <specimen>
               <reference value="urn:uuid:4ce3a092-7250-488b-97f7-dbcefd1d21ca"/>
            </specimen>
            <referenceRange>
               <low>
                  <value value="4.5"/>
                  <system value="http://unitsofmeasure.org"/>
                  <code value="pH"/>
               </low>
            </referenceRange>
            <referenceRange>
               <high>
                  <value value="7.5"/>
                  <system value="http://unitsofmeasure.org"/>
                  <code value="pH"/>
               </high>
            </referenceRange>
         </Observation>
      </resource>
   </entry>
   <entry>
      <fullUrl value="urn:uuid:b69a0433-d968-41cf-bb1f-ee40af5fc1ed"/>
      <resource>
         <Observation>
            <id value="b69a0433-d968-41cf-bb1f-ee40af5fc1ed"/>
            <meta>
               <profile value="http://hl7.eu/fhir/laboratory/StructureDefinition/Observation-resultslab-eu-lab"/>
            </meta>
            <text>
               <status value="generated"/>
               <div xmlns="http://www.w3.org/1999/xhtml">
                  <table class="hl7__eu__lab__report">
                     <tr>
                        <th>Test</th>
                        <th>05-Aug-2018</th>
                        <th>Reference Range</th>
                        <th>Unit</th>
                     </tr>
                     <tr>
                        <td>Protein [Presence] in Urine by Test strip</td>
                        <td>0.0</td>
                        <td>0 - 0</td>
                        <td/>
                        <td>{presence}</td>
                     </tr>
                  </table>
               </div>
            </text>
            <status value="final"/>
            <category>
               <coding>
                  <system value="http://terminology.hl7.org/CodeSystem/observation-category"/>
                  <code value="laboratory"/>
               </coding>
            </category>
            <code>
               <coding>
                  <system value="http://loinc.org"/>
                  <code value="20454-5"/>
                  <display value="Protein [Presence] in Urine by Test strip"/>
               </coding>
               <text value="Protein [Presence] in Urine by Test strip"/>
            </code>
            <subject>
               <reference value="urn:uuid:1d9c1679-c005-43d6-9f2e-93ffd21f5e0d"/>
               <display value="Maria Nohlmans"/>
            </subject>
            <effectiveDateTime value="2018-08-05T20:22:24Z"/>
            <performer>
               <display value="The Central European Lab"/>
            </performer>
            <valueQuantity>
               <value value="0"/>
               <unit value="{presence}"/>
               <system value="http://unitsofmeasure.org"/>
               <code value="{presence}"/>
            </valueQuantity>
            <specimen>
               <reference value="urn:uuid:4ce3a092-7250-488b-97f7-dbcefd1d21ca"/>
            </specimen>
            <referenceRange>
               <low>
                  <value value="0"/>
                  <system value="http://unitsofmeasure.org"/>
                  <code value="Presence"/>
               </low>
            </referenceRange>
            <referenceRange>
               <high>
                  <value value="0"/>
                  <system value="http://unitsofmeasure.org"/>
                  <code value="Presence"/>
               </high>
            </referenceRange>
         </Observation>
      </resource>
   </entry>
   <entry>
      <fullUrl value="urn:uuid:2ba59a93-7fd0-4a7e-8d85-484ea6e9e2b6"/>
      <resource>
         <Observation>
            <id value="2ba59a93-7fd0-4a7e-8d85-484ea6e9e2b6"/>
            <meta>
               <profile value="http://hl7.eu/fhir/laboratory/StructureDefinition/Observation-resultslab-eu-lab"/>
            </meta>
            <text>
               <status value="generated"/>
               <div xmlns="http://www.w3.org/1999/xhtml">
                  <table class="hl7__eu__lab__report">
                     <tr>
                        <th>Test</th>
                        <th>05-Aug-2018</th>
                        <th>Reference Range</th>
                        <th>Unit</th>
                     </tr>
                     <tr>
                        <td>Nitrite [Presence] in Urine by Test strip</td>
                        <td>0.0</td>
                        <td>0 - 0</td>
                        <td/>
                        <td>{presence}</td>
                     </tr>
                  </table>
               </div>
            </text>
            <status value="final"/>
            <category>
               <coding>
                  <system value="http://terminology.hl7.org/CodeSystem/observation-category"/>
                  <code value="laboratory"/>
               </coding>
            </category>
            <code>
               <coding>
                  <system value="http://loinc.org"/>
                  <code value="5802-4"/>
                  <display value="Nitrite [Presence] in Urine by Test strip"/>
               </coding>
               <text value="Nitrite [Presence] in Urine by Test strip"/>
            </code>
            <subject>
               <reference value="urn:uuid:1d9c1679-c005-43d6-9f2e-93ffd21f5e0d"/>
               <display value="Maria Nohlmans"/>
            </subject>
            <effectiveDateTime value="2018-08-05T20:22:24Z"/>
            <performer>
               <display value="The Central European Lab"/>
            </performer>
            <valueQuantity>
               <value value="0"/>
               <unit value="{presence}"/>
               <system value="http://unitsofmeasure.org"/>
               <code value="{presence}"/>
            </valueQuantity>
            <specimen>
               <reference value="urn:uuid:4ce3a092-7250-488b-97f7-dbcefd1d21ca"/>
            </specimen>
            <referenceRange>
               <low>
                  <value value="0"/>
                  <system value="http://unitsofmeasure.org"/>
                  <code value="Presence"/>
               </low>
            </referenceRange>
            <referenceRange>
               <high>
                  <value value="0"/>
                  <system value="http://unitsofmeasure.org"/>
                  <code value="Presence"/>
               </high>
            </referenceRange>
         </Observation>
      </resource>
   </entry>
   <entry>
      <fullUrl value="urn:uuid:47e91987-7b7b-4257-86f8-95bd810b1459"/>
      <resource>
         <Observation>
            <id value="47e91987-7b7b-4257-86f8-95bd810b1459"/>
            <meta>
               <profile value="http://hl7.eu/fhir/laboratory/StructureDefinition/Observation-resultslab-eu-lab"/>
            </meta>
            <text>
               <status value="generated"/>
               <div xmlns="http://www.w3.org/1999/xhtml">
                  <table class="hl7__eu__lab__report">
                     <tr>
                        <th>Test</th>
                        <th>05-Aug-2018</th>
                        <th>Reference Range</th>
                        <th>Unit</th>
                     </tr>
                     <tr>
                        <td>Hemoglobin [Presence] in Urine by Test strip</td>
                        <td>0.0</td>
                        <td>0 - 0</td>
                        <td/>
                        <td>{presence}</td>
                     </tr>
                  </table>
               </div>
            </text>
            <status value="final"/>
            <category>
               <coding>
                  <system value="http://terminology.hl7.org/CodeSystem/observation-category"/>
                  <code value="laboratory"/>
               </coding>
            </category>
            <code>
               <coding>
                  <system value="http://loinc.org"/>
                  <code value="5794-3"/>
                  <display value="Hemoglobin [Presence] in Urine by Test strip"/>
               </coding>
               <text value="Hemoglobin [Presence] in Urine by Test strip"/>
            </code>
            <subject>
               <reference value="urn:uuid:1d9c1679-c005-43d6-9f2e-93ffd21f5e0d"/>
               <display value="Maria Nohlmans"/>
            </subject>
            <effectiveDateTime value="2018-08-05T20:22:24Z"/>
            <performer>
               <display value="The Central European Lab"/>
            </performer>
            <valueQuantity>
               <value value="0"/>
               <unit value="{presence}"/>
               <system value="http://unitsofmeasure.org"/>
               <code value="{presence}"/>
            </valueQuantity>
            <specimen>
               <reference value="urn:uuid:4ce3a092-7250-488b-97f7-dbcefd1d21ca"/>
            </specimen>
            <referenceRange>
               <low>
                  <value value="0"/>
                  <system value="http://unitsofmeasure.org"/>
                  <code value="Presence"/>
               </low>
            </referenceRange>
            <referenceRange>
               <high>
                  <value value="0"/>
                  <system value="http://unitsofmeasure.org"/>
                  <code value="Presence"/>
               </high>
            </referenceRange>
         </Observation>
      </resource>
   </entry>
   <entry>
      <fullUrl value="urn:uuid:0aed61c2-9552-48b1-a877-2e1d3bb71abd"/>
      <resource>
         <Observation>
            <id value="0aed61c2-9552-48b1-a877-2e1d3bb71abd"/>
            <meta>
               <profile value="http://hl7.eu/fhir/laboratory/StructureDefinition/Observation-resultslab-eu-lab"/>
            </meta>
            <text>
               <status value="generated"/>
               <div xmlns="http://www.w3.org/1999/xhtml">
                  <table class="hl7__eu__lab__report">
                     <tr>
                        <th>Test</th>
                        <th>05-Aug-2018</th>
                        <th>Reference Range</th>
                        <th>Unit</th>
                     </tr>
                     <tr>
                        <td>Leukocyte esterase [Presence] in Urine by Test strip</td>
                        <td>0.0</td>
                        <td>0 - 0</td>
                        <td/>
                        <td>{presence}</td>
                     </tr>
                  </table>
               </div>
            </text>
            <status value="final"/>
            <category>
               <coding>
                  <system value="http://terminology.hl7.org/CodeSystem/observation-category"/>
                  <code value="laboratory"/>
               </coding>
            </category>
            <code>
               <coding>
                  <system value="http://loinc.org"/>
                  <code value="5799-2"/>
                  <display value="Leukocyte esterase [Presence] in Urine by Test strip"/>
               </coding>
               <text value="Leukocyte esterase [Presence] in Urine by Test strip"/>
            </code>
            <subject>
               <reference value="urn:uuid:1d9c1679-c005-43d6-9f2e-93ffd21f5e0d"/>
               <display value="Maria Nohlmans"/>
            </subject>
            <effectiveDateTime value="2018-08-05T20:22:24Z"/>
            <performer>
               <display value="The Central European Lab"/>
            </performer>
            <valueQuantity>
               <value value="0"/>
               <unit value="{presence}"/>
               <system value="http://unitsofmeasure.org"/>
               <code value="{presence}"/>
            </valueQuantity>
            <specimen>
               <reference value="urn:uuid:4ce3a092-7250-488b-97f7-dbcefd1d21ca"/>
            </specimen>
            <referenceRange>
               <low>
                  <value value="0"/>
                  <system value="http://unitsofmeasure.org"/>
                  <code value="Presence"/>
               </low>
            </referenceRange>
            <referenceRange>
               <high>
                  <value value="0"/>
                  <system value="http://unitsofmeasure.org"/>
                  <code value="Presence"/>
               </high>
            </referenceRange>
         </Observation>
      </resource>
   </entry>
   <entry>
      <fullUrl value="urn:uuid:917bec96-1c04-4c8c-9f8b-cfb859f16a59"/>
      <resource>
         <Device>
            <id value="917bec96-1c04-4c8c-9f8b-cfb859f16a59"/>
            <text>
               <status value="generated"/>
               <div xmlns="http://www.w3.org/1999/xhtml">SYNDERAI Synthetic Generator v5.0</div>
            </text>
            <status value="active&#34;"/>
            <distinctIdentifier value="synderai-generator-50"/>
            <manufacturer value="SYNDERAI Project"/>
            <deviceName>
               <name value="SYNDERAI Synthetic Generator"/>
               <type value="manufacturer-name"/>
            </deviceName>
            <version>
               <value value="5.0"/>
            </version>
         </Device>
      </resource>
   </entry>
   <entry>
      <fullUrl value="urn:uuid:0060f6a0-4b3b-43d8-9498-b9d585447b04"/>
      <resource>
         <Provenance>
            <id value="0060f6a0-4b3b-43d8-9498-b9d585447b04"/>
            <text>
               <status value="generated"/>
               <div xmlns="http://www.w3.org/1999/xhtml">Provenance for SYNDERAI Synthetic Example Data Resource</div>
            </text>
            <target>
               <reference value="Patient/1d9c1679-c005-43d6-9f2e-93ffd21f5e0d"/>
            </target>
            <target>
               <reference value="Bundle/4cd85979-11fc-4c35-8ace-89bc04352081"/>
            </target>
            <target>
               <reference value="Composition/05a54396-3e9a-4a2e-8c8d-b80b1bdacd4a"/>
            </target>
            <target>
               <reference value="PractitionerRole/7e2b839b-853e-425a-9aef-f410121444bb"/>
            </target>
            <target>
               <reference value="Practitioner/105d74ab-00be-4521-8ae3-bcc51638d0c8"/>
            </target>
            <target>
               <reference value="PractitionerRole/98bc8d92-379a-4c71-b2e7-a39354cbaca4"/>
            </target>
            <target>
               <reference value="Organization/26801ddb-88e2-40fe-b41b-dda17202e744"/>
            </target>
            <recorded value="2018-08-05T22:22:24Z"/>
            <policy value="https://synderai.net/synderai-synthetic-data-policy"/>
            <reason>
               <text value="Interoperability Testing and Training (non-clinical use)"/>
            </reason>
            <activity>
               <text value="Synthetic Example Data Generation"/>
            </activity>
            <agent>
               <type>
                  <text value="author"/>
               </type>
               <who>
                  <reference value="Device/917bec96-1c04-4c8c-9f8b-cfb859f16a59"/>
               </who>
            </agent>
         </Provenance>
      </resource>
   </entry>
   <entry>
      <fullUrl value="urn:uuid:7e2b839b-853e-425a-9aef-f410121444bb"/>
      <resource>
         <PractitionerRole>
            <id value="7e2b839b-853e-425a-9aef-f410121444bb"/>
            <meta>
               <profile value="http://hl7.eu/fhir/base/StructureDefinition/practitionerRole-eu"/>
            </meta>
            <text>
               <status value="generated"/>
               <div xmlns="http://www.w3.org/1999/xhtml">Laboratory Role Id: 7e2b839b-853e-425a-9aef-f410121444bb</div>
            </text>
            <practitioner>
               <reference value="urn:uuid:105d74ab-00be-4521-8ae3-bcc51638d0c8"/>
            </practitioner>
         </PractitionerRole>
      </resource>
   </entry>
   <entry>
      <fullUrl value="urn:uuid:105d74ab-00be-4521-8ae3-bcc51638d0c8"/>
      <resource>
         <Practitioner>
            <id value="105d74ab-00be-4521-8ae3-bcc51638d0c8"/>
            <meta>
               <profile value="http://hl7.eu/fhir/base/StructureDefinition/practitioner-eu"/>
            </meta>
            <text>
               <status value="generated"/>
               <div xmlns="http://www.w3.org/1999/xhtml">Laboratory: Laboratoire Central Européenne, 1000 Brussels, Belgium</div>
            </text>
            <identifier>
               <system value="urn:oid:2.16.840.1.113883.2.51.999"/>
               <value value="eae278a7-4899-493f-b30e-678187296b5b"/>
               <assigner>
                  <display value="HL7 Europe"/>
               </assigner>
            </identifier>
            <name>
               <family value="Ample"/>
               <given value="Ex"/>
               <prefix value="dr"/>
            </name>
            <address>
               <line value="Laboratoire Central Européenne"/>
               <line value="Boulevard du Jardin Botanique 32"/>
               <city value="Brussels"/>
               <postalCode value="1000"/>
               <country value="Belgium"/>
            </address>
         </Practitioner>
      </resource>
   </entry>
</Bundle>