{
  "resourceType": "Bundle",
  "id": "bc455c2b-9ccc-4eb8-b723-c4f8f88af11d",
  "meta": {
    "profile": [
      "http://hl7.eu/fhir/laboratory/StructureDefinition/Bundle-eu-lab"
    ]
  },
  "identifier": {
    "assigner": {
      "display": "HL7 Europe"
    },
    "system": "urn:oid:2.16.840.1.113883.2.51.999",
    "value": "9306bb05-6b0e-4a22-96a7-60f3ccadb9d9"
  },
  "entry": [
    {
      "fullUrl": "urn:uuid:49187075-601f-4506-9e3b-d33b8d403f89",
      "resource": {
        "resourceType": "Composition",
        "id": "49187075-601f-4506-9e3b-d33b8d403f89",
        "meta": {
          "profile": [
            "http://hl7.eu/fhir/laboratory/StructureDefinition/Composition-eu-lab"
          ]
        },
        "identifier": {
          "assigner": {
            "display": "HL7 Europe"
          },
          "system": "urn:oid:2.16.840.1.113883.2.51.999",
          "value": "6c04eaab-8f2e-4a51-8377-32b021fafc71"
        },
        "author": [
          {
            "reference": "urn:uuid:ba7739ff-cfa9-4a18-8942-6b3795e829f2"
          }
        ],
        "category": [
          {
            "coding": [
              {
                "code": "26436-6",
                "system": "http://loinc.org",
                "display": "Laboratory studies (set)"
              }
            ]
          }
        ],
        "type": {
          "coding": [
            {
              "code": "11502-2",
              "system": "http://loinc.org",
              "display": "Laboratory report"
            }
          ],
          "text": "Laboratory Report"
        },
        "section": [
          {
            "code": {
              "coding": [
                {
                  "code": "26436-6",
                  "system": "http://loinc.org",
                  "display": "Laboratory studies (set)"
                }
              ],
              "text": "Laboratory studies"
            },
            "section": [
              {
                "code": {
                  "coding": [
                    {
                      "code": "$18719-5",
                      "system": "http://loinc.org",
                      "display": "Chemistry studies (set)"
                    }
                  ],
                  "text": "Chemistry"
                },
                "entry": [
                  {
                    "reference": "urn:uuid:d7b87079-2c21-4bc7-815d-d5c2814a100b"
                  },
                  {
                    "reference": "urn:uuid:90a5ca47-1896-4ced-a8b2-7f5b4e766a24"
                  },
                  {
                    "reference": "urn:uuid:09a884b0-adca-4277-9558-da67a1ef5e14"
                  },
                  {
                    "reference": "urn:uuid:c64c2c06-375f-445a-a034-2f7625d6e21a"
                  },
                  {
                    "reference": "urn:uuid:05d47b96-99cf-4dbe-8cd0-634ba216cb75"
                  },
                  {
                    "reference": "urn:uuid:57566362-f293-4017-8b45-8725dca725f2"
                  },
                  {
                    "reference": "urn:uuid:def13323-e0e2-4c54-a179-c4a46df5ba3c"
                  },
                  {
                    "reference": "urn:uuid:82c87d62-7f2a-4ea6-8445-d756398c177b"
                  },
                  {
                    "reference": "urn:uuid:1e2e74fc-4c98-4942-a66c-1b13ab56c4cf"
                  },
                  {
                    "reference": "urn:uuid:1a956236-0c14-4d39-a130-e34519007230"
                  },
                  {
                    "reference": "urn:uuid:13c64101-10f9-4dd2-8d1c-258b84601ad8"
                  },
                  {
                    "reference": "urn:uuid:78fe7a33-9940-4cbc-b5c3-fed7c701f841"
                  },
                  {
                    "reference": "urn:uuid:19f0b1c3-5f8e-4221-9ab5-999e2a4a5ef1"
                  }
                ],
                "text": {
                  "status": "generated",
                  "div": "<div xmlns=\"http://www.w3.org/1999/xhtml\"><h3>Chemistry</h3><table class=\"hl7__eu__lab__report\"><thead><tr><th>Test</th><th>20-SEP-2022</th><th>Reference&#xA0;Range</th><th>Unit</th></tr></thead><tbody><tr><td>Hemoglobin A1c/Hemoglobin.total in Blood</td><td>6.2</td><td>4.5 - 6.4</td><td>%</td></tr><tr><td>Glucose [Mass/volume] in Blood</td><td>97.9</td><td>70 - 99</td><td>mg/dL</td></tr><tr><td>Urea nitrogen [Mass/volume] in Blood</td><td>10.8</td><td>7 - 20</td><td>mg/dL</td></tr><tr><td>Creatinine [Mass/volume] in Blood</td><td><strong>0.8 L</strong></td><td>0.9 - 1.3</td><td>mg/dL</td></tr><tr><td>Calcium [Mass/volume] in Blood</td><td>9.4</td><td>8.6 - 10.2</td><td>mg/dL</td></tr><tr><td>Sodium [Moles/volume] in Blood</td><td>141.3</td><td>135 - 145</td><td>mmol/L</td></tr><tr><td>Potassium [Moles/volume] in Blood</td><td>4.7</td><td>3.5 - 5.1</td><td>mmol/L</td></tr><tr><td>Chloride [Moles/volume] in Blood</td><td>102.0</td><td>98 - 108</td><td>mmol/L</td></tr><tr><td>Carbon dioxide, total [Moles/volume] in Blood</td><td>28.4</td><td>22 - 29</td><td>mmol/L</td></tr><tr><td>Cholesterol [Mass/volume] in Serum or Plasma</td><td>144.8</td><td>0 - 200</td><td>mg/dL</td></tr><tr><td>Triglyceride [Mass/volume] in Serum or Plasma</td><td>122.9</td><td>40 - 150</td><td>mg/dL</td></tr><tr><td>Cholesterol in LDL [Mass/volume] in Serum or Plasma by Direct assay</td><td>80.1</td><td>0 - 130</td><td>mg/dL</td></tr><tr><td>Cholesterol in HDL [Mass/volume] in Serum or Plasma</td><td>40.2</td><td>40 - 100</td><td>mg/dL</td></tr></tbody></table></div>"
                },
                "title": "Chemistry"
              }
            ],
            "title": "Laboratory Report"
          },
          {
            "text": {
              "status": "generated",
              "div": "<div xmlns=\"http://www.w3.org/1999/xhtml\"><h3>Annotation</h3><table class=\"hl7__eu__lab__report\"><tr><th>Conclusion and Recommendations based on this report and previous findings known to us</th></tr><tr><td>All measured parameters are within or close to normal ranges. HbA1c is at the upper limit, suggesting good but borderline glycemic control. Creatinine is slightly below normal but not clinically significant. Lipid profile is favorable, with LDL and triglycerides well controlled and HDL at the lower normal limit. No acute abnormalities detected. Recommend continued monitoring, especially of glycemic control.</td></tr></table></div>"
            },
            "code": {
              "coding": [
                {
                  "system": "http://loinc.org",
                  "code": "48767-8",
                  "display": "Annotation comment"
                }
              ]
            },
            "title": "Annotation comment"
          }
        ],
        "status": "final",
        "subject": {
          "reference": "urn:uuid:30ed30d6-f28f-4da5-81b1-60584b5e280f",
          "display": "Khalid Nilsson"
        },
        "date": "2022-09-20T01:04:23Z",
        "title": "Laboratory Report",
        "confidentiality": "N"
      }
    },
    {
      "fullUrl": "urn:uuid:e297806b-51d3-42ef-b78c-59a99e0be5fe",
      "resource": {
        "resourceType": "DiagnosticReport",
        "id": "e297806b-51d3-42ef-b78c-59a99e0be5fe",
        "meta": {
          "profile": [
            "http://hl7.eu/fhir/laboratory/StructureDefinition/DiagnosticReport-eu-lab"
          ]
        },
        "identifier": [
          {
            "assigner": {
              "display": "HL7 Europe"
            },
            "system": "urn:oid:2.16.840.1.113883.2.51.999",
            "value": "c6befe2c-3aa1-4c98-be4b-996f7c5635a5"
          }
        ],
        "extension": [
          {
            "url": "http://hl7.org/fhir/5.0/StructureDefinition/extension-DiagnosticReport.composition",
            "valueReference": {
              "reference": "urn:uuid:6c04eaab-8f2e-4a51-8377-32b021fafc71"
            }
          }
        ],
        "category": [
          {
            "coding": [
              {
                "code": "26436-6",
                "system": "http://loinc.org",
                "display": "Laboratory studies (set)"
              }
            ]
          }
        ],
        "specimen": [
          {
            "reference": "urn:uuid:22ccd69f-b677-4897-a97c-d53dec82b223"
          },
          {
            "reference": "urn:uuid:1b64649e-0365-44e9-bdcf-cb334d49d8ae"
          }
        ],
        "result": [
          {
            "reference": "urn:uuid:d7b87079-2c21-4bc7-815d-d5c2814a100b"
          },
          {
            "reference": "urn:uuid:90a5ca47-1896-4ced-a8b2-7f5b4e766a24"
          },
          {
            "reference": "urn:uuid:09a884b0-adca-4277-9558-da67a1ef5e14"
          },
          {
            "reference": "urn:uuid:c64c2c06-375f-445a-a034-2f7625d6e21a"
          },
          {
            "reference": "urn:uuid:05d47b96-99cf-4dbe-8cd0-634ba216cb75"
          },
          {
            "reference": "urn:uuid:57566362-f293-4017-8b45-8725dca725f2"
          },
          {
            "reference": "urn:uuid:def13323-e0e2-4c54-a179-c4a46df5ba3c"
          },
          {
            "reference": "urn:uuid:82c87d62-7f2a-4ea6-8445-d756398c177b"
          },
          {
            "reference": "urn:uuid:1e2e74fc-4c98-4942-a66c-1b13ab56c4cf"
          },
          {
            "reference": "urn:uuid:1a956236-0c14-4d39-a130-e34519007230"
          },
          {
            "reference": "urn:uuid:13c64101-10f9-4dd2-8d1c-258b84601ad8"
          },
          {
            "reference": "urn:uuid:78fe7a33-9940-4cbc-b5c3-fed7c701f841"
          },
          {
            "reference": "urn:uuid:19f0b1c3-5f8e-4221-9ab5-999e2a4a5ef1"
          }
        ],
        "status": "registered",
        "code": {
          "coding": [
            {
              "code": "11502-2",
              "system": "http://loinc.org",
              "display": "Laboratory report"
            }
          ]
        },
        "subject": {
          "reference": "urn:uuid:30ed30d6-f28f-4da5-81b1-60584b5e280f",
          "display": "Khalid Nilsson"
        }
      }
    },
    {
      "fullUrl": "urn:uuid:30ed30d6-f28f-4da5-81b1-60584b5e280f",
      "resource": {
        "resourceType": "Patient",
        "id": "30ed30d6-f28f-4da5-81b1-60584b5e280f",
        "meta": {
          "security": [
            {
              "system": "http://terminology.hl7.org/CodeSystem/v3-ActReason",
              "code": "HTEST"
            },
            {
              "system": "http://terminology.hl7.org/CodeSystem/v3-ActReason",
              "code": "TRAIN"
            }
          ],
          "tag": [
            {
              "system": "https://synderai.net/fhir/CodeSystem/tags",
              "code": "synthetic",
              "display": "SYNDERAI Synthetic data"
            }
          ],
          "profile": [
            "http://hl7.eu/fhir/base/StructureDefinition/patient-eu-core"
          ]
        },
        "identifier": [
          {
            "type": {
              "coding": [
                {
                  "code": "PT",
                  "system": "http://terminology.hl7.org/CodeSystem/v2-0203"
                }
              ]
            },
            "system": "http://ec.europa.eu/identifier/eci",
            "value": "8339-594203-6"
          },
          {
            "type": {
              "coding": [
                {
                  "code": "MR",
                  "system": "http://terminology.hl7.org/CodeSystem/v2-0203"
                }
              ]
            },
            "system": "http://local.setting.eu/identifier",
            "value": "db9680f4-3d2c-0551-cb1c-61573f88f405"
          }
        ],
        "name": [
          {
            "family": "Nilsson"
          },
          {
            "given": [
              "Khalid"
            ]
          },
          {
            "text": "Khalid Nilsson"
          }
        ],
        "address": [
          {
            "line": [
              "Gengränd 482"
            ],
            "use": "home",
            "type": "physical",
            "postalCode": "691 31",
            "city": "Karlskoga",
            "country": "Sweden"
          }
        ],
        "telecom": [
          {
            "system": "phone",
            "value": "+46 (0)8 888 657 95"
          }
        ],
        "extension": [
          {
            "url": "http://hl7.org/fhir/StructureDefinition/patient-nationality",
            "valueCodeableConcept": {
              "coding": [
                {
                  "code": "SE",
                  "system": "http://hl7.org/fhir/ValueSet/country"
                }
              ]
            }
          }
        ],
        "text": {
          "status": "generated",
          "div": "<div xmlns=\"http://www.w3.org/1999/xhtml\"><table class=\"hl7__ips\"><tr><td>Khalid Nilsson</td><td>male</td><td>10-Apr-1952</td></tr></table></div>"
        },
        "gender": "male",
        "birthDate": "1952-04-10"
      }
    },
    {
      "fullUrl": "urn:uuid:66b1e053-0c59-48f6-a7a0-75d778bf681b",
      "resource": {
        "resourceType": "ServiceRequest",
        "id": "66b1e053-0c59-48f6-a7a0-75d778bf681b",
        "meta": {
          "profile": [
            "http://hl7.eu/fhir/laboratory/StructureDefinition/ServiceRequest-eu-lab"
          ]
        },
        "identifier": [
          {
            "system": "http://example.org",
            "value": "84aa40bf-33aa-4161-943d-522efd1c5919"
          }
        ],
        "specimen": [
          {
            "reference": "urn:uuid:22ccd69f-b677-4897-a97c-d53dec82b223"
          },
          {
            "reference": "urn:uuid:1b64649e-0365-44e9-bdcf-cb334d49d8ae"
          }
        ],
        "reasonCode": [
          {
            "coding": [
              {
                "code": "64859006",
                "system": "http://snomed.info/sct",
                "display": "Osteoporosis"
              }
            ]
          },
          {
            "coding": [
              {
                "code": "196416002",
                "system": "http://snomed.info/sct",
                "display": "Impacted molars"
              }
            ]
          },
          {
            "coding": [
              {
                "code": "414545008",
                "system": "http://snomed.info/sct",
                "display": "Ischemic heart disease"
              }
            ]
          },
          {
            "coding": [
              {
                "code": "40055000",
                "system": "http://snomed.info/sct",
                "display": "Chronic sinusitis"
              }
            ]
          },
          {
            "coding": [
              {
                "code": "197927001",
                "system": "http://snomed.info/sct",
                "display": "Recurrent urinary tract infection"
              }
            ]
          },
          {
            "coding": [
              {
                "code": "15777000",
                "system": "http://snomed.info/sct",
                "display": "Prediabetes"
              }
            ]
          },
          {
            "coding": [
              {
                "code": "271737000",
                "system": "http://snomed.info/sct",
                "display": "Anemia"
              }
            ]
          }
        ],
        "status": "active",
        "intent": "order",
        "code": {
          "coding": [
            {
              "code": "108252007",
              "system": "http://snomed.info/sct",
              "display": "Laboratory procedure"
            }
          ]
        },
        "subject": {
          "reference": "urn:uuid:30ed30d6-f28f-4da5-81b1-60584b5e280f",
          "display": "Khalid Nilsson"
        },
        "requester": {
          "reference": "urn:uuid:9c8064c6-c1b6-45ad-93fa-5201ab91ba7d"
        }
      }
    },
    {
      "fullUrl": "urn:uuid:9c8064c6-c1b6-45ad-93fa-5201ab91ba7d",
      "resource": {
        "resourceType": "PractitionerRole",
        "id": "9c8064c6-c1b6-45ad-93fa-5201ab91ba7d",
        "meta": {
          "profile": [
            "http://hl7.eu/fhir/base/StructureDefinition/practitionerRole-eu"
          ]
        },
        "text": {
          "status": "generated",
          "div": "<div xmlns=\"http://www.w3.org/1999/xhtml\">Provider Role Id: 9c8064c6-c1b6-45ad-93fa-5201ab91ba7d</div>"
        },
        "organization": {
          "reference": "urn:uuid:a60f7375-7849-4208-bb76-417d2a7d4682"
        }
      }
    },
    {
      "fullUrl": "urn:uuid:a60f7375-7849-4208-bb76-417d2a7d4682",
      "resource": {
        "resourceType": "Organization",
        "id": "a60f7375-7849-4208-bb76-417d2a7d4682",
        "meta": {
          "profile": [
            "http://hl7.eu/fhir/base/StructureDefinition/organization-eu"
          ]
        },
        "identifier": [
          {
            "assigner": {
              "display": "HL7 Europe"
            },
            "system": "urn:oid:2.16.840.1.113883.2.51.999",
            "value": "a49831f4-04cc-4d38-b490-100344f75c0b"
          }
        ],
        "address": [
          {
            "city": "Karlskoga",
            "postalCode": "691 31",
            "country": "Sweden"
          }
        ],
        "text": {
          "status": "generated",
          "div": "<div xmlns=\"http://www.w3.org/1999/xhtml\">Provider Organization: Karlskoga Lasarett</div>"
        },
        "name": "Karlskoga Lasarett"
      }
    },
    {
      "fullUrl": "urn:uuid:22ccd69f-b677-4897-a97c-d53dec82b223",
      "resource": {
        "resourceType": "Specimen",
        "id": "22ccd69f-b677-4897-a97c-d53dec82b223",
        "meta": {
          "profile": [
            "http://hl7.eu/fhir/laboratory/StructureDefinition/Specimen-eu-lab"
          ]
        },
        "collection": {
          "collectedDateTime": "2022-09-19"
        },
        "text": {
          "status": "generated",
          "div": "<div xmlns=\"http://www.w3.org/1999/xhtml\"><table class=\"hl7__eu__lab__report\"><tr><th>Specimen</th><th>Collection Date</th></tr><tr><td>Whole blood specimen (specimen)</td><td><span class=\"nb\">19-Sep-2022</span></td></tr></table></div>"
        },
        "type": {
          "coding": [
            {
              "code": "258580003",
              "system": "http://snomed.info/sct",
              "display": "Whole blood specimen (specimen)"
            }
          ]
        }
      }
    },
    {
      "fullUrl": "urn:uuid:1b64649e-0365-44e9-bdcf-cb334d49d8ae",
      "resource": {
        "resourceType": "Specimen",
        "id": "1b64649e-0365-44e9-bdcf-cb334d49d8ae",
        "meta": {
          "profile": [
            "http://hl7.eu/fhir/laboratory/StructureDefinition/Specimen-eu-lab"
          ]
        },
        "collection": {
          "collectedDateTime": "2022-09-19"
        },
        "text": {
          "status": "generated",
          "div": "<div xmlns=\"http://www.w3.org/1999/xhtml\"><table class=\"hl7__eu__lab__report\"><tr><th>Specimen</th><th>Collection Date</th></tr><tr><td>Acellular blood (serum or plasma) specimen</td><td><span class=\"nb\">19-Sep-2022</span></td></tr></table></div>"
        },
        "type": {
          "coding": [
            {
              "code": "122592007",
              "system": "http://snomed.info/sct",
              "display": "Acellular blood (serum or plasma) specimen"
            }
          ]
        }
      }
    },
    {
      "fullUrl": "urn:uuid:d7b87079-2c21-4bc7-815d-d5c2814a100b",
      "resource": {
        "resourceType": "Observation",
        "id": "d7b87079-2c21-4bc7-815d-d5c2814a100b",
        "meta": {
          "profile": [
            "http://hl7.eu/fhir/laboratory/StructureDefinition/Observation-resultslab-eu-lab"
          ]
        },
        "performer": [
          {
            "display": "The Central European Lab"
          }
        ],
        "category": [
          {
            "coding": [
              {
                "system": "http://terminology.hl7.org/CodeSystem/observation-category",
                "code": "laboratory"
              }
            ]
          }
        ],
        "code": {
          "coding": [
            {
              "code": "4548-4",
              "system": "http://loinc.org",
              "display": "Hemoglobin A1c/Hemoglobin.total in Blood"
            }
          ],
          "text": "Hemoglobin A1c/Hemoglobin.total in Blood"
        },
        "valueQuantity": {
          "system": "http://unitsofmeasure.org",
          "value": 6.2,
          "unit": "%",
          "code": "%"
        },
        "referenceRange": [
          {
            "low": {
              "value": 4.5,
              "code": "%",
              "system": "http://unitsofmeasure.org"
            }
          },
          {
            "high": {
              "value": 6.4,
              "code": "%",
              "system": "http://unitsofmeasure.org"
            }
          }
        ],
        "text": {
          "status": "generated",
          "div": "<div xmlns=\"http://www.w3.org/1999/xhtml\"><table class=\"hl7__eu__lab__report\"><tr><th>Test</th><th>20-Sep-2022</th><th>Reference&#xA0;Range</th><th>Unit</th></tr><tr><td>Hemoglobin A1c/Hemoglobin.total in Blood</td><td>6.2</td><td>4.5 - 6.4</td><td></td><td>%</td></tr></table></div>"
        },
        "status": "final",
        "subject": {
          "reference": "urn:uuid:30ed30d6-f28f-4da5-81b1-60584b5e280f",
          "display": "Khalid Nilsson"
        },
        "effectiveDateTime": "2022-09-19T23:04:23Z",
        "specimen": {
          "reference": "urn:uuid:22ccd69f-b677-4897-a97c-d53dec82b223"
        }
      }
    },
    {
      "fullUrl": "urn:uuid:90a5ca47-1896-4ced-a8b2-7f5b4e766a24",
      "resource": {
        "resourceType": "Observation",
        "id": "90a5ca47-1896-4ced-a8b2-7f5b4e766a24",
        "meta": {
          "profile": [
            "http://hl7.eu/fhir/laboratory/StructureDefinition/Observation-resultslab-eu-lab"
          ]
        },
        "performer": [
          {
            "display": "The Central European Lab"
          }
        ],
        "category": [
          {
            "coding": [
              {
                "system": "http://terminology.hl7.org/CodeSystem/observation-category",
                "code": "laboratory"
              }
            ]
          }
        ],
        "code": {
          "coding": [
            {
              "code": "2339-0",
              "system": "http://loinc.org",
              "display": "Glucose [Mass/volume] in Blood"
            }
          ],
          "text": "Glucose [Mass/volume] in Blood"
        },
        "valueQuantity": {
          "system": "http://unitsofmeasure.org",
          "value": 97.9,
          "unit": "mg/dL",
          "code": "mg/dL"
        },
        "referenceRange": [
          {
            "low": {
              "value": 70,
              "code": "mg/dL",
              "system": "http://unitsofmeasure.org"
            }
          },
          {
            "high": {
              "value": 99,
              "code": "mg/dL",
              "system": "http://unitsofmeasure.org"
            }
          }
        ],
        "text": {
          "status": "generated",
          "div": "<div xmlns=\"http://www.w3.org/1999/xhtml\"><table class=\"hl7__eu__lab__report\"><tr><th>Test</th><th>20-Sep-2022</th><th>Reference&#xA0;Range</th><th>Unit</th></tr><tr><td>Glucose [Mass/volume] in Blood</td><td>97.9</td><td>70 - 99</td><td></td><td>mg/dL</td></tr></table></div>"
        },
        "status": "final",
        "subject": {
          "reference": "urn:uuid:30ed30d6-f28f-4da5-81b1-60584b5e280f",
          "display": "Khalid Nilsson"
        },
        "effectiveDateTime": "2022-09-19T23:04:23Z",
        "specimen": {
          "reference": "urn:uuid:22ccd69f-b677-4897-a97c-d53dec82b223"
        }
      }
    },
    {
      "fullUrl": "urn:uuid:09a884b0-adca-4277-9558-da67a1ef5e14",
      "resource": {
        "resourceType": "Observation",
        "id": "09a884b0-adca-4277-9558-da67a1ef5e14",
        "meta": {
          "profile": [
            "http://hl7.eu/fhir/laboratory/StructureDefinition/Observation-resultslab-eu-lab"
          ]
        },
        "performer": [
          {
            "display": "The Central European Lab"
          }
        ],
        "category": [
          {
            "coding": [
              {
                "system": "http://terminology.hl7.org/CodeSystem/observation-category",
                "code": "laboratory"
              }
            ]
          }
        ],
        "code": {
          "coding": [
            {
              "code": "6299-2",
              "system": "http://loinc.org",
              "display": "Urea nitrogen [Mass/volume] in Blood"
            }
          ],
          "text": "Urea nitrogen [Mass/volume] in Blood"
        },
        "valueQuantity": {
          "system": "http://unitsofmeasure.org",
          "value": 10.8,
          "unit": "mg/dL",
          "code": "mg/dL"
        },
        "referenceRange": [
          {
            "low": {
              "value": 7,
              "code": "mg/dL",
              "system": "http://unitsofmeasure.org"
            }
          },
          {
            "high": {
              "value": 20,
              "code": "mg/dL",
              "system": "http://unitsofmeasure.org"
            }
          }
        ],
        "text": {
          "status": "generated",
          "div": "<div xmlns=\"http://www.w3.org/1999/xhtml\"><table class=\"hl7__eu__lab__report\"><tr><th>Test</th><th>20-Sep-2022</th><th>Reference&#xA0;Range</th><th>Unit</th></tr><tr><td>Urea nitrogen [Mass/volume] in Blood</td><td>10.8</td><td>7 - 20</td><td></td><td>mg/dL</td></tr></table></div>"
        },
        "status": "final",
        "subject": {
          "reference": "urn:uuid:30ed30d6-f28f-4da5-81b1-60584b5e280f",
          "display": "Khalid Nilsson"
        },
        "effectiveDateTime": "2022-09-19T23:04:23Z",
        "specimen": {
          "reference": "urn:uuid:22ccd69f-b677-4897-a97c-d53dec82b223"
        }
      }
    },
    {
      "fullUrl": "urn:uuid:c64c2c06-375f-445a-a034-2f7625d6e21a",
      "resource": {
        "resourceType": "Observation",
        "id": "c64c2c06-375f-445a-a034-2f7625d6e21a",
        "meta": {
          "profile": [
            "http://hl7.eu/fhir/laboratory/StructureDefinition/Observation-resultslab-eu-lab"
          ]
        },
        "performer": [
          {
            "display": "The Central European Lab"
          }
        ],
        "category": [
          {
            "coding": [
              {
                "system": "http://terminology.hl7.org/CodeSystem/observation-category",
                "code": "laboratory"
              }
            ]
          }
        ],
        "code": {
          "coding": [
            {
              "code": "38483-4",
              "system": "http://loinc.org",
              "display": "Creatinine [Mass/volume] in Blood"
            }
          ],
          "text": "Creatinine [Mass/volume] in Blood"
        },
        "valueQuantity": {
          "system": "http://unitsofmeasure.org",
          "value": 0.8,
          "unit": "mg/dL",
          "code": "mg/dL"
        },
        "referenceRange": [
          {
            "low": {
              "value": 0.9,
              "code": "mg/dL",
              "system": "http://unitsofmeasure.org"
            }
          },
          {
            "high": {
              "value": 1.3,
              "code": "mg/dL",
              "system": "http://unitsofmeasure.org"
            }
          }
        ],
        "interpretation": [
          {
            "coding": [
              {
                "code": "L",
                "system": "http://terminology.hl7.org/CodeSystem/v3-ObservationInterpretation",
                "display": "Low"
              }
            ]
          }
        ],
        "text": {
          "status": "generated",
          "div": "<div xmlns=\"http://www.w3.org/1999/xhtml\"><table class=\"hl7__eu__lab__report\"><tr><th>Test</th><th>20-Sep-2022</th><th>Reference&#xA0;Range</th><th>Unit</th></tr><tr><td>Creatinine [Mass/volume] in Blood</td><td>0.8</td><td>0.9 - 1.3</td><td>L</td><td>mg/dL</td></tr></table></div>"
        },
        "status": "final",
        "subject": {
          "reference": "urn:uuid:30ed30d6-f28f-4da5-81b1-60584b5e280f",
          "display": "Khalid Nilsson"
        },
        "effectiveDateTime": "2022-09-19T23:04:23Z",
        "specimen": {
          "reference": "urn:uuid:22ccd69f-b677-4897-a97c-d53dec82b223"
        }
      }
    },
    {
      "fullUrl": "urn:uuid:05d47b96-99cf-4dbe-8cd0-634ba216cb75",
      "resource": {
        "resourceType": "Observation",
        "id": "05d47b96-99cf-4dbe-8cd0-634ba216cb75",
        "meta": {
          "profile": [
            "http://hl7.eu/fhir/laboratory/StructureDefinition/Observation-resultslab-eu-lab"
          ]
        },
        "performer": [
          {
            "display": "The Central European Lab"
          }
        ],
        "category": [
          {
            "coding": [
              {
                "system": "http://terminology.hl7.org/CodeSystem/observation-category",
                "code": "laboratory"
              }
            ]
          }
        ],
        "code": {
          "coding": [
            {
              "code": "49765-1",
              "system": "http://loinc.org",
              "display": "Calcium [Mass/volume] in Blood"
            }
          ],
          "text": "Calcium [Mass/volume] in Blood"
        },
        "valueQuantity": {
          "system": "http://unitsofmeasure.org",
          "value": 9.4,
          "unit": "mg/dL",
          "code": "mg/dL"
        },
        "referenceRange": [
          {
            "low": {
              "value": 8.6,
              "code": "mg/dL",
              "system": "http://unitsofmeasure.org"
            }
          },
          {
            "high": {
              "value": 10.2,
              "code": "mg/dL",
              "system": "http://unitsofmeasure.org"
            }
          }
        ],
        "text": {
          "status": "generated",
          "div": "<div xmlns=\"http://www.w3.org/1999/xhtml\"><table class=\"hl7__eu__lab__report\"><tr><th>Test</th><th>20-Sep-2022</th><th>Reference&#xA0;Range</th><th>Unit</th></tr><tr><td>Calcium [Mass/volume] in Blood</td><td>9.4</td><td>8.6 - 10.2</td><td></td><td>mg/dL</td></tr></table></div>"
        },
        "status": "final",
        "subject": {
          "reference": "urn:uuid:30ed30d6-f28f-4da5-81b1-60584b5e280f",
          "display": "Khalid Nilsson"
        },
        "effectiveDateTime": "2022-09-19T23:04:23Z",
        "specimen": {
          "reference": "urn:uuid:22ccd69f-b677-4897-a97c-d53dec82b223"
        }
      }
    },
    {
      "fullUrl": "urn:uuid:57566362-f293-4017-8b45-8725dca725f2",
      "resource": {
        "resourceType": "Observation",
        "id": "57566362-f293-4017-8b45-8725dca725f2",
        "meta": {
          "profile": [
            "http://hl7.eu/fhir/laboratory/StructureDefinition/Observation-resultslab-eu-lab"
          ]
        },
        "performer": [
          {
            "display": "The Central European Lab"
          }
        ],
        "category": [
          {
            "coding": [
              {
                "system": "http://terminology.hl7.org/CodeSystem/observation-category",
                "code": "laboratory"
              }
            ]
          }
        ],
        "code": {
          "coding": [
            {
              "code": "2947-0",
              "system": "http://loinc.org",
              "display": "Sodium [Moles/volume] in Blood"
            }
          ],
          "text": "Sodium [Moles/volume] in Blood"
        },
        "valueQuantity": {
          "system": "http://unitsofmeasure.org",
          "value": 141.3,
          "unit": "mmol/L",
          "code": "mmol/L"
        },
        "referenceRange": [
          {
            "low": {
              "value": 135,
              "code": "mmol/L",
              "system": "http://unitsofmeasure.org"
            }
          },
          {
            "high": {
              "value": 145,
              "code": "mmol/L",
              "system": "http://unitsofmeasure.org"
            }
          }
        ],
        "text": {
          "status": "generated",
          "div": "<div xmlns=\"http://www.w3.org/1999/xhtml\"><table class=\"hl7__eu__lab__report\"><tr><th>Test</th><th>20-Sep-2022</th><th>Reference&#xA0;Range</th><th>Unit</th></tr><tr><td>Sodium [Moles/volume] in Blood</td><td>141.3</td><td>135 - 145</td><td></td><td>mmol/L</td></tr></table></div>"
        },
        "status": "final",
        "subject": {
          "reference": "urn:uuid:30ed30d6-f28f-4da5-81b1-60584b5e280f",
          "display": "Khalid Nilsson"
        },
        "effectiveDateTime": "2022-09-19T23:04:23Z",
        "specimen": {
          "reference": "urn:uuid:22ccd69f-b677-4897-a97c-d53dec82b223"
        }
      }
    },
    {
      "fullUrl": "urn:uuid:def13323-e0e2-4c54-a179-c4a46df5ba3c",
      "resource": {
        "resourceType": "Observation",
        "id": "def13323-e0e2-4c54-a179-c4a46df5ba3c",
        "meta": {
          "profile": [
            "http://hl7.eu/fhir/laboratory/StructureDefinition/Observation-resultslab-eu-lab"
          ]
        },
        "performer": [
          {
            "display": "The Central European Lab"
          }
        ],
        "category": [
          {
            "coding": [
              {
                "system": "http://terminology.hl7.org/CodeSystem/observation-category",
                "code": "laboratory"
              }
            ]
          }
        ],
        "code": {
          "coding": [
            {
              "code": "6298-4",
              "system": "http://loinc.org",
              "display": "Potassium [Moles/volume] in Blood"
            }
          ],
          "text": "Potassium [Moles/volume] in Blood"
        },
        "valueQuantity": {
          "system": "http://unitsofmeasure.org",
          "value": 4.7,
          "unit": "mmol/L",
          "code": "mmol/L"
        },
        "referenceRange": [
          {
            "low": {
              "value": 3.5,
              "code": "mmol/L",
              "system": "http://unitsofmeasure.org"
            }
          },
          {
            "high": {
              "value": 5.1,
              "code": "mmol/L",
              "system": "http://unitsofmeasure.org"
            }
          }
        ],
        "text": {
          "status": "generated",
          "div": "<div xmlns=\"http://www.w3.org/1999/xhtml\"><table class=\"hl7__eu__lab__report\"><tr><th>Test</th><th>20-Sep-2022</th><th>Reference&#xA0;Range</th><th>Unit</th></tr><tr><td>Potassium [Moles/volume] in Blood</td><td>4.7</td><td>3.5 - 5.1</td><td></td><td>mmol/L</td></tr></table></div>"
        },
        "status": "final",
        "subject": {
          "reference": "urn:uuid:30ed30d6-f28f-4da5-81b1-60584b5e280f",
          "display": "Khalid Nilsson"
        },
        "effectiveDateTime": "2022-09-19T23:04:23Z",
        "specimen": {
          "reference": "urn:uuid:22ccd69f-b677-4897-a97c-d53dec82b223"
        }
      }
    },
    {
      "fullUrl": "urn:uuid:82c87d62-7f2a-4ea6-8445-d756398c177b",
      "resource": {
        "resourceType": "Observation",
        "id": "82c87d62-7f2a-4ea6-8445-d756398c177b",
        "meta": {
          "profile": [
            "http://hl7.eu/fhir/laboratory/StructureDefinition/Observation-resultslab-eu-lab"
          ]
        },
        "performer": [
          {
            "display": "The Central European Lab"
          }
        ],
        "category": [
          {
            "coding": [
              {
                "system": "http://terminology.hl7.org/CodeSystem/observation-category",
                "code": "laboratory"
              }
            ]
          }
        ],
        "code": {
          "coding": [
            {
              "code": "2069-3",
              "system": "http://loinc.org",
              "display": "Chloride [Moles/volume] in Blood"
            }
          ],
          "text": "Chloride [Moles/volume] in Blood"
        },
        "valueQuantity": {
          "system": "http://unitsofmeasure.org",
          "value": 102,
          "unit": "mmol/L",
          "code": "mmol/L"
        },
        "referenceRange": [
          {
            "low": {
              "value": 98,
              "code": "mmol/L",
              "system": "http://unitsofmeasure.org"
            }
          },
          {
            "high": {
              "value": 108,
              "code": "mmol/L",
              "system": "http://unitsofmeasure.org"
            }
          }
        ],
        "text": {
          "status": "generated",
          "div": "<div xmlns=\"http://www.w3.org/1999/xhtml\"><table class=\"hl7__eu__lab__report\"><tr><th>Test</th><th>20-Sep-2022</th><th>Reference&#xA0;Range</th><th>Unit</th></tr><tr><td>Chloride [Moles/volume] in Blood</td><td>102.0</td><td>98 - 108</td><td></td><td>mmol/L</td></tr></table></div>"
        },
        "status": "final",
        "subject": {
          "reference": "urn:uuid:30ed30d6-f28f-4da5-81b1-60584b5e280f",
          "display": "Khalid Nilsson"
        },
        "effectiveDateTime": "2022-09-19T23:04:23Z",
        "specimen": {
          "reference": "urn:uuid:22ccd69f-b677-4897-a97c-d53dec82b223"
        }
      }
    },
    {
      "fullUrl": "urn:uuid:1e2e74fc-4c98-4942-a66c-1b13ab56c4cf",
      "resource": {
        "resourceType": "Observation",
        "id": "1e2e74fc-4c98-4942-a66c-1b13ab56c4cf",
        "meta": {
          "profile": [
            "http://hl7.eu/fhir/laboratory/StructureDefinition/Observation-resultslab-eu-lab"
          ]
        },
        "performer": [
          {
            "display": "The Central European Lab"
          }
        ],
        "category": [
          {
            "coding": [
              {
                "system": "http://terminology.hl7.org/CodeSystem/observation-category",
                "code": "laboratory"
              }
            ]
          }
        ],
        "code": {
          "coding": [
            {
              "code": "20565-8",
              "system": "http://loinc.org",
              "display": "Carbon dioxide, total [Moles/volume] in Blood"
            }
          ],
          "text": "Carbon dioxide, total [Moles/volume] in Blood"
        },
        "valueQuantity": {
          "system": "http://unitsofmeasure.org",
          "value": 28.4,
          "unit": "mmol/L",
          "code": "mmol/L"
        },
        "referenceRange": [
          {
            "low": {
              "value": 22,
              "code": "mmol/L",
              "system": "http://unitsofmeasure.org"
            }
          },
          {
            "high": {
              "value": 29,
              "code": "mmol/L",
              "system": "http://unitsofmeasure.org"
            }
          }
        ],
        "text": {
          "status": "generated",
          "div": "<div xmlns=\"http://www.w3.org/1999/xhtml\"><table class=\"hl7__eu__lab__report\"><tr><th>Test</th><th>20-Sep-2022</th><th>Reference&#xA0;Range</th><th>Unit</th></tr><tr><td>Carbon dioxide, total [Moles/volume] in Blood</td><td>28.4</td><td>22 - 29</td><td></td><td>mmol/L</td></tr></table></div>"
        },
        "status": "final",
        "subject": {
          "reference": "urn:uuid:30ed30d6-f28f-4da5-81b1-60584b5e280f",
          "display": "Khalid Nilsson"
        },
        "effectiveDateTime": "2022-09-19T23:04:23Z",
        "specimen": {
          "reference": "urn:uuid:22ccd69f-b677-4897-a97c-d53dec82b223"
        }
      }
    },
    {
      "fullUrl": "urn:uuid:1a956236-0c14-4d39-a130-e34519007230",
      "resource": {
        "resourceType": "Observation",
        "id": "1a956236-0c14-4d39-a130-e34519007230",
        "meta": {
          "profile": [
            "http://hl7.eu/fhir/laboratory/StructureDefinition/Observation-resultslab-eu-lab"
          ]
        },
        "performer": [
          {
            "display": "The Central European Lab"
          }
        ],
        "category": [
          {
            "coding": [
              {
                "system": "http://terminology.hl7.org/CodeSystem/observation-category",
                "code": "laboratory"
              }
            ]
          }
        ],
        "code": {
          "coding": [
            {
              "code": "2093-3",
              "system": "http://loinc.org",
              "display": "Cholesterol [Mass/volume] in Serum or Plasma"
            }
          ],
          "text": "Cholesterol [Mass/volume] in Serum or Plasma"
        },
        "valueQuantity": {
          "system": "http://unitsofmeasure.org",
          "value": 144.8,
          "unit": "mg/dL",
          "code": "mg/dL"
        },
        "referenceRange": [
          {
            "low": {
              "value": 0,
              "code": "mg/dL",
              "system": "http://unitsofmeasure.org"
            }
          },
          {
            "high": {
              "value": 200,
              "code": "mg/dL",
              "system": "http://unitsofmeasure.org"
            }
          }
        ],
        "text": {
          "status": "generated",
          "div": "<div xmlns=\"http://www.w3.org/1999/xhtml\"><table class=\"hl7__eu__lab__report\"><tr><th>Test</th><th>20-Sep-2022</th><th>Reference&#xA0;Range</th><th>Unit</th></tr><tr><td>Cholesterol [Mass/volume] in Serum or Plasma</td><td>144.8</td><td>0 - 200</td><td></td><td>mg/dL</td></tr></table></div>"
        },
        "status": "final",
        "subject": {
          "reference": "urn:uuid:30ed30d6-f28f-4da5-81b1-60584b5e280f",
          "display": "Khalid Nilsson"
        },
        "effectiveDateTime": "2022-09-19T23:04:23Z",
        "specimen": {
          "reference": "urn:uuid:1b64649e-0365-44e9-bdcf-cb334d49d8ae"
        }
      }
    },
    {
      "fullUrl": "urn:uuid:13c64101-10f9-4dd2-8d1c-258b84601ad8",
      "resource": {
        "resourceType": "Observation",
        "id": "13c64101-10f9-4dd2-8d1c-258b84601ad8",
        "meta": {
          "profile": [
            "http://hl7.eu/fhir/laboratory/StructureDefinition/Observation-resultslab-eu-lab"
          ]
        },
        "performer": [
          {
            "display": "The Central European Lab"
          }
        ],
        "category": [
          {
            "coding": [
              {
                "system": "http://terminology.hl7.org/CodeSystem/observation-category",
                "code": "laboratory"
              }
            ]
          }
        ],
        "code": {
          "coding": [
            {
              "code": "2571-8",
              "system": "http://loinc.org",
              "display": "Triglyceride [Mass/volume] in Serum or Plasma"
            }
          ],
          "text": "Triglyceride [Mass/volume] in Serum or Plasma"
        },
        "valueQuantity": {
          "system": "http://unitsofmeasure.org",
          "value": 122.9,
          "unit": "mg/dL",
          "code": "mg/dL"
        },
        "referenceRange": [
          {
            "low": {
              "value": 40,
              "code": "mg/dL",
              "system": "http://unitsofmeasure.org"
            }
          },
          {
            "high": {
              "value": 150,
              "code": "mg/dL",
              "system": "http://unitsofmeasure.org"
            }
          }
        ],
        "text": {
          "status": "generated",
          "div": "<div xmlns=\"http://www.w3.org/1999/xhtml\"><table class=\"hl7__eu__lab__report\"><tr><th>Test</th><th>20-Sep-2022</th><th>Reference&#xA0;Range</th><th>Unit</th></tr><tr><td>Triglyceride [Mass/volume] in Serum or Plasma</td><td>122.9</td><td>40 - 150</td><td></td><td>mg/dL</td></tr></table></div>"
        },
        "status": "final",
        "subject": {
          "reference": "urn:uuid:30ed30d6-f28f-4da5-81b1-60584b5e280f",
          "display": "Khalid Nilsson"
        },
        "effectiveDateTime": "2022-09-19T23:04:23Z",
        "specimen": {
          "reference": "urn:uuid:1b64649e-0365-44e9-bdcf-cb334d49d8ae"
        }
      }
    },
    {
      "fullUrl": "urn:uuid:78fe7a33-9940-4cbc-b5c3-fed7c701f841",
      "resource": {
        "resourceType": "Observation",
        "id": "78fe7a33-9940-4cbc-b5c3-fed7c701f841",
        "meta": {
          "profile": [
            "http://hl7.eu/fhir/laboratory/StructureDefinition/Observation-resultslab-eu-lab"
          ]
        },
        "performer": [
          {
            "display": "The Central European Lab"
          }
        ],
        "category": [
          {
            "coding": [
              {
                "system": "http://terminology.hl7.org/CodeSystem/observation-category",
                "code": "laboratory"
              }
            ]
          }
        ],
        "code": {
          "coding": [
            {
              "code": "18262-6",
              "system": "http://loinc.org",
              "display": "Cholesterol in LDL [Mass/volume] in Serum or Plasma by Direct assay"
            }
          ],
          "text": "Cholesterol in LDL [Mass/volume] in Serum or Plasma by Direct assay"
        },
        "valueQuantity": {
          "system": "http://unitsofmeasure.org",
          "value": 80.1,
          "unit": "mg/dL",
          "code": "mg/dL"
        },
        "referenceRange": [
          {
            "low": {
              "value": 0,
              "code": "mg/dL",
              "system": "http://unitsofmeasure.org"
            }
          },
          {
            "high": {
              "value": 130,
              "code": "mg/dL",
              "system": "http://unitsofmeasure.org"
            }
          }
        ],
        "text": {
          "status": "generated",
          "div": "<div xmlns=\"http://www.w3.org/1999/xhtml\"><table class=\"hl7__eu__lab__report\"><tr><th>Test</th><th>20-Sep-2022</th><th>Reference&#xA0;Range</th><th>Unit</th></tr><tr><td>Cholesterol in LDL [Mass/volume] in Serum or Plasma by Direct assay</td><td>80.1</td><td>0 - 130</td><td></td><td>mg/dL</td></tr></table></div>"
        },
        "status": "final",
        "subject": {
          "reference": "urn:uuid:30ed30d6-f28f-4da5-81b1-60584b5e280f",
          "display": "Khalid Nilsson"
        },
        "effectiveDateTime": "2022-09-19T23:04:23Z",
        "specimen": {
          "reference": "urn:uuid:1b64649e-0365-44e9-bdcf-cb334d49d8ae"
        }
      }
    },
    {
      "fullUrl": "urn:uuid:19f0b1c3-5f8e-4221-9ab5-999e2a4a5ef1",
      "resource": {
        "resourceType": "Observation",
        "id": "19f0b1c3-5f8e-4221-9ab5-999e2a4a5ef1",
        "meta": {
          "profile": [
            "http://hl7.eu/fhir/laboratory/StructureDefinition/Observation-resultslab-eu-lab"
          ]
        },
        "performer": [
          {
            "display": "The Central European Lab"
          }
        ],
        "category": [
          {
            "coding": [
              {
                "system": "http://terminology.hl7.org/CodeSystem/observation-category",
                "code": "laboratory"
              }
            ]
          }
        ],
        "code": {
          "coding": [
            {
              "code": "2085-9",
              "system": "http://loinc.org",
              "display": "Cholesterol in HDL [Mass/volume] in Serum or Plasma"
            }
          ],
          "text": "Cholesterol in HDL [Mass/volume] in Serum or Plasma"
        },
        "valueQuantity": {
          "system": "http://unitsofmeasure.org",
          "value": 40.2,
          "unit": "mg/dL",
          "code": "mg/dL"
        },
        "referenceRange": [
          {
            "low": {
              "value": 40,
              "code": "mg/dL",
              "system": "http://unitsofmeasure.org"
            }
          },
          {
            "high": {
              "value": 100,
              "code": "mg/dL",
              "system": "http://unitsofmeasure.org"
            }
          }
        ],
        "text": {
          "status": "generated",
          "div": "<div xmlns=\"http://www.w3.org/1999/xhtml\"><table class=\"hl7__eu__lab__report\"><tr><th>Test</th><th>20-Sep-2022</th><th>Reference&#xA0;Range</th><th>Unit</th></tr><tr><td>Cholesterol in HDL [Mass/volume] in Serum or Plasma</td><td>40.2</td><td>40 - 100</td><td></td><td>mg/dL</td></tr></table></div>"
        },
        "status": "final",
        "subject": {
          "reference": "urn:uuid:30ed30d6-f28f-4da5-81b1-60584b5e280f",
          "display": "Khalid Nilsson"
        },
        "effectiveDateTime": "2022-09-19T23:04:23Z",
        "specimen": {
          "reference": "urn:uuid:1b64649e-0365-44e9-bdcf-cb334d49d8ae"
        }
      }
    },
    {
      "fullUrl": "urn:uuid:996c4814-6795-44eb-9a74-f8c32bcbd4ef",
      "resource": {
        "resourceType": "Device",
        "id": "996c4814-6795-44eb-9a74-f8c32bcbd4ef",
        "deviceName": [
          {
            "name": "SYNDERAI Synthetic Generator",
            "type": "manufacturer-name"
          }
        ],
        "version": [
          {
            "value": "5.0"
          }
        ],
        "text": {
          "status": "generated",
          "div": "<div xmlns=\"http://www.w3.org/1999/xhtml\">SYNDERAI Synthetic Generator v5.0</div>"
        },
        "status": "active\"",
        "distinctIdentifier": "synderai-generator-50",
        "manufacturer": "SYNDERAI Project"
      }
    },
    {
      "fullUrl": "urn:uuid:95618193-bb8c-4aae-9bf2-74ed20ebb1b7",
      "resource": {
        "resourceType": "Provenance",
        "id": "95618193-bb8c-4aae-9bf2-74ed20ebb1b7",
        "target": [
          {
            "reference": "Patient/30ed30d6-f28f-4da5-81b1-60584b5e280f"
          },
          {
            "reference": "Bundle/bc455c2b-9ccc-4eb8-b723-c4f8f88af11d"
          },
          {
            "reference": "Composition/49187075-601f-4506-9e3b-d33b8d403f89"
          },
          {
            "reference": "PractitionerRole/ba7739ff-cfa9-4a18-8942-6b3795e829f2"
          },
          {
            "reference": "Practitioner/36a439cb-d5ec-445d-a475-b1356efdde26"
          },
          {
            "reference": "PractitionerRole/9c8064c6-c1b6-45ad-93fa-5201ab91ba7d"
          },
          {
            "reference": "Organization/a60f7375-7849-4208-bb76-417d2a7d4682"
          }
        ],
        "activity": {
          "text": "Synthetic Example Data Generation"
        },
        "policy": [
          "https://synderai.net/synderai-synthetic-data-policy"
        ],
        "agent": [
          {
            "type": {
              "text": "author"
            },
            "who": {
              "reference": "Device/996c4814-6795-44eb-9a74-f8c32bcbd4ef"
            }
          }
        ],
        "reason": [
          {
            "text": "Interoperability Testing and Training (non-clinical use)"
          }
        ],
        "text": {
          "status": "generated",
          "div": "<div xmlns=\"http://www.w3.org/1999/xhtml\">Provenance for SYNDERAI Synthetic Example Data Resource</div>"
        },
        "recorded": "2022-09-20T01:04:23Z"
      }
    },
    {
      "fullUrl": "urn:uuid:ba7739ff-cfa9-4a18-8942-6b3795e829f2",
      "resource": {
        "resourceType": "PractitionerRole",
        "id": "ba7739ff-cfa9-4a18-8942-6b3795e829f2",
        "meta": {
          "profile": [
            "http://hl7.eu/fhir/base/StructureDefinition/practitionerRole-eu"
          ]
        },
        "text": {
          "status": "generated",
          "div": "<div xmlns=\"http://www.w3.org/1999/xhtml\">Laboratory Role Id: ba7739ff-cfa9-4a18-8942-6b3795e829f2</div>"
        },
        "practitioner": {
          "reference": "urn:uuid:36a439cb-d5ec-445d-a475-b1356efdde26"
        }
      }
    },
    {
      "fullUrl": "urn:uuid:36a439cb-d5ec-445d-a475-b1356efdde26",
      "resource": {
        "resourceType": "Practitioner",
        "id": "36a439cb-d5ec-445d-a475-b1356efdde26",
        "meta": {
          "profile": [
            "http://hl7.eu/fhir/base/StructureDefinition/practitioner-eu"
          ]
        },
        "identifier": [
          {
            "assigner": {
              "display": "HL7 Europe"
            },
            "system": "urn:oid:2.16.840.1.113883.2.51.999",
            "value": "7796e104-e6c0-49e5-868a-e55ca61e5dc6"
          }
        ],
        "name": [
          {
            "prefix": [
              "dr"
            ],
            "given": [
              "Ex"
            ],
            "family": "Ample"
          }
        ],
        "address": [
          {
            "line": [
              "Laboratoire Central Européenne",
              "Boulevard du Jardin Botanique 32"
            ],
            "postalCode": "1000",
            "city": "Brussels",
            "country": "Belgium"
          }
        ],
        "text": {
          "status": "generated",
          "div": "<div xmlns=\"http://www.w3.org/1999/xhtml\">Laboratory: Laboratoire Central Européenne, 1000 Brussels, Belgium</div>"
        }
      }
    }
  ],
  "type": "document",
  "timestamp": "2022-09-20T01:04:23Z"
}
