{
  "resourceType": "Bundle",
  "id": "876e1bf8-2d8a-4fc9-94dc-1f668b6c1c90",
  "meta": {
    "profile": [
      "http://hl7.eu/fhir/laboratory/StructureDefinition/Bundle-eu-lab"
    ]
  },
  "identifier": {
    "assigner": {
      "display": "HL7 Europe"
    },
    "system": "urn:oid:2.16.840.1.113883.2.51.999",
    "value": "c88bad5a-dae0-4db9-a1da-96637e13f361"
  },
  "entry": [
    {
      "fullUrl": "urn:uuid:f09630e5-5f00-46f3-8a80-021635a54b7e",
      "resource": {
        "resourceType": "Composition",
        "id": "f09630e5-5f00-46f3-8a80-021635a54b7e",
        "meta": {
          "profile": [
            "http://hl7.eu/fhir/laboratory/StructureDefinition/Composition-eu-lab"
          ]
        },
        "identifier": {
          "assigner": {
            "display": "HL7 Europe"
          },
          "system": "urn:oid:2.16.840.1.113883.2.51.999",
          "value": "af5d5454-620a-4fc0-ba89-da4817a9460a"
        },
        "author": [
          {
            "reference": "urn:uuid:5eb94c74-e8f5-4486-9ba7-04cbd186e7f6"
          }
        ],
        "category": [
          {
            "coding": [
              {
                "code": "26436-6",
                "system": "http://loinc.org",
                "display": "Laboratory studies (set)"
              }
            ]
          }
        ],
        "type": {
          "coding": [
            {
              "code": "11502-2",
              "system": "http://loinc.org",
              "display": "Laboratory report"
            }
          ],
          "text": "Laboratory Report"
        },
        "section": [
          {
            "code": {
              "coding": [
                {
                  "code": "26436-6",
                  "system": "http://loinc.org",
                  "display": "Laboratory studies (set)"
                }
              ],
              "text": "Laboratory studies"
            },
            "section": [
              {
                "code": {
                  "coding": [
                    {
                      "code": "$18719-5",
                      "system": "http://loinc.org",
                      "display": "Chemistry studies (set)"
                    }
                  ],
                  "text": "Chemistry"
                },
                "entry": [
                  {
                    "reference": "urn:uuid:c478166c-aaaf-400e-83c7-2b9b31f3d85d"
                  },
                  {
                    "reference": "urn:uuid:3a0a0c29-e8f4-45bc-a098-3255941cc2b7"
                  },
                  {
                    "reference": "urn:uuid:5d4ba948-cdb9-4b5c-b17a-4f1e78bd2946"
                  },
                  {
                    "reference": "urn:uuid:c62071e0-b19e-4e22-868e-b54b647df279"
                  },
                  {
                    "reference": "urn:uuid:b1fde8ee-d54e-4a6c-aa66-b044caf7f1c6"
                  },
                  {
                    "reference": "urn:uuid:8cd4da4f-3a93-40c6-b3a9-a44fbf9b66e7"
                  },
                  {
                    "reference": "urn:uuid:60ca3f8f-300b-4b67-81c3-879933ce12f1"
                  },
                  {
                    "reference": "urn:uuid:70391abe-da83-4130-9670-fa109b5a3caa"
                  },
                  {
                    "reference": "urn:uuid:03dee668-dd47-42b4-bb14-3242a2faa367"
                  },
                  {
                    "reference": "urn:uuid:36265444-c3df-4948-940e-1989c3a8f9c4"
                  },
                  {
                    "reference": "urn:uuid:6a9701b6-1548-4e37-a34f-d2c35ba73b76"
                  },
                  {
                    "reference": "urn:uuid:38ec9f62-8cce-400c-b581-c1510eba2659"
                  },
                  {
                    "reference": "urn:uuid:1c4d9251-59c0-4d5a-8f96-87292297be79"
                  },
                  {
                    "reference": "urn:uuid:508831ef-7c17-4033-a4da-4934e8d3bda6"
                  }
                ],
                "text": {
                  "status": "generated",
                  "div": "<div xmlns=\"http://www.w3.org/1999/xhtml\"><h3>Chemistry</h3><table class=\"hl7__eu__lab__report\"><thead><tr><th>Test</th><th>16-AUG-2021</th><th>Reference&#xA0;Range</th><th>Unit</th></tr></thead><tbody><tr><td>Hemoglobin A1c/Hemoglobin.total in Blood</td><td>5.5</td><td>4.5 - 6.4</td><td>%</td></tr><tr><td>Glucose [Mass/volume] in Blood</td><td><strong>198.1 H</strong></td><td>70 - 140</td><td>mg/dL</td></tr><tr><td>Urea nitrogen [Mass/volume] in Blood</td><td>19.3</td><td>7 - 25</td><td>mg/dL</td></tr><tr><td>Creatinine [Mass/volume] in Blood</td><td>0.7</td><td>0.6 - 1.3</td><td>mg/dL</td></tr><tr><td>Calcium [Mass/volume] in Blood</td><td>9.0</td><td>8.5 - 10.5</td><td>mg/dL</td></tr><tr><td>Sodium [Moles/volume] in Blood</td><td>138.4</td><td>135 - 145</td><td>mmol/L</td></tr><tr><td>Potassium [Moles/volume] in Blood</td><td>4.9</td><td>3.5 - 5.1</td><td>mmol/L</td></tr><tr><td>Chloride [Moles/volume] in Blood</td><td>102.3</td><td>98 - 107</td><td>mmol/L</td></tr><tr><td>Carbon dioxide, total [Moles/volume] in Blood</td><td><strong>21.6 L</strong></td><td>22 - 29</td><td>mmol/L</td></tr><tr><td>Cholesterol [Mass/volume] in Serum or Plasma</td><td><strong>257.2 H</strong></td><td>0 - 200</td><td>mg/dL</td></tr><tr><td>Triglyceride [Mass/volume] in Serum or Plasma</td><td><strong>433.0 H</strong></td><td>0 - 199</td><td>mg/dL</td></tr><tr><td>Cholesterol in LDL [Mass/volume] in Serum or Plasma by Direct assay</td><td><strong>131.5 H</strong></td><td>0 - 130</td><td>mg/dL</td></tr><tr><td>Cholesterol in HDL [Mass/volume] in Serum or Plasma</td><td><strong>39.1 L</strong></td><td>40 - 100</td><td>mg/dL</td></tr><tr><td>Microalbumin/Creatinine [Mass Ratio] in Urine</td><td>10.2</td><td>0 - 30</td><td>mg/g</td></tr></tbody></table></div>"
                },
                "title": "Chemistry"
              }
            ],
            "title": "Laboratory Report"
          },
          {
            "text": {
              "status": "generated",
              "div": "<div xmlns=\"http://www.w3.org/1999/xhtml\"><h3>Annotation</h3><table class=\"hl7__eu__lab__report\"><tr><th>Conclusion and Recommendations based on this report and previous findings known to us</th></tr><tr><td>The patient shows significant hyperglycemia with normal HbA1c, suggesting possible acute glucose elevation. Lipid profile reveals marked hypercholesterolemia, hypertriglyceridemia, elevated LDL, and low HDL, indicating high cardiovascular risk. Renal function and electrolytes are within normal limits, except for mildly decreased CO₂, which may suggest mild metabolic acidosis. Urine microalbumin/creatinine is normal. Recommend clinical correlation for diabetes and cardiovascular risk management.</td></tr></table></div>"
            },
            "code": {
              "coding": [
                {
                  "system": "http://loinc.org",
                  "code": "48767-8",
                  "display": "Annotation comment"
                }
              ]
            },
            "title": "Annotation comment"
          }
        ],
        "status": "final",
        "subject": {
          "reference": "urn:uuid:7534a404-1b93-4596-9565-b5df32483a1e",
          "display": "Timothy Smith"
        },
        "date": "2021-08-16T17:48:21Z",
        "title": "Laboratory Report",
        "confidentiality": "N"
      }
    },
    {
      "fullUrl": "urn:uuid:b25e3535-98c1-404c-ba01-a1645f3400ca",
      "resource": {
        "resourceType": "DiagnosticReport",
        "id": "b25e3535-98c1-404c-ba01-a1645f3400ca",
        "meta": {
          "profile": [
            "http://hl7.eu/fhir/laboratory/StructureDefinition/DiagnosticReport-eu-lab"
          ]
        },
        "identifier": [
          {
            "assigner": {
              "display": "HL7 Europe"
            },
            "system": "urn:oid:2.16.840.1.113883.2.51.999",
            "value": "3bc8f76c-50fb-4883-8140-319eca1573e0"
          }
        ],
        "extension": [
          {
            "url": "http://hl7.org/fhir/5.0/StructureDefinition/extension-DiagnosticReport.composition",
            "valueReference": {
              "reference": "urn:uuid:af5d5454-620a-4fc0-ba89-da4817a9460a"
            }
          }
        ],
        "category": [
          {
            "coding": [
              {
                "code": "26436-6",
                "system": "http://loinc.org",
                "display": "Laboratory studies (set)"
              }
            ]
          }
        ],
        "specimen": [
          {
            "reference": "urn:uuid:12099226-ea8b-415b-b4bf-17c90a57ee32"
          },
          {
            "reference": "urn:uuid:39d668f6-2306-4212-bbce-fffd3e6f3f17"
          },
          {
            "reference": "urn:uuid:4aec9d29-26bd-4c2a-861b-02943bef1609"
          }
        ],
        "result": [
          {
            "reference": "urn:uuid:c478166c-aaaf-400e-83c7-2b9b31f3d85d"
          },
          {
            "reference": "urn:uuid:3a0a0c29-e8f4-45bc-a098-3255941cc2b7"
          },
          {
            "reference": "urn:uuid:5d4ba948-cdb9-4b5c-b17a-4f1e78bd2946"
          },
          {
            "reference": "urn:uuid:c62071e0-b19e-4e22-868e-b54b647df279"
          },
          {
            "reference": "urn:uuid:b1fde8ee-d54e-4a6c-aa66-b044caf7f1c6"
          },
          {
            "reference": "urn:uuid:8cd4da4f-3a93-40c6-b3a9-a44fbf9b66e7"
          },
          {
            "reference": "urn:uuid:60ca3f8f-300b-4b67-81c3-879933ce12f1"
          },
          {
            "reference": "urn:uuid:70391abe-da83-4130-9670-fa109b5a3caa"
          },
          {
            "reference": "urn:uuid:03dee668-dd47-42b4-bb14-3242a2faa367"
          },
          {
            "reference": "urn:uuid:36265444-c3df-4948-940e-1989c3a8f9c4"
          },
          {
            "reference": "urn:uuid:6a9701b6-1548-4e37-a34f-d2c35ba73b76"
          },
          {
            "reference": "urn:uuid:38ec9f62-8cce-400c-b581-c1510eba2659"
          },
          {
            "reference": "urn:uuid:1c4d9251-59c0-4d5a-8f96-87292297be79"
          },
          {
            "reference": "urn:uuid:508831ef-7c17-4033-a4da-4934e8d3bda6"
          }
        ],
        "status": "registered",
        "code": {
          "coding": [
            {
              "code": "11502-2",
              "system": "http://loinc.org",
              "display": "Laboratory report"
            }
          ]
        },
        "subject": {
          "reference": "urn:uuid:7534a404-1b93-4596-9565-b5df32483a1e",
          "display": "Timothy Smith"
        }
      }
    },
    {
      "fullUrl": "urn:uuid:7534a404-1b93-4596-9565-b5df32483a1e",
      "resource": {
        "resourceType": "Patient",
        "id": "7534a404-1b93-4596-9565-b5df32483a1e",
        "meta": {
          "security": [
            {
              "system": "http://terminology.hl7.org/CodeSystem/v3-ActReason",
              "code": "HTEST"
            },
            {
              "system": "http://terminology.hl7.org/CodeSystem/v3-ActReason",
              "code": "TRAIN"
            }
          ],
          "tag": [
            {
              "system": "https://synderai.net/fhir/CodeSystem/tags",
              "code": "synthetic",
              "display": "SYNDERAI Synthetic data"
            }
          ],
          "profile": [
            "http://hl7.eu/fhir/base/StructureDefinition/patient-eu-core"
          ]
        },
        "identifier": [
          {
            "type": {
              "coding": [
                {
                  "code": "PT",
                  "system": "http://terminology.hl7.org/CodeSystem/v2-0203"
                }
              ]
            },
            "system": "http://ec.europa.eu/identifier/eci",
            "value": "8029-862360-6"
          },
          {
            "type": {
              "coding": [
                {
                  "code": "MR",
                  "system": "http://terminology.hl7.org/CodeSystem/v2-0203"
                }
              ]
            },
            "system": "http://local.setting.eu/identifier",
            "value": "1fe71aa8-fb8e-4622-d398-65f6235c4fef"
          }
        ],
        "name": [
          {
            "family": "Smith"
          },
          {
            "given": [
              "Timothy"
            ]
          },
          {
            "text": "Timothy Smith"
          }
        ],
        "address": [
          {
            "line": [
              "9 Jeffrey orchard"
            ],
            "use": "home",
            "type": "physical",
            "postalCode": "NW1",
            "city": "North Joshuaville",
            "country": "United Kingdom"
          }
        ],
        "telecom": [
          {
            "system": "phone",
            "value": "+44(0)28 9018592"
          }
        ],
        "extension": [
          {
            "url": "http://hl7.org/fhir/StructureDefinition/patient-nationality",
            "valueCodeableConcept": {
              "coding": [
                {
                  "code": "GB",
                  "system": "http://hl7.org/fhir/ValueSet/country"
                }
              ]
            }
          }
        ],
        "text": {
          "status": "generated",
          "div": "<div xmlns=\"http://www.w3.org/1999/xhtml\"><table class=\"hl7__ips\"><tr><td>Timothy Smith</td><td>male</td><td>10-Sep-1941</td></tr></table></div>"
        },
        "gender": "male",
        "birthDate": "1941-09-10"
      }
    },
    {
      "fullUrl": "urn:uuid:dee9713c-7835-43e3-8def-7bb4a6ce53bf",
      "resource": {
        "resourceType": "ServiceRequest",
        "id": "dee9713c-7835-43e3-8def-7bb4a6ce53bf",
        "meta": {
          "profile": [
            "http://hl7.eu/fhir/laboratory/StructureDefinition/ServiceRequest-eu-lab"
          ]
        },
        "identifier": [
          {
            "system": "http://example.org",
            "value": "831c196b-77c7-45c6-82e5-80473d2e17c3"
          }
        ],
        "specimen": [
          {
            "reference": "urn:uuid:12099226-ea8b-415b-b4bf-17c90a57ee32"
          },
          {
            "reference": "urn:uuid:39d668f6-2306-4212-bbce-fffd3e6f3f17"
          },
          {
            "reference": "urn:uuid:4aec9d29-26bd-4c2a-861b-02943bef1609"
          }
        ],
        "reasonCode": [
          {
            "coding": [
              {
                "code": "88805009",
                "system": "http://snomed.info/sct",
                "display": "Chronic congestive heart failure"
              }
            ]
          },
          {
            "coding": [
              {
                "code": "60573004",
                "system": "http://snomed.info/sct",
                "display": "Aortic valve stenosis"
              }
            ]
          },
          {
            "coding": [
              {
                "code": "414545008",
                "system": "http://snomed.info/sct",
                "display": "Ischemic heart disease"
              }
            ]
          },
          {
            "coding": [
              {
                "code": "64859006",
                "system": "http://snomed.info/sct",
                "display": "Osteoporosis"
              }
            ]
          },
          {
            "coding": [
              {
                "code": "6525002",
                "system": "http://snomed.info/sct",
                "display": "Dependent drug abuse"
              }
            ]
          },
          {
            "coding": [
              {
                "code": "55822004",
                "system": "http://snomed.info/sct",
                "display": "Hyperlipidemia"
              }
            ]
          },
          {
            "coding": [
              {
                "code": "78275009",
                "system": "http://snomed.info/sct",
                "display": "Obstructive sleep apnea syndrome"
              }
            ]
          },
          {
            "coding": [
              {
                "code": "39898005",
                "system": "http://snomed.info/sct",
                "display": "Sleep disorder"
              }
            ]
          },
          {
            "coding": [
              {
                "code": "401314000",
                "system": "http://snomed.info/sct",
                "display": "Acute non-ST segment elevation myocardial infarction"
              }
            ]
          },
          {
            "coding": [
              {
                "code": "124171000119105",
                "system": "http://snomed.info/sct",
                "display": "Chronic intractable migraine without aura"
              }
            ]
          },
          {
            "coding": [
              {
                "code": "196416002",
                "system": "http://snomed.info/sct",
                "display": "Impacted molars"
              }
            ]
          },
          {
            "coding": [
              {
                "code": "59621000",
                "system": "http://snomed.info/sct",
                "display": "Essential hypertension"
              }
            ]
          },
          {
            "coding": [
              {
                "code": "80394007",
                "system": "http://snomed.info/sct",
                "display": "Hyperglycemia"
              }
            ]
          },
          {
            "coding": [
              {
                "code": "237602007",
                "system": "http://snomed.info/sct",
                "display": "Metabolic syndrome X"
              }
            ]
          },
          {
            "coding": [
              {
                "code": "302870006",
                "system": "http://snomed.info/sct",
                "display": "Hypertriglyceridemia"
              }
            ]
          },
          {
            "coding": [
              {
                "code": "44054006",
                "system": "http://snomed.info/sct",
                "display": "Type 2 diabetes mellitus"
              }
            ]
          },
          {
            "coding": [
              {
                "code": "271737000",
                "system": "http://snomed.info/sct",
                "display": "Anemia"
              }
            ]
          },
          {
            "coding": [
              {
                "code": "15777000",
                "system": "http://snomed.info/sct",
                "display": "Prediabetes"
              }
            ]
          }
        ],
        "status": "active",
        "intent": "order",
        "code": {
          "coding": [
            {
              "code": "108252007",
              "system": "http://snomed.info/sct",
              "display": "Laboratory procedure"
            }
          ]
        },
        "subject": {
          "reference": "urn:uuid:7534a404-1b93-4596-9565-b5df32483a1e",
          "display": "Timothy Smith"
        },
        "requester": {
          "reference": "urn:uuid:bf2087fe-ccc8-4fc5-af78-6a2e73f4bbdb"
        }
      }
    },
    {
      "fullUrl": "urn:uuid:bf2087fe-ccc8-4fc5-af78-6a2e73f4bbdb",
      "resource": {
        "resourceType": "PractitionerRole",
        "id": "bf2087fe-ccc8-4fc5-af78-6a2e73f4bbdb",
        "meta": {
          "profile": [
            "http://hl7.eu/fhir/base/StructureDefinition/practitionerRole-eu"
          ]
        },
        "text": {
          "status": "generated",
          "div": "<div xmlns=\"http://www.w3.org/1999/xhtml\">Provider Role Id: bf2087fe-ccc8-4fc5-af78-6a2e73f4bbdb</div>"
        },
        "organization": {
          "reference": "urn:uuid:d5922191-8a6c-4c3b-b122-5b99b01db35e"
        }
      }
    },
    {
      "fullUrl": "urn:uuid:d5922191-8a6c-4c3b-b122-5b99b01db35e",
      "resource": {
        "resourceType": "Organization",
        "id": "d5922191-8a6c-4c3b-b122-5b99b01db35e",
        "meta": {
          "profile": [
            "http://hl7.eu/fhir/base/StructureDefinition/organization-eu"
          ]
        },
        "identifier": [
          {
            "assigner": {
              "display": "HL7 Europe"
            },
            "system": "urn:oid:2.16.840.1.113883.2.51.999",
            "value": "f7863285-cf70-42a9-b217-f0dd51305935"
          }
        ],
        "address": [
          {
            "city": "London",
            "postalCode": "SE1 7",
            "country": "United Kingdom"
          }
        ],
        "text": {
          "status": "generated",
          "div": "<div xmlns=\"http://www.w3.org/1999/xhtml\">Provider Organization: Evelina Children&#039;s Hospital</div>"
        },
        "name": "Evelina Children&#039;s Hospital"
      }
    },
    {
      "fullUrl": "urn:uuid:12099226-ea8b-415b-b4bf-17c90a57ee32",
      "resource": {
        "resourceType": "Specimen",
        "id": "12099226-ea8b-415b-b4bf-17c90a57ee32",
        "meta": {
          "profile": [
            "http://hl7.eu/fhir/laboratory/StructureDefinition/Specimen-eu-lab"
          ]
        },
        "collection": {
          "collectedDateTime": "2021-08-16"
        },
        "text": {
          "status": "generated",
          "div": "<div xmlns=\"http://www.w3.org/1999/xhtml\"><table class=\"hl7__eu__lab__report\"><tr><th>Specimen</th><th>Collection Date</th></tr><tr><td>Whole blood specimen (specimen)</td><td><span class=\"nb\">16-Aug-2021</span></td></tr></table></div>"
        },
        "type": {
          "coding": [
            {
              "code": "258580003",
              "system": "http://snomed.info/sct",
              "display": "Whole blood specimen (specimen)"
            }
          ]
        }
      }
    },
    {
      "fullUrl": "urn:uuid:39d668f6-2306-4212-bbce-fffd3e6f3f17",
      "resource": {
        "resourceType": "Specimen",
        "id": "39d668f6-2306-4212-bbce-fffd3e6f3f17",
        "meta": {
          "profile": [
            "http://hl7.eu/fhir/laboratory/StructureDefinition/Specimen-eu-lab"
          ]
        },
        "collection": {
          "collectedDateTime": "2021-08-16"
        },
        "text": {
          "status": "generated",
          "div": "<div xmlns=\"http://www.w3.org/1999/xhtml\"><table class=\"hl7__eu__lab__report\"><tr><th>Specimen</th><th>Collection Date</th></tr><tr><td>Acellular blood (serum or plasma) specimen</td><td><span class=\"nb\">16-Aug-2021</span></td></tr></table></div>"
        },
        "type": {
          "coding": [
            {
              "code": "122592007",
              "system": "http://snomed.info/sct",
              "display": "Acellular blood (serum or plasma) specimen"
            }
          ]
        }
      }
    },
    {
      "fullUrl": "urn:uuid:4aec9d29-26bd-4c2a-861b-02943bef1609",
      "resource": {
        "resourceType": "Specimen",
        "id": "4aec9d29-26bd-4c2a-861b-02943bef1609",
        "meta": {
          "profile": [
            "http://hl7.eu/fhir/laboratory/StructureDefinition/Specimen-eu-lab"
          ]
        },
        "collection": {
          "collectedDateTime": "2021-08-16"
        },
        "text": {
          "status": "generated",
          "div": "<div xmlns=\"http://www.w3.org/1999/xhtml\"><table class=\"hl7__eu__lab__report\"><tr><th>Specimen</th><th>Collection Date</th></tr><tr><td>Urine specimen</td><td><span class=\"nb\">16-Aug-2021</span></td></tr></table></div>"
        },
        "type": {
          "coding": [
            {
              "code": "122575003",
              "system": "http://snomed.info/sct",
              "display": "Urine specimen"
            }
          ]
        }
      }
    },
    {
      "fullUrl": "urn:uuid:c478166c-aaaf-400e-83c7-2b9b31f3d85d",
      "resource": {
        "resourceType": "Observation",
        "id": "c478166c-aaaf-400e-83c7-2b9b31f3d85d",
        "meta": {
          "profile": [
            "http://hl7.eu/fhir/laboratory/StructureDefinition/Observation-resultslab-eu-lab"
          ]
        },
        "performer": [
          {
            "display": "The Central European Lab"
          }
        ],
        "category": [
          {
            "coding": [
              {
                "system": "http://terminology.hl7.org/CodeSystem/observation-category",
                "code": "laboratory"
              }
            ]
          }
        ],
        "code": {
          "coding": [
            {
              "code": "4548-4",
              "system": "http://loinc.org",
              "display": "Hemoglobin A1c/Hemoglobin.total in Blood"
            }
          ],
          "text": "Hemoglobin A1c/Hemoglobin.total in Blood"
        },
        "valueQuantity": {
          "system": "http://unitsofmeasure.org",
          "value": 5.5,
          "unit": "%",
          "code": "%"
        },
        "referenceRange": [
          {
            "low": {
              "value": 4.5,
              "code": "%",
              "system": "http://unitsofmeasure.org"
            }
          },
          {
            "high": {
              "value": 6.4,
              "code": "%",
              "system": "http://unitsofmeasure.org"
            }
          }
        ],
        "text": {
          "status": "generated",
          "div": "<div xmlns=\"http://www.w3.org/1999/xhtml\"><table class=\"hl7__eu__lab__report\"><tr><th>Test</th><th>16-Aug-2021</th><th>Reference&#xA0;Range</th><th>Unit</th></tr><tr><td>Hemoglobin A1c/Hemoglobin.total in Blood</td><td>5.5</td><td>4.5 - 6.4</td><td></td><td>%</td></tr></table></div>"
        },
        "status": "final",
        "subject": {
          "reference": "urn:uuid:7534a404-1b93-4596-9565-b5df32483a1e",
          "display": "Timothy Smith"
        },
        "effectiveDateTime": "2021-08-16T15:48:21Z",
        "specimen": {
          "reference": "urn:uuid:12099226-ea8b-415b-b4bf-17c90a57ee32"
        }
      }
    },
    {
      "fullUrl": "urn:uuid:3a0a0c29-e8f4-45bc-a098-3255941cc2b7",
      "resource": {
        "resourceType": "Observation",
        "id": "3a0a0c29-e8f4-45bc-a098-3255941cc2b7",
        "meta": {
          "profile": [
            "http://hl7.eu/fhir/laboratory/StructureDefinition/Observation-resultslab-eu-lab"
          ]
        },
        "performer": [
          {
            "display": "The Central European Lab"
          }
        ],
        "category": [
          {
            "coding": [
              {
                "system": "http://terminology.hl7.org/CodeSystem/observation-category",
                "code": "laboratory"
              }
            ]
          }
        ],
        "code": {
          "coding": [
            {
              "code": "2339-0",
              "system": "http://loinc.org",
              "display": "Glucose [Mass/volume] in Blood"
            }
          ],
          "text": "Glucose [Mass/volume] in Blood"
        },
        "valueQuantity": {
          "system": "http://unitsofmeasure.org",
          "value": 198.1,
          "unit": "mg/dL",
          "code": "mg/dL"
        },
        "referenceRange": [
          {
            "low": {
              "value": 70,
              "code": "mg/dL",
              "system": "http://unitsofmeasure.org"
            }
          },
          {
            "high": {
              "value": 140,
              "code": "mg/dL",
              "system": "http://unitsofmeasure.org"
            }
          }
        ],
        "interpretation": [
          {
            "coding": [
              {
                "code": "H",
                "system": "http://terminology.hl7.org/CodeSystem/v3-ObservationInterpretation",
                "display": "High"
              }
            ]
          }
        ],
        "text": {
          "status": "generated",
          "div": "<div xmlns=\"http://www.w3.org/1999/xhtml\"><table class=\"hl7__eu__lab__report\"><tr><th>Test</th><th>16-Aug-2021</th><th>Reference&#xA0;Range</th><th>Unit</th></tr><tr><td>Glucose [Mass/volume] in Blood</td><td>198.1</td><td>70 - 140</td><td>H</td><td>mg/dL</td></tr></table></div>"
        },
        "status": "final",
        "subject": {
          "reference": "urn:uuid:7534a404-1b93-4596-9565-b5df32483a1e",
          "display": "Timothy Smith"
        },
        "effectiveDateTime": "2021-08-16T15:48:21Z",
        "specimen": {
          "reference": "urn:uuid:12099226-ea8b-415b-b4bf-17c90a57ee32"
        }
      }
    },
    {
      "fullUrl": "urn:uuid:5d4ba948-cdb9-4b5c-b17a-4f1e78bd2946",
      "resource": {
        "resourceType": "Observation",
        "id": "5d4ba948-cdb9-4b5c-b17a-4f1e78bd2946",
        "meta": {
          "profile": [
            "http://hl7.eu/fhir/laboratory/StructureDefinition/Observation-resultslab-eu-lab"
          ]
        },
        "performer": [
          {
            "display": "The Central European Lab"
          }
        ],
        "category": [
          {
            "coding": [
              {
                "system": "http://terminology.hl7.org/CodeSystem/observation-category",
                "code": "laboratory"
              }
            ]
          }
        ],
        "code": {
          "coding": [
            {
              "code": "6299-2",
              "system": "http://loinc.org",
              "display": "Urea nitrogen [Mass/volume] in Blood"
            }
          ],
          "text": "Urea nitrogen [Mass/volume] in Blood"
        },
        "valueQuantity": {
          "system": "http://unitsofmeasure.org",
          "value": 19.3,
          "unit": "mg/dL",
          "code": "mg/dL"
        },
        "referenceRange": [
          {
            "low": {
              "value": 7,
              "code": "mg/dL",
              "system": "http://unitsofmeasure.org"
            }
          },
          {
            "high": {
              "value": 25,
              "code": "mg/dL",
              "system": "http://unitsofmeasure.org"
            }
          }
        ],
        "text": {
          "status": "generated",
          "div": "<div xmlns=\"http://www.w3.org/1999/xhtml\"><table class=\"hl7__eu__lab__report\"><tr><th>Test</th><th>16-Aug-2021</th><th>Reference&#xA0;Range</th><th>Unit</th></tr><tr><td>Urea nitrogen [Mass/volume] in Blood</td><td>19.3</td><td>7 - 25</td><td></td><td>mg/dL</td></tr></table></div>"
        },
        "status": "final",
        "subject": {
          "reference": "urn:uuid:7534a404-1b93-4596-9565-b5df32483a1e",
          "display": "Timothy Smith"
        },
        "effectiveDateTime": "2021-08-16T15:48:21Z",
        "specimen": {
          "reference": "urn:uuid:12099226-ea8b-415b-b4bf-17c90a57ee32"
        }
      }
    },
    {
      "fullUrl": "urn:uuid:c62071e0-b19e-4e22-868e-b54b647df279",
      "resource": {
        "resourceType": "Observation",
        "id": "c62071e0-b19e-4e22-868e-b54b647df279",
        "meta": {
          "profile": [
            "http://hl7.eu/fhir/laboratory/StructureDefinition/Observation-resultslab-eu-lab"
          ]
        },
        "performer": [
          {
            "display": "The Central European Lab"
          }
        ],
        "category": [
          {
            "coding": [
              {
                "system": "http://terminology.hl7.org/CodeSystem/observation-category",
                "code": "laboratory"
              }
            ]
          }
        ],
        "code": {
          "coding": [
            {
              "code": "38483-4",
              "system": "http://loinc.org",
              "display": "Creatinine [Mass/volume] in Blood"
            }
          ],
          "text": "Creatinine [Mass/volume] in Blood"
        },
        "valueQuantity": {
          "system": "http://unitsofmeasure.org",
          "value": 0.7,
          "unit": "mg/dL",
          "code": "mg/dL"
        },
        "referenceRange": [
          {
            "low": {
              "value": 0.6,
              "code": "mg/dL",
              "system": "http://unitsofmeasure.org"
            }
          },
          {
            "high": {
              "value": 1.3,
              "code": "mg/dL",
              "system": "http://unitsofmeasure.org"
            }
          }
        ],
        "text": {
          "status": "generated",
          "div": "<div xmlns=\"http://www.w3.org/1999/xhtml\"><table class=\"hl7__eu__lab__report\"><tr><th>Test</th><th>16-Aug-2021</th><th>Reference&#xA0;Range</th><th>Unit</th></tr><tr><td>Creatinine [Mass/volume] in Blood</td><td>0.7</td><td>0.6 - 1.3</td><td></td><td>mg/dL</td></tr></table></div>"
        },
        "status": "final",
        "subject": {
          "reference": "urn:uuid:7534a404-1b93-4596-9565-b5df32483a1e",
          "display": "Timothy Smith"
        },
        "effectiveDateTime": "2021-08-16T15:48:21Z",
        "specimen": {
          "reference": "urn:uuid:12099226-ea8b-415b-b4bf-17c90a57ee32"
        }
      }
    },
    {
      "fullUrl": "urn:uuid:b1fde8ee-d54e-4a6c-aa66-b044caf7f1c6",
      "resource": {
        "resourceType": "Observation",
        "id": "b1fde8ee-d54e-4a6c-aa66-b044caf7f1c6",
        "meta": {
          "profile": [
            "http://hl7.eu/fhir/laboratory/StructureDefinition/Observation-resultslab-eu-lab"
          ]
        },
        "performer": [
          {
            "display": "The Central European Lab"
          }
        ],
        "category": [
          {
            "coding": [
              {
                "system": "http://terminology.hl7.org/CodeSystem/observation-category",
                "code": "laboratory"
              }
            ]
          }
        ],
        "code": {
          "coding": [
            {
              "code": "49765-1",
              "system": "http://loinc.org",
              "display": "Calcium [Mass/volume] in Blood"
            }
          ],
          "text": "Calcium [Mass/volume] in Blood"
        },
        "valueQuantity": {
          "system": "http://unitsofmeasure.org",
          "value": 9,
          "unit": "mg/dL",
          "code": "mg/dL"
        },
        "referenceRange": [
          {
            "low": {
              "value": 8.5,
              "code": "mg/dL",
              "system": "http://unitsofmeasure.org"
            }
          },
          {
            "high": {
              "value": 10.5,
              "code": "mg/dL",
              "system": "http://unitsofmeasure.org"
            }
          }
        ],
        "text": {
          "status": "generated",
          "div": "<div xmlns=\"http://www.w3.org/1999/xhtml\"><table class=\"hl7__eu__lab__report\"><tr><th>Test</th><th>16-Aug-2021</th><th>Reference&#xA0;Range</th><th>Unit</th></tr><tr><td>Calcium [Mass/volume] in Blood</td><td>9.0</td><td>8.5 - 10.5</td><td></td><td>mg/dL</td></tr></table></div>"
        },
        "status": "final",
        "subject": {
          "reference": "urn:uuid:7534a404-1b93-4596-9565-b5df32483a1e",
          "display": "Timothy Smith"
        },
        "effectiveDateTime": "2021-08-16T15:48:21Z",
        "specimen": {
          "reference": "urn:uuid:12099226-ea8b-415b-b4bf-17c90a57ee32"
        }
      }
    },
    {
      "fullUrl": "urn:uuid:8cd4da4f-3a93-40c6-b3a9-a44fbf9b66e7",
      "resource": {
        "resourceType": "Observation",
        "id": "8cd4da4f-3a93-40c6-b3a9-a44fbf9b66e7",
        "meta": {
          "profile": [
            "http://hl7.eu/fhir/laboratory/StructureDefinition/Observation-resultslab-eu-lab"
          ]
        },
        "performer": [
          {
            "display": "The Central European Lab"
          }
        ],
        "category": [
          {
            "coding": [
              {
                "system": "http://terminology.hl7.org/CodeSystem/observation-category",
                "code": "laboratory"
              }
            ]
          }
        ],
        "code": {
          "coding": [
            {
              "code": "2947-0",
              "system": "http://loinc.org",
              "display": "Sodium [Moles/volume] in Blood"
            }
          ],
          "text": "Sodium [Moles/volume] in Blood"
        },
        "valueQuantity": {
          "system": "http://unitsofmeasure.org",
          "value": 138.4,
          "unit": "mmol/L",
          "code": "mmol/L"
        },
        "referenceRange": [
          {
            "low": {
              "value": 135,
              "code": "mmol/L",
              "system": "http://unitsofmeasure.org"
            }
          },
          {
            "high": {
              "value": 145,
              "code": "mmol/L",
              "system": "http://unitsofmeasure.org"
            }
          }
        ],
        "text": {
          "status": "generated",
          "div": "<div xmlns=\"http://www.w3.org/1999/xhtml\"><table class=\"hl7__eu__lab__report\"><tr><th>Test</th><th>16-Aug-2021</th><th>Reference&#xA0;Range</th><th>Unit</th></tr><tr><td>Sodium [Moles/volume] in Blood</td><td>138.4</td><td>135 - 145</td><td></td><td>mmol/L</td></tr></table></div>"
        },
        "status": "final",
        "subject": {
          "reference": "urn:uuid:7534a404-1b93-4596-9565-b5df32483a1e",
          "display": "Timothy Smith"
        },
        "effectiveDateTime": "2021-08-16T15:48:21Z",
        "specimen": {
          "reference": "urn:uuid:12099226-ea8b-415b-b4bf-17c90a57ee32"
        }
      }
    },
    {
      "fullUrl": "urn:uuid:60ca3f8f-300b-4b67-81c3-879933ce12f1",
      "resource": {
        "resourceType": "Observation",
        "id": "60ca3f8f-300b-4b67-81c3-879933ce12f1",
        "meta": {
          "profile": [
            "http://hl7.eu/fhir/laboratory/StructureDefinition/Observation-resultslab-eu-lab"
          ]
        },
        "performer": [
          {
            "display": "The Central European Lab"
          }
        ],
        "category": [
          {
            "coding": [
              {
                "system": "http://terminology.hl7.org/CodeSystem/observation-category",
                "code": "laboratory"
              }
            ]
          }
        ],
        "code": {
          "coding": [
            {
              "code": "6298-4",
              "system": "http://loinc.org",
              "display": "Potassium [Moles/volume] in Blood"
            }
          ],
          "text": "Potassium [Moles/volume] in Blood"
        },
        "valueQuantity": {
          "system": "http://unitsofmeasure.org",
          "value": 4.9,
          "unit": "mmol/L",
          "code": "mmol/L"
        },
        "referenceRange": [
          {
            "low": {
              "value": 3.5,
              "code": "mmol/L",
              "system": "http://unitsofmeasure.org"
            }
          },
          {
            "high": {
              "value": 5.1,
              "code": "mmol/L",
              "system": "http://unitsofmeasure.org"
            }
          }
        ],
        "text": {
          "status": "generated",
          "div": "<div xmlns=\"http://www.w3.org/1999/xhtml\"><table class=\"hl7__eu__lab__report\"><tr><th>Test</th><th>16-Aug-2021</th><th>Reference&#xA0;Range</th><th>Unit</th></tr><tr><td>Potassium [Moles/volume] in Blood</td><td>4.9</td><td>3.5 - 5.1</td><td></td><td>mmol/L</td></tr></table></div>"
        },
        "status": "final",
        "subject": {
          "reference": "urn:uuid:7534a404-1b93-4596-9565-b5df32483a1e",
          "display": "Timothy Smith"
        },
        "effectiveDateTime": "2021-08-16T15:48:21Z",
        "specimen": {
          "reference": "urn:uuid:12099226-ea8b-415b-b4bf-17c90a57ee32"
        }
      }
    },
    {
      "fullUrl": "urn:uuid:70391abe-da83-4130-9670-fa109b5a3caa",
      "resource": {
        "resourceType": "Observation",
        "id": "70391abe-da83-4130-9670-fa109b5a3caa",
        "meta": {
          "profile": [
            "http://hl7.eu/fhir/laboratory/StructureDefinition/Observation-resultslab-eu-lab"
          ]
        },
        "performer": [
          {
            "display": "The Central European Lab"
          }
        ],
        "category": [
          {
            "coding": [
              {
                "system": "http://terminology.hl7.org/CodeSystem/observation-category",
                "code": "laboratory"
              }
            ]
          }
        ],
        "code": {
          "coding": [
            {
              "code": "2069-3",
              "system": "http://loinc.org",
              "display": "Chloride [Moles/volume] in Blood"
            }
          ],
          "text": "Chloride [Moles/volume] in Blood"
        },
        "valueQuantity": {
          "system": "http://unitsofmeasure.org",
          "value": 102.3,
          "unit": "mmol/L",
          "code": "mmol/L"
        },
        "referenceRange": [
          {
            "low": {
              "value": 98,
              "code": "mmol/L",
              "system": "http://unitsofmeasure.org"
            }
          },
          {
            "high": {
              "value": 107,
              "code": "mmol/L",
              "system": "http://unitsofmeasure.org"
            }
          }
        ],
        "text": {
          "status": "generated",
          "div": "<div xmlns=\"http://www.w3.org/1999/xhtml\"><table class=\"hl7__eu__lab__report\"><tr><th>Test</th><th>16-Aug-2021</th><th>Reference&#xA0;Range</th><th>Unit</th></tr><tr><td>Chloride [Moles/volume] in Blood</td><td>102.3</td><td>98 - 107</td><td></td><td>mmol/L</td></tr></table></div>"
        },
        "status": "final",
        "subject": {
          "reference": "urn:uuid:7534a404-1b93-4596-9565-b5df32483a1e",
          "display": "Timothy Smith"
        },
        "effectiveDateTime": "2021-08-16T15:48:21Z",
        "specimen": {
          "reference": "urn:uuid:12099226-ea8b-415b-b4bf-17c90a57ee32"
        }
      }
    },
    {
      "fullUrl": "urn:uuid:03dee668-dd47-42b4-bb14-3242a2faa367",
      "resource": {
        "resourceType": "Observation",
        "id": "03dee668-dd47-42b4-bb14-3242a2faa367",
        "meta": {
          "profile": [
            "http://hl7.eu/fhir/laboratory/StructureDefinition/Observation-resultslab-eu-lab"
          ]
        },
        "performer": [
          {
            "display": "The Central European Lab"
          }
        ],
        "category": [
          {
            "coding": [
              {
                "system": "http://terminology.hl7.org/CodeSystem/observation-category",
                "code": "laboratory"
              }
            ]
          }
        ],
        "code": {
          "coding": [
            {
              "code": "20565-8",
              "system": "http://loinc.org",
              "display": "Carbon dioxide, total [Moles/volume] in Blood"
            }
          ],
          "text": "Carbon dioxide, total [Moles/volume] in Blood"
        },
        "valueQuantity": {
          "system": "http://unitsofmeasure.org",
          "value": 21.6,
          "unit": "mmol/L",
          "code": "mmol/L"
        },
        "referenceRange": [
          {
            "low": {
              "value": 22,
              "code": "mmol/L",
              "system": "http://unitsofmeasure.org"
            }
          },
          {
            "high": {
              "value": 29,
              "code": "mmol/L",
              "system": "http://unitsofmeasure.org"
            }
          }
        ],
        "interpretation": [
          {
            "coding": [
              {
                "code": "L",
                "system": "http://terminology.hl7.org/CodeSystem/v3-ObservationInterpretation",
                "display": "Low"
              }
            ]
          }
        ],
        "text": {
          "status": "generated",
          "div": "<div xmlns=\"http://www.w3.org/1999/xhtml\"><table class=\"hl7__eu__lab__report\"><tr><th>Test</th><th>16-Aug-2021</th><th>Reference&#xA0;Range</th><th>Unit</th></tr><tr><td>Carbon dioxide, total [Moles/volume] in Blood</td><td>21.6</td><td>22 - 29</td><td>L</td><td>mmol/L</td></tr></table></div>"
        },
        "status": "final",
        "subject": {
          "reference": "urn:uuid:7534a404-1b93-4596-9565-b5df32483a1e",
          "display": "Timothy Smith"
        },
        "effectiveDateTime": "2021-08-16T15:48:21Z",
        "specimen": {
          "reference": "urn:uuid:12099226-ea8b-415b-b4bf-17c90a57ee32"
        }
      }
    },
    {
      "fullUrl": "urn:uuid:36265444-c3df-4948-940e-1989c3a8f9c4",
      "resource": {
        "resourceType": "Observation",
        "id": "36265444-c3df-4948-940e-1989c3a8f9c4",
        "meta": {
          "profile": [
            "http://hl7.eu/fhir/laboratory/StructureDefinition/Observation-resultslab-eu-lab"
          ]
        },
        "performer": [
          {
            "display": "The Central European Lab"
          }
        ],
        "category": [
          {
            "coding": [
              {
                "system": "http://terminology.hl7.org/CodeSystem/observation-category",
                "code": "laboratory"
              }
            ]
          }
        ],
        "code": {
          "coding": [
            {
              "code": "2093-3",
              "system": "http://loinc.org",
              "display": "Cholesterol [Mass/volume] in Serum or Plasma"
            }
          ],
          "text": "Cholesterol [Mass/volume] in Serum or Plasma"
        },
        "valueQuantity": {
          "system": "http://unitsofmeasure.org",
          "value": 257.2,
          "unit": "mg/dL",
          "code": "mg/dL"
        },
        "referenceRange": [
          {
            "low": {
              "value": 0,
              "code": "mg/dL",
              "system": "http://unitsofmeasure.org"
            }
          },
          {
            "high": {
              "value": 200,
              "code": "mg/dL",
              "system": "http://unitsofmeasure.org"
            }
          }
        ],
        "interpretation": [
          {
            "coding": [
              {
                "code": "H",
                "system": "http://terminology.hl7.org/CodeSystem/v3-ObservationInterpretation",
                "display": "High"
              }
            ]
          }
        ],
        "text": {
          "status": "generated",
          "div": "<div xmlns=\"http://www.w3.org/1999/xhtml\"><table class=\"hl7__eu__lab__report\"><tr><th>Test</th><th>16-Aug-2021</th><th>Reference&#xA0;Range</th><th>Unit</th></tr><tr><td>Cholesterol [Mass/volume] in Serum or Plasma</td><td>257.2</td><td>0 - 200</td><td>H</td><td>mg/dL</td></tr></table></div>"
        },
        "status": "final",
        "subject": {
          "reference": "urn:uuid:7534a404-1b93-4596-9565-b5df32483a1e",
          "display": "Timothy Smith"
        },
        "effectiveDateTime": "2021-08-16T15:48:21Z",
        "specimen": {
          "reference": "urn:uuid:39d668f6-2306-4212-bbce-fffd3e6f3f17"
        }
      }
    },
    {
      "fullUrl": "urn:uuid:6a9701b6-1548-4e37-a34f-d2c35ba73b76",
      "resource": {
        "resourceType": "Observation",
        "id": "6a9701b6-1548-4e37-a34f-d2c35ba73b76",
        "meta": {
          "profile": [
            "http://hl7.eu/fhir/laboratory/StructureDefinition/Observation-resultslab-eu-lab"
          ]
        },
        "performer": [
          {
            "display": "The Central European Lab"
          }
        ],
        "category": [
          {
            "coding": [
              {
                "system": "http://terminology.hl7.org/CodeSystem/observation-category",
                "code": "laboratory"
              }
            ]
          }
        ],
        "code": {
          "coding": [
            {
              "code": "2571-8",
              "system": "http://loinc.org",
              "display": "Triglyceride [Mass/volume] in Serum or Plasma"
            }
          ],
          "text": "Triglyceride [Mass/volume] in Serum or Plasma"
        },
        "valueQuantity": {
          "system": "http://unitsofmeasure.org",
          "value": 433,
          "unit": "mg/dL",
          "code": "mg/dL"
        },
        "referenceRange": [
          {
            "low": {
              "value": 0,
              "code": "mg/dL",
              "system": "http://unitsofmeasure.org"
            }
          },
          {
            "high": {
              "value": 199,
              "code": "mg/dL",
              "system": "http://unitsofmeasure.org"
            }
          }
        ],
        "interpretation": [
          {
            "coding": [
              {
                "code": "H",
                "system": "http://terminology.hl7.org/CodeSystem/v3-ObservationInterpretation",
                "display": "High"
              }
            ]
          }
        ],
        "text": {
          "status": "generated",
          "div": "<div xmlns=\"http://www.w3.org/1999/xhtml\"><table class=\"hl7__eu__lab__report\"><tr><th>Test</th><th>16-Aug-2021</th><th>Reference&#xA0;Range</th><th>Unit</th></tr><tr><td>Triglyceride [Mass/volume] in Serum or Plasma</td><td>433.0</td><td>0 - 199</td><td>H</td><td>mg/dL</td></tr></table></div>"
        },
        "status": "final",
        "subject": {
          "reference": "urn:uuid:7534a404-1b93-4596-9565-b5df32483a1e",
          "display": "Timothy Smith"
        },
        "effectiveDateTime": "2021-08-16T15:48:21Z",
        "specimen": {
          "reference": "urn:uuid:39d668f6-2306-4212-bbce-fffd3e6f3f17"
        }
      }
    },
    {
      "fullUrl": "urn:uuid:38ec9f62-8cce-400c-b581-c1510eba2659",
      "resource": {
        "resourceType": "Observation",
        "id": "38ec9f62-8cce-400c-b581-c1510eba2659",
        "meta": {
          "profile": [
            "http://hl7.eu/fhir/laboratory/StructureDefinition/Observation-resultslab-eu-lab"
          ]
        },
        "performer": [
          {
            "display": "The Central European Lab"
          }
        ],
        "category": [
          {
            "coding": [
              {
                "system": "http://terminology.hl7.org/CodeSystem/observation-category",
                "code": "laboratory"
              }
            ]
          }
        ],
        "code": {
          "coding": [
            {
              "code": "18262-6",
              "system": "http://loinc.org",
              "display": "Cholesterol in LDL [Mass/volume] in Serum or Plasma by Direct assay"
            }
          ],
          "text": "Cholesterol in LDL [Mass/volume] in Serum or Plasma by Direct assay"
        },
        "valueQuantity": {
          "system": "http://unitsofmeasure.org",
          "value": 131.5,
          "unit": "mg/dL",
          "code": "mg/dL"
        },
        "referenceRange": [
          {
            "low": {
              "value": 0,
              "code": "mg/dL",
              "system": "http://unitsofmeasure.org"
            }
          },
          {
            "high": {
              "value": 130,
              "code": "mg/dL",
              "system": "http://unitsofmeasure.org"
            }
          }
        ],
        "interpretation": [
          {
            "coding": [
              {
                "code": "H",
                "system": "http://terminology.hl7.org/CodeSystem/v3-ObservationInterpretation",
                "display": "High"
              }
            ]
          }
        ],
        "text": {
          "status": "generated",
          "div": "<div xmlns=\"http://www.w3.org/1999/xhtml\"><table class=\"hl7__eu__lab__report\"><tr><th>Test</th><th>16-Aug-2021</th><th>Reference&#xA0;Range</th><th>Unit</th></tr><tr><td>Cholesterol in LDL [Mass/volume] in Serum or Plasma by Direct assay</td><td>131.5</td><td>0 - 130</td><td>H</td><td>mg/dL</td></tr></table></div>"
        },
        "status": "final",
        "subject": {
          "reference": "urn:uuid:7534a404-1b93-4596-9565-b5df32483a1e",
          "display": "Timothy Smith"
        },
        "effectiveDateTime": "2021-08-16T15:48:21Z",
        "specimen": {
          "reference": "urn:uuid:39d668f6-2306-4212-bbce-fffd3e6f3f17"
        }
      }
    },
    {
      "fullUrl": "urn:uuid:1c4d9251-59c0-4d5a-8f96-87292297be79",
      "resource": {
        "resourceType": "Observation",
        "id": "1c4d9251-59c0-4d5a-8f96-87292297be79",
        "meta": {
          "profile": [
            "http://hl7.eu/fhir/laboratory/StructureDefinition/Observation-resultslab-eu-lab"
          ]
        },
        "performer": [
          {
            "display": "The Central European Lab"
          }
        ],
        "category": [
          {
            "coding": [
              {
                "system": "http://terminology.hl7.org/CodeSystem/observation-category",
                "code": "laboratory"
              }
            ]
          }
        ],
        "code": {
          "coding": [
            {
              "code": "2085-9",
              "system": "http://loinc.org",
              "display": "Cholesterol in HDL [Mass/volume] in Serum or Plasma"
            }
          ],
          "text": "Cholesterol in HDL [Mass/volume] in Serum or Plasma"
        },
        "valueQuantity": {
          "system": "http://unitsofmeasure.org",
          "value": 39.1,
          "unit": "mg/dL",
          "code": "mg/dL"
        },
        "referenceRange": [
          {
            "low": {
              "value": 40,
              "code": "mg/dL",
              "system": "http://unitsofmeasure.org"
            }
          },
          {
            "high": {
              "value": 100,
              "code": "mg/dL",
              "system": "http://unitsofmeasure.org"
            }
          }
        ],
        "interpretation": [
          {
            "coding": [
              {
                "code": "L",
                "system": "http://terminology.hl7.org/CodeSystem/v3-ObservationInterpretation",
                "display": "Low"
              }
            ]
          }
        ],
        "text": {
          "status": "generated",
          "div": "<div xmlns=\"http://www.w3.org/1999/xhtml\"><table class=\"hl7__eu__lab__report\"><tr><th>Test</th><th>16-Aug-2021</th><th>Reference&#xA0;Range</th><th>Unit</th></tr><tr><td>Cholesterol in HDL [Mass/volume] in Serum or Plasma</td><td>39.1</td><td>40 - 100</td><td>L</td><td>mg/dL</td></tr></table></div>"
        },
        "status": "final",
        "subject": {
          "reference": "urn:uuid:7534a404-1b93-4596-9565-b5df32483a1e",
          "display": "Timothy Smith"
        },
        "effectiveDateTime": "2021-08-16T15:48:21Z",
        "specimen": {
          "reference": "urn:uuid:39d668f6-2306-4212-bbce-fffd3e6f3f17"
        }
      }
    },
    {
      "fullUrl": "urn:uuid:508831ef-7c17-4033-a4da-4934e8d3bda6",
      "resource": {
        "resourceType": "Observation",
        "id": "508831ef-7c17-4033-a4da-4934e8d3bda6",
        "meta": {
          "profile": [
            "http://hl7.eu/fhir/laboratory/StructureDefinition/Observation-resultslab-eu-lab"
          ]
        },
        "performer": [
          {
            "display": "The Central European Lab"
          }
        ],
        "category": [
          {
            "coding": [
              {
                "system": "http://terminology.hl7.org/CodeSystem/observation-category",
                "code": "laboratory"
              }
            ]
          }
        ],
        "code": {
          "coding": [
            {
              "code": "14959-1",
              "system": "http://loinc.org",
              "display": "Microalbumin/Creatinine [Mass Ratio] in Urine"
            }
          ],
          "text": "Microalbumin/Creatinine [Mass Ratio] in Urine"
        },
        "valueQuantity": {
          "system": "http://unitsofmeasure.org",
          "value": 10.2,
          "unit": "mg/g",
          "code": "mg/g"
        },
        "referenceRange": [
          {
            "low": {
              "value": 0,
              "code": "mg/g",
              "system": "http://unitsofmeasure.org"
            }
          },
          {
            "high": {
              "value": 30,
              "code": "mg/g",
              "system": "http://unitsofmeasure.org"
            }
          }
        ],
        "text": {
          "status": "generated",
          "div": "<div xmlns=\"http://www.w3.org/1999/xhtml\"><table class=\"hl7__eu__lab__report\"><tr><th>Test</th><th>16-Aug-2021</th><th>Reference&#xA0;Range</th><th>Unit</th></tr><tr><td>Microalbumin/Creatinine [Mass Ratio] in Urine</td><td>10.2</td><td>0 - 30</td><td></td><td>mg/g</td></tr></table></div>"
        },
        "status": "final",
        "subject": {
          "reference": "urn:uuid:7534a404-1b93-4596-9565-b5df32483a1e",
          "display": "Timothy Smith"
        },
        "effectiveDateTime": "2021-08-16T15:48:21Z",
        "specimen": {
          "reference": "urn:uuid:4aec9d29-26bd-4c2a-861b-02943bef1609"
        }
      }
    },
    {
      "fullUrl": "urn:uuid:9e7b19ec-60ea-4ece-ade4-868328a3eee9",
      "resource": {
        "resourceType": "Device",
        "id": "9e7b19ec-60ea-4ece-ade4-868328a3eee9",
        "deviceName": [
          {
            "name": "SYNDERAI Synthetic Generator",
            "type": "manufacturer-name"
          }
        ],
        "version": [
          {
            "value": "5.0"
          }
        ],
        "text": {
          "status": "generated",
          "div": "<div xmlns=\"http://www.w3.org/1999/xhtml\">SYNDERAI Synthetic Generator v5.0</div>"
        },
        "status": "active\"",
        "distinctIdentifier": "synderai-generator-50",
        "manufacturer": "SYNDERAI Project"
      }
    },
    {
      "fullUrl": "urn:uuid:1bce6700-039f-42d1-a8ee-29fc329c8fb1",
      "resource": {
        "resourceType": "Provenance",
        "id": "1bce6700-039f-42d1-a8ee-29fc329c8fb1",
        "target": [
          {
            "reference": "Patient/7534a404-1b93-4596-9565-b5df32483a1e"
          },
          {
            "reference": "Bundle/876e1bf8-2d8a-4fc9-94dc-1f668b6c1c90"
          },
          {
            "reference": "Composition/f09630e5-5f00-46f3-8a80-021635a54b7e"
          },
          {
            "reference": "PractitionerRole/5eb94c74-e8f5-4486-9ba7-04cbd186e7f6"
          },
          {
            "reference": "Practitioner/c25b18c3-3736-4981-a840-ff7cfaadd18f"
          },
          {
            "reference": "PractitionerRole/bf2087fe-ccc8-4fc5-af78-6a2e73f4bbdb"
          },
          {
            "reference": "Organization/d5922191-8a6c-4c3b-b122-5b99b01db35e"
          }
        ],
        "activity": {
          "text": "Synthetic Example Data Generation"
        },
        "policy": [
          "https://synderai.net/synderai-synthetic-data-policy"
        ],
        "agent": [
          {
            "type": {
              "text": "author"
            },
            "who": {
              "reference": "Device/9e7b19ec-60ea-4ece-ade4-868328a3eee9"
            }
          }
        ],
        "reason": [
          {
            "text": "Interoperability Testing and Training (non-clinical use)"
          }
        ],
        "text": {
          "status": "generated",
          "div": "<div xmlns=\"http://www.w3.org/1999/xhtml\">Provenance for SYNDERAI Synthetic Example Data Resource</div>"
        },
        "recorded": "2021-08-16T17:48:21Z"
      }
    },
    {
      "fullUrl": "urn:uuid:5eb94c74-e8f5-4486-9ba7-04cbd186e7f6",
      "resource": {
        "resourceType": "PractitionerRole",
        "id": "5eb94c74-e8f5-4486-9ba7-04cbd186e7f6",
        "meta": {
          "profile": [
            "http://hl7.eu/fhir/base/StructureDefinition/practitionerRole-eu"
          ]
        },
        "text": {
          "status": "generated",
          "div": "<div xmlns=\"http://www.w3.org/1999/xhtml\">Laboratory Role Id: 5eb94c74-e8f5-4486-9ba7-04cbd186e7f6</div>"
        },
        "practitioner": {
          "reference": "urn:uuid:c25b18c3-3736-4981-a840-ff7cfaadd18f"
        }
      }
    },
    {
      "fullUrl": "urn:uuid:c25b18c3-3736-4981-a840-ff7cfaadd18f",
      "resource": {
        "resourceType": "Practitioner",
        "id": "c25b18c3-3736-4981-a840-ff7cfaadd18f",
        "meta": {
          "profile": [
            "http://hl7.eu/fhir/base/StructureDefinition/practitioner-eu"
          ]
        },
        "identifier": [
          {
            "assigner": {
              "display": "HL7 Europe"
            },
            "system": "urn:oid:2.16.840.1.113883.2.51.999",
            "value": "802be744-c2ec-45f6-b39b-1769f845e8af"
          }
        ],
        "name": [
          {
            "prefix": [
              "dr"
            ],
            "given": [
              "Ex"
            ],
            "family": "Ample"
          }
        ],
        "address": [
          {
            "line": [
              "Laboratoire Central Européenne",
              "Boulevard du Jardin Botanique 32"
            ],
            "postalCode": "1000",
            "city": "Brussels",
            "country": "Belgium"
          }
        ],
        "text": {
          "status": "generated",
          "div": "<div xmlns=\"http://www.w3.org/1999/xhtml\">Laboratory: Laboratoire Central Européenne, 1000 Brussels, Belgium</div>"
        }
      }
    }
  ],
  "type": "document",
  "timestamp": "2021-08-16T17:48:21Z"
}
