{
  "resourceType": "Bundle",
  "id": "1f537c29-22be-4aa8-86f7-1f0fdaa2d74e",
  "meta": {
    "profile": [
      "http://hl7.eu/fhir/laboratory/StructureDefinition/Bundle-eu-lab"
    ]
  },
  "identifier": {
    "assigner": {
      "display": "HL7 Europe"
    },
    "system": "urn:oid:2.16.840.1.113883.2.51.999",
    "value": "7cb78845-8b5f-44b8-91d5-dfbc1bd6a9a4"
  },
  "entry": [
    {
      "fullUrl": "urn:uuid:051787e8-0e5b-4fea-86a2-c0d7a51a7489",
      "resource": {
        "resourceType": "Composition",
        "id": "051787e8-0e5b-4fea-86a2-c0d7a51a7489",
        "meta": {
          "profile": [
            "http://hl7.eu/fhir/laboratory/StructureDefinition/Composition-eu-lab"
          ]
        },
        "identifier": {
          "assigner": {
            "display": "HL7 Europe"
          },
          "system": "urn:oid:2.16.840.1.113883.2.51.999",
          "value": "8472fdb0-eb3a-46b7-96dd-16899f621789"
        },
        "author": [
          {
            "reference": "urn:uuid:e9ec3feb-5ea2-4ef8-964b-e6ca20b9f55a"
          }
        ],
        "category": [
          {
            "coding": [
              {
                "code": "26436-6",
                "system": "http://loinc.org",
                "display": "Laboratory studies (set)"
              }
            ]
          }
        ],
        "type": {
          "coding": [
            {
              "code": "11502-2",
              "system": "http://loinc.org",
              "display": "Laboratory report"
            }
          ],
          "text": "Laboratory Report"
        },
        "section": [
          {
            "code": {
              "coding": [
                {
                  "code": "26436-6",
                  "system": "http://loinc.org",
                  "display": "Laboratory studies (set)"
                }
              ],
              "text": "Laboratory studies"
            },
            "section": [
              {
                "code": {
                  "coding": [
                    {
                      "code": "$18723-7",
                      "system": "http://loinc.org",
                      "display": "Hematology studies (set)"
                    }
                  ],
                  "text": "Hematology"
                },
                "entry": [
                  {
                    "reference": "urn:uuid:52053351-487a-432a-a636-dc5a84addd7a"
                  },
                  {
                    "reference": "urn:uuid:7f24e451-260c-4927-974a-48dadb1a6b8d"
                  },
                  {
                    "reference": "urn:uuid:e698e9eb-6187-4759-bcc9-02baf639a023"
                  },
                  {
                    "reference": "urn:uuid:0ed74393-5d47-47d1-aa26-7d0af85b4949"
                  },
                  {
                    "reference": "urn:uuid:72f3c08f-c7e3-499c-b71b-a4b024b2d0fe"
                  },
                  {
                    "reference": "urn:uuid:f9e84740-b918-44c6-9711-4b2e238ad7b9"
                  },
                  {
                    "reference": "urn:uuid:4e1f82d2-30b3-494a-a2e7-86ce036a5195"
                  },
                  {
                    "reference": "urn:uuid:a9ab860c-8ee7-4bfb-86a1-bae986dc71f8"
                  },
                  {
                    "reference": "urn:uuid:feccbfa2-9aaa-4576-ae27-adf7cde26ed6"
                  },
                  {
                    "reference": "urn:uuid:a612b12f-fa53-4d09-8c9c-0b2a6083b9cd"
                  },
                  {
                    "reference": "urn:uuid:8fdaa851-fbb0-4531-ba65-ed4e5c63cfc0"
                  }
                ],
                "text": {
                  "status": "generated",
                  "div": "<div xmlns=\"http://www.w3.org/1999/xhtml\"><h3>Hematology</h3><table class=\"hl7__eu__lab__report\"><thead><tr><th>Test</th><th>04-DEC-2020</th><th>Reference&#xA0;Range</th><th>Unit</th></tr></thead><tbody><tr><td>Leukocytes [#/volume] in Blood by Automated count</td><td>9.8</td><td>3.4 - 10.6</td><td>10*3/uL</td></tr><tr><td>Erythrocytes [#/volume] in Blood by Automated count</td><td>5.3</td><td>4.2 - 6.2</td><td>10*6/uL</td></tr><tr><td>Hemoglobin [Mass/volume] in Blood</td><td>16.7</td><td>13.8 - 17.5</td><td>g/dL</td></tr><tr><td>Hematocrit [Volume Fraction] of Blood by Automated count</td><td>48.7</td><td>38 - 50</td><td>%</td></tr><tr><td>MCV [Entitic volume] by Automated count</td><td>91.0</td><td>76 - 98</td><td>fL</td></tr><tr><td>MCH [Entitic mass] by Automated count</td><td>27.5</td><td>27 - 34</td><td>pg</td></tr><tr><td>MCHC [Mass/volume] by Automated count</td><td>33.9</td><td>31 - 37</td><td>g/dL</td></tr><tr><td>Erythrocyte distribution width [Entitic volume] by Automated count</td><td>43.8</td><td>36 - 56</td><td>fL</td></tr><tr><td>Platelets [#/volume] in Blood by Automated count</td><td>237.7</td><td>150 - 363</td><td>10*3/uL</td></tr><tr><td>Platelet distribution width [Entitic volume] in Blood by Automated count</td><td><strong>198.0 H</strong></td><td>13.4 - 17.4</td><td>fL</td></tr><tr><td>Platelet mean volume [Entitic volume] in Blood by Automated count</td><td>11.5</td><td>7.2 - 13.5</td><td>fL</td></tr></tbody></table></div>"
                },
                "title": "Hematology"
              },
              {
                "code": {
                  "coding": [
                    {
                      "code": "$18719-5",
                      "system": "http://loinc.org",
                      "display": "Chemistry studies (set)"
                    }
                  ],
                  "text": "Chemistry"
                },
                "entry": [
                  {
                    "reference": "urn:uuid:33793999-93af-4287-bde2-58016caebc72"
                  },
                  {
                    "reference": "urn:uuid:9e359747-3add-4feb-a0ab-bae48236823d"
                  },
                  {
                    "reference": "urn:uuid:a7ceafb0-a915-4395-944b-cdba1fbca83f"
                  },
                  {
                    "reference": "urn:uuid:021429e3-d802-4e16-b714-9e8f948b49a4"
                  },
                  {
                    "reference": "urn:uuid:4c3024de-5499-4edc-b0bd-46cdea144f11"
                  },
                  {
                    "reference": "urn:uuid:f7e82df7-eac8-4b8c-b3a5-04d208f061e2"
                  },
                  {
                    "reference": "urn:uuid:a8eb5011-b7ac-4f69-8a36-91efe4094bcf"
                  },
                  {
                    "reference": "urn:uuid:f298815c-a474-458a-b38d-0c7eec27c8df"
                  },
                  {
                    "reference": "urn:uuid:475f9a55-6437-4a7c-a9a8-07d15f7be41c"
                  },
                  {
                    "reference": "urn:uuid:27d1dc9f-3224-44e2-a399-d07733942927"
                  },
                  {
                    "reference": "urn:uuid:f1429dd6-d593-4401-8101-180bd0e5ba6f"
                  },
                  {
                    "reference": "urn:uuid:787d1f95-a933-46ee-a10a-b22e7a8e54a3"
                  },
                  {
                    "reference": "urn:uuid:3bb133c7-cb77-4ec7-a27b-298036a700d6"
                  },
                  {
                    "reference": "urn:uuid:d5b52785-da3d-4cbe-abbd-71584f70fa4a"
                  },
                  {
                    "reference": "urn:uuid:13de55b1-4d5d-47a4-97b8-2174f285fbff"
                  },
                  {
                    "reference": "urn:uuid:037b426d-25dd-45a8-8e35-f76f46f960f8"
                  },
                  {
                    "reference": "urn:uuid:fb73d592-38a5-4cba-b183-061e524c6989"
                  },
                  {
                    "reference": "urn:uuid:680c2896-6265-4c85-9493-aaa2a67b9eb2"
                  }
                ],
                "text": {
                  "status": "generated",
                  "div": "<div xmlns=\"http://www.w3.org/1999/xhtml\"><h3>Chemistry</h3><table class=\"hl7__eu__lab__report\"><thead><tr><th>Test</th><th>04-DEC-2020</th><th>Reference&#xA0;Range</th><th>Unit</th></tr></thead><tbody><tr><td>Glucose [Mass/volume] in Serum or Plasma</td><td>92.1</td><td>70 - 140</td><td>mg/dL</td></tr><tr><td>Urea nitrogen [Mass/volume] in Serum or Plasma</td><td>8.1</td><td>7 - 20</td><td>mg/dL</td></tr><tr><td>Creatinine [Mass/volume] in Serum or Plasma</td><td><strong>1.9 H</strong></td><td>0.9 - 1.3</td><td>mg/dL</td></tr><tr><td>Calcium [Mass/volume] in Serum or Plasma</td><td>9.9</td><td>8.5 - 10.5</td><td>mg/dL</td></tr><tr><td>Sodium [Moles/volume] in Serum or Plasma</td><td>143.8</td><td>135 - 145</td><td>mmol/L</td></tr><tr><td>Potassium [Moles/volume] in Serum or Plasma</td><td>3.8</td><td>3.5 - 5.3</td><td>mmol/L</td></tr><tr><td>Chloride [Moles/volume] in Serum or Plasma</td><td>107.0</td><td>98 - 107</td><td>mmol/L</td></tr><tr><td>Carbon dioxide, total [Moles/volume] in Serum or Plasma</td><td>23.2</td><td>22 - 33</td><td>mmol/L</td></tr><tr><td>Ketones [Presence] in Urine by Test strip</td><td>Urine ketone test = ++</td><td></td><td></td></tr><tr><td>Hemoglobin A1c/Hemoglobin.total in Blood</td><td><strong>3.0 L</strong></td><td>4.3 - 6</td><td>%</td></tr><tr><td>Glucose [Mass/volume] in Blood</td><td>92.1</td><td>70 - 140</td><td>mg/dL</td></tr><tr><td>Urea nitrogen [Mass/volume] in Blood</td><td>8.1</td><td>7 - 20</td><td>mg/dL</td></tr><tr><td>Creatinine [Mass/volume] in Blood</td><td><strong>2.7 H</strong></td><td>0.9 - 1.3</td><td>mg/dL</td></tr><tr><td>Calcium [Mass/volume] in Blood</td><td>9.9</td><td>8.5 - 10.5</td><td>mg/dL</td></tr><tr><td>Sodium [Moles/volume] in Blood</td><td>143.8</td><td>135 - 145</td><td>mmol/L</td></tr><tr><td>Potassium [Moles/volume] in Blood</td><td>3.8</td><td>3.5 - 5.1</td><td>mmol/L</td></tr><tr><td>Chloride [Moles/volume] in Blood</td><td>107.0</td><td>98 - 108</td><td>mmol/L</td></tr><tr><td>Carbon dioxide, total [Moles/volume] in Blood</td><td>23.2</td><td>22 - 29</td><td>mmol/L</td></tr></tbody></table></div>"
                },
                "title": "Chemistry"
              },
              {
                "code": {
                  "coding": [
                    {
                      "code": "$18729-4",
                      "system": "http://loinc.org",
                      "display": "Urinalysis studies (set)"
                    }
                  ],
                  "text": "Urinalysis"
                },
                "entry": [
                  {
                    "reference": "urn:uuid:cd4f08de-7c0b-4d73-9136-6c1685c0c936"
                  },
                  {
                    "reference": "urn:uuid:f0b59ad5-3a2f-4a43-b842-90101a8ef99e"
                  },
                  {
                    "reference": "urn:uuid:db08764a-c7ff-4ad5-831c-18c3be52757e"
                  },
                  {
                    "reference": "urn:uuid:07fd05ab-fd97-40e6-8992-52d9789be768"
                  },
                  {
                    "reference": "urn:uuid:c5b45904-10b0-4e2c-8c27-74231b5e8496"
                  },
                  {
                    "reference": "urn:uuid:fe816ca6-c2b4-4c93-8d60-d65169573cad"
                  },
                  {
                    "reference": "urn:uuid:843cd509-19f4-4a5b-8ceb-c89c842be32b"
                  },
                  {
                    "reference": "urn:uuid:221b8cde-b90d-4a9b-b565-bfeed0a569b7"
                  },
                  {
                    "reference": "urn:uuid:b5e3bc15-048e-4c45-b69e-0fd8fc2a1e12"
                  },
                  {
                    "reference": "urn:uuid:47ee49d6-3125-4532-9652-c5dc28b45c4b"
                  },
                  {
                    "reference": "urn:uuid:739cae44-0dff-497f-a6cb-fee1e53f08f3"
                  },
                  {
                    "reference": "urn:uuid:0d94e9e3-e5d5-40d7-9a19-0a8d3eb76a51"
                  }
                ],
                "text": {
                  "status": "generated",
                  "div": "<div xmlns=\"http://www.w3.org/1999/xhtml\"><h3>Urinalysis</h3><table class=\"hl7__eu__lab__report\"><thead><tr><th>Test</th><th>04-DEC-2020</th><th>Reference&#xA0;Range</th><th>Unit</th></tr></thead><tbody><tr><td>Glucose [Mass/volume] in Urine by Test strip</td><td><strong>1.4 H</strong></td><td>0 - 0.8</td><td>mg/dL</td></tr><tr><td>Glucose [Presence] in Urine by Test strip</td><td>++</td><td></td><td></td></tr><tr><td>Bilirubin.total [Mass/volume] in Urine by Test strip</td><td>1.4</td><td>0 - 1.9</td><td>mg/dL</td></tr><tr><td>Bilirubin.total [Presence] in Urine by Test strip</td><td>Finding of bilirubin in urine</td><td></td><td></td></tr><tr><td>Ketones [Mass/volume] in Urine by Test strip</td><td><strong>16.6 H</strong></td><td>0 - 3</td><td>mg/dL</td></tr><tr><td>Specific gravity of Urine by Test strip</td><td><strong>1.0 L</strong></td><td>1.01 - 1.03</td><td>{nominal}</td></tr><tr><td>pH of Urine by Test strip</td><td>5.4</td><td>4.5 - 7.5</td><td>pH</td></tr><tr><td>Protein [Mass/volume] in Urine by Test strip</td><td><strong>320.2 H</strong></td><td>0 - 149</td><td>mg/dL</td></tr><tr><td>Protein [Presence] in Urine by Test strip</td><td>Urine protein test = ++</td><td></td><td></td></tr><tr><td>Nitrite [Presence] in Urine by Test strip</td><td>Urine nitrite negative</td><td></td><td></td></tr><tr><td>Hemoglobin [Presence] in Urine by Test strip</td><td>Urine blood test = negative</td><td></td><td></td></tr><tr><td>Leukocyte esterase [Presence] in Urine by Test strip</td><td>Urine leukocyte test negative</td><td></td><td></td></tr></tbody></table></div>"
                },
                "title": "Urinalysis"
              },
              {
                "code": {
                  "coding": [
                    {
                      "code": "$LP7846-1",
                      "system": "http://loinc.org",
                      "display": "Specimen information"
                    }
                  ],
                  "text": "Specimen information"
                },
                "entry": [
                  {
                    "reference": "urn:uuid:72ecc568-33a4-4b24-8f9f-2a328a0332c9"
                  },
                  {
                    "reference": "urn:uuid:c6d32c07-5a02-4804-92b5-8a27d9f3b6aa"
                  },
                  {
                    "reference": "urn:uuid:e8016617-6aeb-430c-8244-77cfb99af44f"
                  },
                  {
                    "reference": "urn:uuid:fc87d65c-cef1-4e6c-b037-b507573c6a80"
                  }
                ],
                "text": {
                  "status": "generated",
                  "div": "<div xmlns=\"http://www.w3.org/1999/xhtml\"><h3>Specimen information</h3><table class=\"hl7__eu__lab__report\"><thead><tr><th>Test</th><th>04-DEC-2020</th><th>Specimen</th><th></th></tr></thead><tbody><tr><td>Appearance of Urine</td><td>Cloudy urine</td><td>Urine</td><td></td></tr><tr><td>Odor of Urine</td><td>Urine smell ammoniacal</td><td>Urine</td><td></td></tr><tr><td>Clarity of Urine</td><td>Translucent</td><td>Urine</td><td></td></tr><tr><td>Color of Urine</td><td>Brown color</td><td>Urine</td><td></td></tr></tbody></table></div>"
                },
                "title": "Specimen information"
              }
            ],
            "title": "Laboratory Report"
          },
          {
            "text": {
              "status": "generated",
              "div": "<div xmlns=\"http://www.w3.org/1999/xhtml\"><h3>Annotation</h3><table class=\"hl7__eu__lab__report\"><tr><th>Conclusion and Recommendations based on this report and previous findings known to us</th></tr><tr><td>The patient shows elevated creatinine, suggesting impaired renal function. Urinalysis reveals proteinuria, glycosuria, ketonuria, low specific gravity, and abnormal urine appearance, indicating possible nephropathy and poor renal concentrating ability. Blood glucose is normal, but HbA1c is unexpectedly low, possibly due to anemia or recent changes in glycemic control. No evidence of urinary infection. Recommend further evaluation of renal function, assessment for diabetes or other metabolic disorders, and correlation with clinical findings.</td></tr></table></div>"
            },
            "code": {
              "coding": [
                {
                  "system": "http://loinc.org",
                  "code": "48767-8",
                  "display": "Annotation comment"
                }
              ]
            },
            "title": "Annotation comment"
          }
        ],
        "status": "final",
        "subject": {
          "reference": "urn:uuid:26df38b2-cc67-4157-86bc-cf2fd32759f5",
          "display": "Victor Lagarde"
        },
        "date": "2020-12-04T05:48:18Z",
        "title": "Laboratory Report",
        "confidentiality": "N"
      }
    },
    {
      "fullUrl": "urn:uuid:181b0353-3dac-40f8-b64f-cedb3e7c41b9",
      "resource": {
        "resourceType": "DiagnosticReport",
        "id": "181b0353-3dac-40f8-b64f-cedb3e7c41b9",
        "meta": {
          "profile": [
            "http://hl7.eu/fhir/laboratory/StructureDefinition/DiagnosticReport-eu-lab"
          ]
        },
        "identifier": [
          {
            "assigner": {
              "display": "HL7 Europe"
            },
            "system": "urn:oid:2.16.840.1.113883.2.51.999",
            "value": "712f8606-e4ce-41cf-960d-779dbe575d79"
          }
        ],
        "extension": [
          {
            "url": "http://hl7.org/fhir/5.0/StructureDefinition/extension-DiagnosticReport.composition",
            "valueReference": {
              "reference": "urn:uuid:8472fdb0-eb3a-46b7-96dd-16899f621789"
            }
          }
        ],
        "category": [
          {
            "coding": [
              {
                "code": "26436-6",
                "system": "http://loinc.org",
                "display": "Laboratory studies (set)"
              }
            ]
          }
        ],
        "specimen": [
          {
            "reference": "urn:uuid:f5376c42-0c97-47b8-bbd7-d86286d9f0fc"
          },
          {
            "reference": "urn:uuid:2b4518e8-2fb8-4863-ad4b-cea20533e56f"
          },
          {
            "reference": "urn:uuid:4bf87a84-d816-495d-8017-6bfd640658d0"
          },
          {
            "reference": "urn:uuid:4bf87a84-d816-495d-8017-6bfd640658d0"
          }
        ],
        "result": [
          {
            "reference": "urn:uuid:33793999-93af-4287-bde2-58016caebc72"
          },
          {
            "reference": "urn:uuid:9e359747-3add-4feb-a0ab-bae48236823d"
          },
          {
            "reference": "urn:uuid:a7ceafb0-a915-4395-944b-cdba1fbca83f"
          },
          {
            "reference": "urn:uuid:021429e3-d802-4e16-b714-9e8f948b49a4"
          },
          {
            "reference": "urn:uuid:4c3024de-5499-4edc-b0bd-46cdea144f11"
          },
          {
            "reference": "urn:uuid:f7e82df7-eac8-4b8c-b3a5-04d208f061e2"
          },
          {
            "reference": "urn:uuid:a8eb5011-b7ac-4f69-8a36-91efe4094bcf"
          },
          {
            "reference": "urn:uuid:f298815c-a474-458a-b38d-0c7eec27c8df"
          },
          {
            "reference": "urn:uuid:72ecc568-33a4-4b24-8f9f-2a328a0332c9"
          },
          {
            "reference": "urn:uuid:c6d32c07-5a02-4804-92b5-8a27d9f3b6aa"
          },
          {
            "reference": "urn:uuid:e8016617-6aeb-430c-8244-77cfb99af44f"
          },
          {
            "reference": "urn:uuid:fc87d65c-cef1-4e6c-b037-b507573c6a80"
          },
          {
            "reference": "urn:uuid:cd4f08de-7c0b-4d73-9136-6c1685c0c936"
          },
          {
            "reference": "urn:uuid:f0b59ad5-3a2f-4a43-b842-90101a8ef99e"
          },
          {
            "reference": "urn:uuid:db08764a-c7ff-4ad5-831c-18c3be52757e"
          },
          {
            "reference": "urn:uuid:07fd05ab-fd97-40e6-8992-52d9789be768"
          },
          {
            "reference": "urn:uuid:c5b45904-10b0-4e2c-8c27-74231b5e8496"
          },
          {
            "reference": "urn:uuid:475f9a55-6437-4a7c-a9a8-07d15f7be41c"
          },
          {
            "reference": "urn:uuid:fe816ca6-c2b4-4c93-8d60-d65169573cad"
          },
          {
            "reference": "urn:uuid:843cd509-19f4-4a5b-8ceb-c89c842be32b"
          },
          {
            "reference": "urn:uuid:221b8cde-b90d-4a9b-b565-bfeed0a569b7"
          },
          {
            "reference": "urn:uuid:b5e3bc15-048e-4c45-b69e-0fd8fc2a1e12"
          },
          {
            "reference": "urn:uuid:47ee49d6-3125-4532-9652-c5dc28b45c4b"
          },
          {
            "reference": "urn:uuid:739cae44-0dff-497f-a6cb-fee1e53f08f3"
          },
          {
            "reference": "urn:uuid:0d94e9e3-e5d5-40d7-9a19-0a8d3eb76a51"
          },
          {
            "reference": "urn:uuid:27d1dc9f-3224-44e2-a399-d07733942927"
          },
          {
            "reference": "urn:uuid:f1429dd6-d593-4401-8101-180bd0e5ba6f"
          },
          {
            "reference": "urn:uuid:787d1f95-a933-46ee-a10a-b22e7a8e54a3"
          },
          {
            "reference": "urn:uuid:3bb133c7-cb77-4ec7-a27b-298036a700d6"
          },
          {
            "reference": "urn:uuid:d5b52785-da3d-4cbe-abbd-71584f70fa4a"
          },
          {
            "reference": "urn:uuid:13de55b1-4d5d-47a4-97b8-2174f285fbff"
          },
          {
            "reference": "urn:uuid:037b426d-25dd-45a8-8e35-f76f46f960f8"
          },
          {
            "reference": "urn:uuid:fb73d592-38a5-4cba-b183-061e524c6989"
          },
          {
            "reference": "urn:uuid:680c2896-6265-4c85-9493-aaa2a67b9eb2"
          },
          {
            "reference": "urn:uuid:52053351-487a-432a-a636-dc5a84addd7a"
          },
          {
            "reference": "urn:uuid:7f24e451-260c-4927-974a-48dadb1a6b8d"
          },
          {
            "reference": "urn:uuid:e698e9eb-6187-4759-bcc9-02baf639a023"
          },
          {
            "reference": "urn:uuid:0ed74393-5d47-47d1-aa26-7d0af85b4949"
          },
          {
            "reference": "urn:uuid:72f3c08f-c7e3-499c-b71b-a4b024b2d0fe"
          },
          {
            "reference": "urn:uuid:f9e84740-b918-44c6-9711-4b2e238ad7b9"
          },
          {
            "reference": "urn:uuid:4e1f82d2-30b3-494a-a2e7-86ce036a5195"
          },
          {
            "reference": "urn:uuid:a9ab860c-8ee7-4bfb-86a1-bae986dc71f8"
          },
          {
            "reference": "urn:uuid:feccbfa2-9aaa-4576-ae27-adf7cde26ed6"
          },
          {
            "reference": "urn:uuid:a612b12f-fa53-4d09-8c9c-0b2a6083b9cd"
          },
          {
            "reference": "urn:uuid:8fdaa851-fbb0-4531-ba65-ed4e5c63cfc0"
          }
        ],
        "status": "registered",
        "code": {
          "coding": [
            {
              "code": "11502-2",
              "system": "http://loinc.org",
              "display": "Laboratory report"
            }
          ]
        },
        "subject": {
          "reference": "urn:uuid:26df38b2-cc67-4157-86bc-cf2fd32759f5",
          "display": "Victor Lagarde"
        }
      }
    },
    {
      "fullUrl": "urn:uuid:26df38b2-cc67-4157-86bc-cf2fd32759f5",
      "resource": {
        "resourceType": "Patient",
        "id": "26df38b2-cc67-4157-86bc-cf2fd32759f5",
        "meta": {
          "security": [
            {
              "system": "http://terminology.hl7.org/CodeSystem/v3-ActReason",
              "code": "HTEST"
            },
            {
              "system": "http://terminology.hl7.org/CodeSystem/v3-ActReason",
              "code": "TRAIN"
            }
          ],
          "tag": [
            {
              "system": "https://synderai.net/fhir/CodeSystem/tags",
              "code": "synthetic",
              "display": "SYNDERAI Synthetic data"
            }
          ],
          "profile": [
            "http://hl7.eu/fhir/base/StructureDefinition/patient-eu-core"
          ]
        },
        "identifier": [
          {
            "type": {
              "coding": [
                {
                  "code": "PT",
                  "system": "http://terminology.hl7.org/CodeSystem/v2-0203"
                }
              ]
            },
            "system": "http://ec.europa.eu/identifier/eci",
            "value": "9925-001801-9"
          },
          {
            "type": {
              "coding": [
                {
                  "code": "MR",
                  "system": "http://terminology.hl7.org/CodeSystem/v2-0203"
                }
              ]
            },
            "system": "http://local.setting.eu/identifier",
            "value": "22c2dfd0-ac57-8833-2532-848f180896a4"
          }
        ],
        "name": [
          {
            "family": "Lagarde"
          },
          {
            "given": [
              "Victor"
            ]
          },
          {
            "text": "Victor Lagarde"
          }
        ],
        "address": [
          {
            "line": [
              "avenue Robert"
            ],
            "use": "home",
            "type": "physical",
            "postalCode": "80300",
            "city": "Albert",
            "country": "France"
          }
        ],
        "telecom": [
          {
            "system": "phone",
            "value": "0177941801"
          }
        ],
        "extension": [
          {
            "url": "http://hl7.org/fhir/StructureDefinition/patient-nationality",
            "valueCodeableConcept": {
              "coding": [
                {
                  "code": "FR",
                  "system": "http://hl7.org/fhir/ValueSet/country"
                }
              ]
            }
          }
        ],
        "text": {
          "status": "generated",
          "div": "<div xmlns=\"http://www.w3.org/1999/xhtml\"><table class=\"hl7__ips\"><tr><td>Victor Lagarde</td><td>male</td><td>31-Aug-1939</td></tr></table></div>"
        },
        "gender": "male",
        "birthDate": "1939-08-31"
      }
    },
    {
      "fullUrl": "urn:uuid:5c35cd24-62cf-46f8-87d1-343110a49ac1",
      "resource": {
        "resourceType": "ServiceRequest",
        "id": "5c35cd24-62cf-46f8-87d1-343110a49ac1",
        "meta": {
          "profile": [
            "http://hl7.eu/fhir/laboratory/StructureDefinition/ServiceRequest-eu-lab"
          ]
        },
        "identifier": [
          {
            "system": "http://example.org",
            "value": "ca71f3be-8065-42fa-a16a-cba5d95bc759"
          }
        ],
        "specimen": [
          {
            "reference": "urn:uuid:f5376c42-0c97-47b8-bbd7-d86286d9f0fc"
          },
          {
            "reference": "urn:uuid:2b4518e8-2fb8-4863-ad4b-cea20533e56f"
          },
          {
            "reference": "urn:uuid:4bf87a84-d816-495d-8017-6bfd640658d0"
          }
        ],
        "reasonCode": [
          {
            "coding": [
              {
                "code": "433144002",
                "system": "http://snomed.info/sct",
                "display": "Chronic kidney disease stage 3"
              }
            ]
          },
          {
            "coding": [
              {
                "code": "157141000119108",
                "system": "http://snomed.info/sct",
                "display": "Proteinuria due to type 2 diabetes mellitus"
              }
            ]
          },
          {
            "coding": [
              {
                "code": "431856006",
                "system": "http://snomed.info/sct",
                "display": "Chronic kidney disease stage 2"
              }
            ]
          },
          {
            "coding": [
              {
                "code": "90781000119102",
                "system": "http://snomed.info/sct",
                "display": "Microalbuminuria due to type 2 diabetes mellitus"
              }
            ]
          },
          {
            "coding": [
              {
                "code": "127013003",
                "system": "http://snomed.info/sct",
                "display": "Disorder of kidney due to diabetes mellitus"
              }
            ]
          },
          {
            "coding": [
              {
                "code": "431855005",
                "system": "http://snomed.info/sct",
                "display": "Chronic kidney disease stage 1"
              }
            ]
          },
          {
            "coding": [
              {
                "code": "55822004",
                "system": "http://snomed.info/sct",
                "display": "Hyperlipidemia"
              }
            ]
          },
          {
            "coding": [
              {
                "code": "59621000",
                "system": "http://snomed.info/sct",
                "display": "Essential hypertension"
              }
            ]
          },
          {
            "coding": [
              {
                "code": "237602007",
                "system": "http://snomed.info/sct",
                "display": "Metabolic syndrome X"
              }
            ]
          },
          {
            "coding": [
              {
                "code": "414545008",
                "system": "http://snomed.info/sct",
                "display": "Ischemic heart disease"
              }
            ]
          },
          {
            "coding": [
              {
                "code": "40055000",
                "system": "http://snomed.info/sct",
                "display": "Chronic sinusitis"
              }
            ]
          },
          {
            "coding": [
              {
                "code": "15777000",
                "system": "http://snomed.info/sct",
                "display": "Prediabetes"
              }
            ]
          },
          {
            "coding": [
              {
                "code": "271737000",
                "system": "http://snomed.info/sct",
                "display": "Anemia"
              }
            ]
          }
        ],
        "status": "active",
        "intent": "order",
        "code": {
          "coding": [
            {
              "code": "108252007",
              "system": "http://snomed.info/sct",
              "display": "Laboratory procedure"
            }
          ]
        },
        "subject": {
          "reference": "urn:uuid:26df38b2-cc67-4157-86bc-cf2fd32759f5",
          "display": "Victor Lagarde"
        },
        "requester": {
          "reference": "urn:uuid:eb2290f7-6e8e-44e4-9eb7-12c0ef6ea8a8"
        }
      }
    },
    {
      "fullUrl": "urn:uuid:eb2290f7-6e8e-44e4-9eb7-12c0ef6ea8a8",
      "resource": {
        "resourceType": "PractitionerRole",
        "id": "eb2290f7-6e8e-44e4-9eb7-12c0ef6ea8a8",
        "meta": {
          "profile": [
            "http://hl7.eu/fhir/base/StructureDefinition/practitionerRole-eu"
          ]
        },
        "text": {
          "status": "generated",
          "div": "<div xmlns=\"http://www.w3.org/1999/xhtml\">Provider Role Id: eb2290f7-6e8e-44e4-9eb7-12c0ef6ea8a8</div>"
        },
        "organization": {
          "reference": "urn:uuid:f1ebfa28-b188-4258-b219-a8583f7e6c04"
        }
      }
    },
    {
      "fullUrl": "urn:uuid:f1ebfa28-b188-4258-b219-a8583f7e6c04",
      "resource": {
        "resourceType": "Organization",
        "id": "f1ebfa28-b188-4258-b219-a8583f7e6c04",
        "meta": {
          "profile": [
            "http://hl7.eu/fhir/base/StructureDefinition/organization-eu"
          ]
        },
        "identifier": [
          {
            "assigner": {
              "display": "HL7 Europe"
            },
            "system": "urn:oid:2.16.840.1.113883.2.51.999",
            "value": "f2e72b4f-8d57-4d64-8a16-51e7c23ae053"
          }
        ],
        "address": [
          {
            "city": "Auxerre",
            "postalCode": "89000",
            "country": "France"
          }
        ],
        "text": {
          "status": "generated",
          "div": "<div xmlns=\"http://www.w3.org/1999/xhtml\">Provider Organization: Thiriot Didier (Cardiologie)</div>"
        },
        "name": "Thiriot Didier (Cardiologie)"
      }
    },
    {
      "fullUrl": "urn:uuid:f5376c42-0c97-47b8-bbd7-d86286d9f0fc",
      "resource": {
        "resourceType": "Specimen",
        "id": "f5376c42-0c97-47b8-bbd7-d86286d9f0fc",
        "meta": {
          "profile": [
            "http://hl7.eu/fhir/laboratory/StructureDefinition/Specimen-eu-lab"
          ]
        },
        "collection": {
          "collectedDateTime": "2020-12-04"
        },
        "text": {
          "status": "generated",
          "div": "<div xmlns=\"http://www.w3.org/1999/xhtml\"><table class=\"hl7__eu__lab__report\"><tr><th>Specimen</th><th>Collection Date</th></tr><tr><td>Acellular blood (serum or plasma) specimen</td><td><span class=\"nb\">04-Dec-2020</span></td></tr></table></div>"
        },
        "type": {
          "coding": [
            {
              "code": "122592007",
              "system": "http://snomed.info/sct",
              "display": "Acellular blood (serum or plasma) specimen"
            }
          ]
        }
      }
    },
    {
      "fullUrl": "urn:uuid:2b4518e8-2fb8-4863-ad4b-cea20533e56f",
      "resource": {
        "resourceType": "Specimen",
        "id": "2b4518e8-2fb8-4863-ad4b-cea20533e56f",
        "meta": {
          "profile": [
            "http://hl7.eu/fhir/laboratory/StructureDefinition/Specimen-eu-lab"
          ]
        },
        "collection": {
          "collectedDateTime": "2020-12-04"
        },
        "text": {
          "status": "generated",
          "div": "<div xmlns=\"http://www.w3.org/1999/xhtml\"><table class=\"hl7__eu__lab__report\"><tr><th>Specimen</th><th>Collection Date</th></tr><tr><td>Urine specimen</td><td><span class=\"nb\">04-Dec-2020</span></td></tr></table></div>"
        },
        "type": {
          "coding": [
            {
              "code": "122575003",
              "system": "http://snomed.info/sct",
              "display": "Urine specimen"
            }
          ]
        }
      }
    },
    {
      "fullUrl": "urn:uuid:4bf87a84-d816-495d-8017-6bfd640658d0",
      "resource": {
        "resourceType": "Specimen",
        "id": "4bf87a84-d816-495d-8017-6bfd640658d0",
        "meta": {
          "profile": [
            "http://hl7.eu/fhir/laboratory/StructureDefinition/Specimen-eu-lab"
          ]
        },
        "collection": {
          "collectedDateTime": "2020-12-04"
        },
        "text": {
          "status": "generated",
          "div": "<div xmlns=\"http://www.w3.org/1999/xhtml\"><table class=\"hl7__eu__lab__report\"><tr><th>Specimen</th><th>Collection Date</th></tr><tr><td>Whole blood specimen (specimen)</td><td><span class=\"nb\">04-Dec-2020</span></td></tr></table></div>"
        },
        "type": {
          "coding": [
            {
              "code": "258580003",
              "system": "http://snomed.info/sct",
              "display": "Whole blood specimen (specimen)"
            }
          ]
        }
      }
    },
    {
      "fullUrl": "urn:uuid:4bf87a84-d816-495d-8017-6bfd640658d0",
      "resource": {
        "resourceType": "Specimen",
        "id": "4bf87a84-d816-495d-8017-6bfd640658d0",
        "meta": {
          "profile": [
            "http://hl7.eu/fhir/laboratory/StructureDefinition/Specimen-eu-lab"
          ]
        },
        "collection": {
          "collectedDateTime": "2020-12-04"
        },
        "text": {
          "status": "generated",
          "div": "<div xmlns=\"http://www.w3.org/1999/xhtml\"><table class=\"hl7__eu__lab__report\"><tr><th>Specimen</th><th>Collection Date</th></tr><tr><td>Whole blood specimen (specimen)</td><td><span class=\"nb\">04-Dec-2020</span></td></tr></table></div>"
        },
        "type": {
          "coding": [
            {
              "code": "258580003",
              "system": "http://snomed.info/sct",
              "display": "Whole blood specimen (specimen)"
            }
          ]
        }
      }
    },
    {
      "fullUrl": "urn:uuid:33793999-93af-4287-bde2-58016caebc72",
      "resource": {
        "resourceType": "Observation",
        "id": "33793999-93af-4287-bde2-58016caebc72",
        "meta": {
          "profile": [
            "http://hl7.eu/fhir/laboratory/StructureDefinition/Observation-resultslab-eu-lab"
          ]
        },
        "performer": [
          {
            "display": "The Central European Lab"
          }
        ],
        "category": [
          {
            "coding": [
              {
                "system": "http://terminology.hl7.org/CodeSystem/observation-category",
                "code": "laboratory"
              }
            ]
          }
        ],
        "code": {
          "coding": [
            {
              "code": "2345-7",
              "system": "http://loinc.org",
              "display": "Glucose [Mass/volume] in Serum or Plasma"
            }
          ],
          "text": "Glucose [Mass/volume] in Serum or Plasma"
        },
        "valueQuantity": {
          "system": "http://unitsofmeasure.org",
          "value": 92.1,
          "unit": "mg/dL",
          "code": "mg/dL"
        },
        "referenceRange": [
          {
            "low": {
              "value": 70,
              "code": "mg/dL",
              "system": "http://unitsofmeasure.org"
            }
          },
          {
            "high": {
              "value": 140,
              "code": "mg/dL",
              "system": "http://unitsofmeasure.org"
            }
          }
        ],
        "text": {
          "status": "generated",
          "div": "<div xmlns=\"http://www.w3.org/1999/xhtml\"><table class=\"hl7__eu__lab__report\"><tr><th>Test</th><th>04-Dec-2020</th><th>Reference&#xA0;Range</th><th>Unit</th></tr><tr><td>Glucose [Mass/volume] in Serum or Plasma</td><td>92.1</td><td>70 - 140</td><td></td><td>mg/dL</td></tr></table></div>"
        },
        "status": "final",
        "subject": {
          "reference": "urn:uuid:26df38b2-cc67-4157-86bc-cf2fd32759f5",
          "display": "Victor Lagarde"
        },
        "effectiveDateTime": "2020-12-04T04:48:18Z",
        "specimen": {
          "reference": "urn:uuid:f5376c42-0c97-47b8-bbd7-d86286d9f0fc"
        }
      }
    },
    {
      "fullUrl": "urn:uuid:9e359747-3add-4feb-a0ab-bae48236823d",
      "resource": {
        "resourceType": "Observation",
        "id": "9e359747-3add-4feb-a0ab-bae48236823d",
        "meta": {
          "profile": [
            "http://hl7.eu/fhir/laboratory/StructureDefinition/Observation-resultslab-eu-lab"
          ]
        },
        "performer": [
          {
            "display": "The Central European Lab"
          }
        ],
        "category": [
          {
            "coding": [
              {
                "system": "http://terminology.hl7.org/CodeSystem/observation-category",
                "code": "laboratory"
              }
            ]
          }
        ],
        "code": {
          "coding": [
            {
              "code": "3094-0",
              "system": "http://loinc.org",
              "display": "Urea nitrogen [Mass/volume] in Serum or Plasma"
            }
          ],
          "text": "Urea nitrogen [Mass/volume] in Serum or Plasma"
        },
        "valueQuantity": {
          "system": "http://unitsofmeasure.org",
          "value": 8.1,
          "unit": "mg/dL",
          "code": "mg/dL"
        },
        "referenceRange": [
          {
            "low": {
              "value": 7,
              "code": "mg/dL",
              "system": "http://unitsofmeasure.org"
            }
          },
          {
            "high": {
              "value": 20,
              "code": "mg/dL",
              "system": "http://unitsofmeasure.org"
            }
          }
        ],
        "text": {
          "status": "generated",
          "div": "<div xmlns=\"http://www.w3.org/1999/xhtml\"><table class=\"hl7__eu__lab__report\"><tr><th>Test</th><th>04-Dec-2020</th><th>Reference&#xA0;Range</th><th>Unit</th></tr><tr><td>Urea nitrogen [Mass/volume] in Serum or Plasma</td><td>8.1</td><td>7 - 20</td><td></td><td>mg/dL</td></tr></table></div>"
        },
        "status": "final",
        "subject": {
          "reference": "urn:uuid:26df38b2-cc67-4157-86bc-cf2fd32759f5",
          "display": "Victor Lagarde"
        },
        "effectiveDateTime": "2020-12-04T04:48:18Z",
        "specimen": {
          "reference": "urn:uuid:f5376c42-0c97-47b8-bbd7-d86286d9f0fc"
        }
      }
    },
    {
      "fullUrl": "urn:uuid:a7ceafb0-a915-4395-944b-cdba1fbca83f",
      "resource": {
        "resourceType": "Observation",
        "id": "a7ceafb0-a915-4395-944b-cdba1fbca83f",
        "meta": {
          "profile": [
            "http://hl7.eu/fhir/laboratory/StructureDefinition/Observation-resultslab-eu-lab"
          ]
        },
        "performer": [
          {
            "display": "The Central European Lab"
          }
        ],
        "category": [
          {
            "coding": [
              {
                "system": "http://terminology.hl7.org/CodeSystem/observation-category",
                "code": "laboratory"
              }
            ]
          }
        ],
        "code": {
          "coding": [
            {
              "code": "2160-0",
              "system": "http://loinc.org",
              "display": "Creatinine [Mass/volume] in Serum or Plasma"
            }
          ],
          "text": "Creatinine [Mass/volume] in Serum or Plasma"
        },
        "valueQuantity": {
          "system": "http://unitsofmeasure.org",
          "value": 1.9,
          "unit": "mg/dL",
          "code": "mg/dL"
        },
        "referenceRange": [
          {
            "low": {
              "value": 0.9,
              "code": "mg/dL",
              "system": "http://unitsofmeasure.org"
            }
          },
          {
            "high": {
              "value": 1.3,
              "code": "mg/dL",
              "system": "http://unitsofmeasure.org"
            }
          }
        ],
        "interpretation": [
          {
            "coding": [
              {
                "code": "H",
                "system": "http://terminology.hl7.org/CodeSystem/v3-ObservationInterpretation",
                "display": "High"
              }
            ]
          }
        ],
        "text": {
          "status": "generated",
          "div": "<div xmlns=\"http://www.w3.org/1999/xhtml\"><table class=\"hl7__eu__lab__report\"><tr><th>Test</th><th>04-Dec-2020</th><th>Reference&#xA0;Range</th><th>Unit</th></tr><tr><td>Creatinine [Mass/volume] in Serum or Plasma</td><td>1.9</td><td>0.9 - 1.3</td><td>H</td><td>mg/dL</td></tr></table></div>"
        },
        "status": "final",
        "subject": {
          "reference": "urn:uuid:26df38b2-cc67-4157-86bc-cf2fd32759f5",
          "display": "Victor Lagarde"
        },
        "effectiveDateTime": "2020-12-04T04:48:18Z",
        "specimen": {
          "reference": "urn:uuid:f5376c42-0c97-47b8-bbd7-d86286d9f0fc"
        }
      }
    },
    {
      "fullUrl": "urn:uuid:021429e3-d802-4e16-b714-9e8f948b49a4",
      "resource": {
        "resourceType": "Observation",
        "id": "021429e3-d802-4e16-b714-9e8f948b49a4",
        "meta": {
          "profile": [
            "http://hl7.eu/fhir/laboratory/StructureDefinition/Observation-resultslab-eu-lab"
          ]
        },
        "performer": [
          {
            "display": "The Central European Lab"
          }
        ],
        "category": [
          {
            "coding": [
              {
                "system": "http://terminology.hl7.org/CodeSystem/observation-category",
                "code": "laboratory"
              }
            ]
          }
        ],
        "code": {
          "coding": [
            {
              "code": "17861-6",
              "system": "http://loinc.org",
              "display": "Calcium [Mass/volume] in Serum or Plasma"
            }
          ],
          "text": "Calcium [Mass/volume] in Serum or Plasma"
        },
        "valueQuantity": {
          "system": "http://unitsofmeasure.org",
          "value": 9.9,
          "unit": "mg/dL",
          "code": "mg/dL"
        },
        "referenceRange": [
          {
            "low": {
              "value": 8.5,
              "code": "mg/dL",
              "system": "http://unitsofmeasure.org"
            }
          },
          {
            "high": {
              "value": 10.5,
              "code": "mg/dL",
              "system": "http://unitsofmeasure.org"
            }
          }
        ],
        "text": {
          "status": "generated",
          "div": "<div xmlns=\"http://www.w3.org/1999/xhtml\"><table class=\"hl7__eu__lab__report\"><tr><th>Test</th><th>04-Dec-2020</th><th>Reference&#xA0;Range</th><th>Unit</th></tr><tr><td>Calcium [Mass/volume] in Serum or Plasma</td><td>9.9</td><td>8.5 - 10.5</td><td></td><td>mg/dL</td></tr></table></div>"
        },
        "status": "final",
        "subject": {
          "reference": "urn:uuid:26df38b2-cc67-4157-86bc-cf2fd32759f5",
          "display": "Victor Lagarde"
        },
        "effectiveDateTime": "2020-12-04T04:48:18Z",
        "specimen": {
          "reference": "urn:uuid:f5376c42-0c97-47b8-bbd7-d86286d9f0fc"
        }
      }
    },
    {
      "fullUrl": "urn:uuid:4c3024de-5499-4edc-b0bd-46cdea144f11",
      "resource": {
        "resourceType": "Observation",
        "id": "4c3024de-5499-4edc-b0bd-46cdea144f11",
        "meta": {
          "profile": [
            "http://hl7.eu/fhir/laboratory/StructureDefinition/Observation-resultslab-eu-lab"
          ]
        },
        "performer": [
          {
            "display": "The Central European Lab"
          }
        ],
        "category": [
          {
            "coding": [
              {
                "system": "http://terminology.hl7.org/CodeSystem/observation-category",
                "code": "laboratory"
              }
            ]
          }
        ],
        "code": {
          "coding": [
            {
              "code": "2951-2",
              "system": "http://loinc.org",
              "display": "Sodium [Moles/volume] in Serum or Plasma"
            }
          ],
          "text": "Sodium [Moles/volume] in Serum or Plasma"
        },
        "valueQuantity": {
          "system": "http://unitsofmeasure.org",
          "value": 143.8,
          "unit": "mmol/L",
          "code": "mmol/L"
        },
        "referenceRange": [
          {
            "low": {
              "value": 135,
              "code": "mmol/L",
              "system": "http://unitsofmeasure.org"
            }
          },
          {
            "high": {
              "value": 145,
              "code": "mmol/L",
              "system": "http://unitsofmeasure.org"
            }
          }
        ],
        "text": {
          "status": "generated",
          "div": "<div xmlns=\"http://www.w3.org/1999/xhtml\"><table class=\"hl7__eu__lab__report\"><tr><th>Test</th><th>04-Dec-2020</th><th>Reference&#xA0;Range</th><th>Unit</th></tr><tr><td>Sodium [Moles/volume] in Serum or Plasma</td><td>143.8</td><td>135 - 145</td><td></td><td>mmol/L</td></tr></table></div>"
        },
        "status": "final",
        "subject": {
          "reference": "urn:uuid:26df38b2-cc67-4157-86bc-cf2fd32759f5",
          "display": "Victor Lagarde"
        },
        "effectiveDateTime": "2020-12-04T04:48:18Z",
        "specimen": {
          "reference": "urn:uuid:f5376c42-0c97-47b8-bbd7-d86286d9f0fc"
        }
      }
    },
    {
      "fullUrl": "urn:uuid:f7e82df7-eac8-4b8c-b3a5-04d208f061e2",
      "resource": {
        "resourceType": "Observation",
        "id": "f7e82df7-eac8-4b8c-b3a5-04d208f061e2",
        "meta": {
          "profile": [
            "http://hl7.eu/fhir/laboratory/StructureDefinition/Observation-resultslab-eu-lab"
          ]
        },
        "performer": [
          {
            "display": "The Central European Lab"
          }
        ],
        "category": [
          {
            "coding": [
              {
                "system": "http://terminology.hl7.org/CodeSystem/observation-category",
                "code": "laboratory"
              }
            ]
          }
        ],
        "code": {
          "coding": [
            {
              "code": "2823-3",
              "system": "http://loinc.org",
              "display": "Potassium [Moles/volume] in Serum or Plasma"
            }
          ],
          "text": "Potassium [Moles/volume] in Serum or Plasma"
        },
        "valueQuantity": {
          "system": "http://unitsofmeasure.org",
          "value": 3.8,
          "unit": "mmol/L",
          "code": "mmol/L"
        },
        "referenceRange": [
          {
            "low": {
              "value": 3.5,
              "code": "mmol/L",
              "system": "http://unitsofmeasure.org"
            }
          },
          {
            "high": {
              "value": 5.3,
              "code": "mmol/L",
              "system": "http://unitsofmeasure.org"
            }
          }
        ],
        "text": {
          "status": "generated",
          "div": "<div xmlns=\"http://www.w3.org/1999/xhtml\"><table class=\"hl7__eu__lab__report\"><tr><th>Test</th><th>04-Dec-2020</th><th>Reference&#xA0;Range</th><th>Unit</th></tr><tr><td>Potassium [Moles/volume] in Serum or Plasma</td><td>3.8</td><td>3.5 - 5.3</td><td></td><td>mmol/L</td></tr></table></div>"
        },
        "status": "final",
        "subject": {
          "reference": "urn:uuid:26df38b2-cc67-4157-86bc-cf2fd32759f5",
          "display": "Victor Lagarde"
        },
        "effectiveDateTime": "2020-12-04T04:48:18Z",
        "specimen": {
          "reference": "urn:uuid:f5376c42-0c97-47b8-bbd7-d86286d9f0fc"
        }
      }
    },
    {
      "fullUrl": "urn:uuid:a8eb5011-b7ac-4f69-8a36-91efe4094bcf",
      "resource": {
        "resourceType": "Observation",
        "id": "a8eb5011-b7ac-4f69-8a36-91efe4094bcf",
        "meta": {
          "profile": [
            "http://hl7.eu/fhir/laboratory/StructureDefinition/Observation-resultslab-eu-lab"
          ]
        },
        "performer": [
          {
            "display": "The Central European Lab"
          }
        ],
        "category": [
          {
            "coding": [
              {
                "system": "http://terminology.hl7.org/CodeSystem/observation-category",
                "code": "laboratory"
              }
            ]
          }
        ],
        "code": {
          "coding": [
            {
              "code": "2075-0",
              "system": "http://loinc.org",
              "display": "Chloride [Moles/volume] in Serum or Plasma"
            }
          ],
          "text": "Chloride [Moles/volume] in Serum or Plasma"
        },
        "valueQuantity": {
          "system": "http://unitsofmeasure.org",
          "value": 107,
          "unit": "mmol/L",
          "code": "mmol/L"
        },
        "referenceRange": [
          {
            "low": {
              "value": 98,
              "code": "mmol/L",
              "system": "http://unitsofmeasure.org"
            }
          },
          {
            "high": {
              "value": 107,
              "code": "mmol/L",
              "system": "http://unitsofmeasure.org"
            }
          }
        ],
        "text": {
          "status": "generated",
          "div": "<div xmlns=\"http://www.w3.org/1999/xhtml\"><table class=\"hl7__eu__lab__report\"><tr><th>Test</th><th>04-Dec-2020</th><th>Reference&#xA0;Range</th><th>Unit</th></tr><tr><td>Chloride [Moles/volume] in Serum or Plasma</td><td>107.0</td><td>98 - 107</td><td></td><td>mmol/L</td></tr></table></div>"
        },
        "status": "final",
        "subject": {
          "reference": "urn:uuid:26df38b2-cc67-4157-86bc-cf2fd32759f5",
          "display": "Victor Lagarde"
        },
        "effectiveDateTime": "2020-12-04T04:48:18Z",
        "specimen": {
          "reference": "urn:uuid:f5376c42-0c97-47b8-bbd7-d86286d9f0fc"
        }
      }
    },
    {
      "fullUrl": "urn:uuid:f298815c-a474-458a-b38d-0c7eec27c8df",
      "resource": {
        "resourceType": "Observation",
        "id": "f298815c-a474-458a-b38d-0c7eec27c8df",
        "meta": {
          "profile": [
            "http://hl7.eu/fhir/laboratory/StructureDefinition/Observation-resultslab-eu-lab"
          ]
        },
        "performer": [
          {
            "display": "The Central European Lab"
          }
        ],
        "category": [
          {
            "coding": [
              {
                "system": "http://terminology.hl7.org/CodeSystem/observation-category",
                "code": "laboratory"
              }
            ]
          }
        ],
        "code": {
          "coding": [
            {
              "code": "2028-9",
              "system": "http://loinc.org",
              "display": "Carbon dioxide, total [Moles/volume] in Serum or Plasma"
            }
          ],
          "text": "Carbon dioxide, total [Moles/volume] in Serum or Plasma"
        },
        "valueQuantity": {
          "system": "http://unitsofmeasure.org",
          "value": 23.2,
          "unit": "mmol/L",
          "code": "mmol/L"
        },
        "referenceRange": [
          {
            "low": {
              "value": 22,
              "code": "mmol/L",
              "system": "http://unitsofmeasure.org"
            }
          },
          {
            "high": {
              "value": 33,
              "code": "mmol/L",
              "system": "http://unitsofmeasure.org"
            }
          }
        ],
        "text": {
          "status": "generated",
          "div": "<div xmlns=\"http://www.w3.org/1999/xhtml\"><table class=\"hl7__eu__lab__report\"><tr><th>Test</th><th>04-Dec-2020</th><th>Reference&#xA0;Range</th><th>Unit</th></tr><tr><td>Carbon dioxide, total [Moles/volume] in Serum or Plasma</td><td>23.2</td><td>22 - 33</td><td></td><td>mmol/L</td></tr></table></div>"
        },
        "status": "final",
        "subject": {
          "reference": "urn:uuid:26df38b2-cc67-4157-86bc-cf2fd32759f5",
          "display": "Victor Lagarde"
        },
        "effectiveDateTime": "2020-12-04T04:48:18Z",
        "specimen": {
          "reference": "urn:uuid:f5376c42-0c97-47b8-bbd7-d86286d9f0fc"
        }
      }
    },
    {
      "fullUrl": "urn:uuid:72ecc568-33a4-4b24-8f9f-2a328a0332c9",
      "resource": {
        "resourceType": "Observation",
        "id": "72ecc568-33a4-4b24-8f9f-2a328a0332c9",
        "meta": {
          "profile": [
            "http://hl7.eu/fhir/laboratory/StructureDefinition/Observation-resultslab-eu-lab"
          ]
        },
        "performer": [
          {
            "display": "The Central European Lab"
          }
        ],
        "category": [
          {
            "coding": [
              {
                "system": "http://terminology.hl7.org/CodeSystem/observation-category",
                "code": "laboratory"
              }
            ]
          }
        ],
        "code": {
          "coding": [
            {
              "code": "5767-9",
              "system": "http://loinc.org",
              "display": "Appearance of Urine"
            }
          ],
          "text": "Appearance of Urine"
        },
        "text": {
          "status": "generated",
          "div": "<div xmlns=\"http://www.w3.org/1999/xhtml\"><table class=\"hl7__eu__lab__report\"><tr><th>Test</th><th>04-Dec-2020</th><th>Reference&#xA0;Range</th><th>Unit</th></tr><tr><td>Appearance of Urine</td></tr></table></div>"
        },
        "status": "final",
        "subject": {
          "reference": "urn:uuid:26df38b2-cc67-4157-86bc-cf2fd32759f5",
          "display": "Victor Lagarde"
        },
        "effectiveDateTime": "2020-12-04T04:48:18Z",
        "specimen": {
          "reference": "urn:uuid:2b4518e8-2fb8-4863-ad4b-cea20533e56f"
        }
      }
    },
    {
      "fullUrl": "urn:uuid:c6d32c07-5a02-4804-92b5-8a27d9f3b6aa",
      "resource": {
        "resourceType": "Observation",
        "id": "c6d32c07-5a02-4804-92b5-8a27d9f3b6aa",
        "meta": {
          "profile": [
            "http://hl7.eu/fhir/laboratory/StructureDefinition/Observation-resultslab-eu-lab"
          ]
        },
        "performer": [
          {
            "display": "The Central European Lab"
          }
        ],
        "category": [
          {
            "coding": [
              {
                "system": "http://terminology.hl7.org/CodeSystem/observation-category",
                "code": "laboratory"
              }
            ]
          }
        ],
        "code": {
          "coding": [
            {
              "code": "34533-0",
              "system": "http://loinc.org",
              "display": "Odor of Urine"
            }
          ],
          "text": "Odor of Urine"
        },
        "text": {
          "status": "generated",
          "div": "<div xmlns=\"http://www.w3.org/1999/xhtml\"><table class=\"hl7__eu__lab__report\"><tr><th>Test</th><th>04-Dec-2020</th><th>Reference&#xA0;Range</th><th>Unit</th></tr><tr><td>Odor of Urine</td></tr></table></div>"
        },
        "status": "final",
        "subject": {
          "reference": "urn:uuid:26df38b2-cc67-4157-86bc-cf2fd32759f5",
          "display": "Victor Lagarde"
        },
        "effectiveDateTime": "2020-12-04T04:48:18Z",
        "specimen": {
          "reference": "urn:uuid:2b4518e8-2fb8-4863-ad4b-cea20533e56f"
        }
      }
    },
    {
      "fullUrl": "urn:uuid:e8016617-6aeb-430c-8244-77cfb99af44f",
      "resource": {
        "resourceType": "Observation",
        "id": "e8016617-6aeb-430c-8244-77cfb99af44f",
        "meta": {
          "profile": [
            "http://hl7.eu/fhir/laboratory/StructureDefinition/Observation-resultslab-eu-lab"
          ]
        },
        "performer": [
          {
            "display": "The Central European Lab"
          }
        ],
        "category": [
          {
            "coding": [
              {
                "system": "http://terminology.hl7.org/CodeSystem/observation-category",
                "code": "laboratory"
              }
            ]
          }
        ],
        "code": {
          "coding": [
            {
              "code": "32167-9",
              "system": "http://loinc.org",
              "display": "Clarity of Urine"
            }
          ],
          "text": "Clarity of Urine"
        },
        "text": {
          "status": "generated",
          "div": "<div xmlns=\"http://www.w3.org/1999/xhtml\"><table class=\"hl7__eu__lab__report\"><tr><th>Test</th><th>04-Dec-2020</th><th>Reference&#xA0;Range</th><th>Unit</th></tr><tr><td>Clarity of Urine</td></tr></table></div>"
        },
        "status": "final",
        "subject": {
          "reference": "urn:uuid:26df38b2-cc67-4157-86bc-cf2fd32759f5",
          "display": "Victor Lagarde"
        },
        "effectiveDateTime": "2020-12-04T04:48:18Z",
        "specimen": {
          "reference": "urn:uuid:2b4518e8-2fb8-4863-ad4b-cea20533e56f"
        }
      }
    },
    {
      "fullUrl": "urn:uuid:fc87d65c-cef1-4e6c-b037-b507573c6a80",
      "resource": {
        "resourceType": "Observation",
        "id": "fc87d65c-cef1-4e6c-b037-b507573c6a80",
        "meta": {
          "profile": [
            "http://hl7.eu/fhir/laboratory/StructureDefinition/Observation-resultslab-eu-lab"
          ]
        },
        "performer": [
          {
            "display": "The Central European Lab"
          }
        ],
        "category": [
          {
            "coding": [
              {
                "system": "http://terminology.hl7.org/CodeSystem/observation-category",
                "code": "laboratory"
              }
            ]
          }
        ],
        "code": {
          "coding": [
            {
              "code": "5778-6",
              "system": "http://loinc.org",
              "display": "Color of Urine"
            }
          ],
          "text": "Color of Urine"
        },
        "text": {
          "status": "generated",
          "div": "<div xmlns=\"http://www.w3.org/1999/xhtml\"><table class=\"hl7__eu__lab__report\"><tr><th>Test</th><th>04-Dec-2020</th><th>Reference&#xA0;Range</th><th>Unit</th></tr><tr><td>Color of Urine</td></tr></table></div>"
        },
        "status": "final",
        "subject": {
          "reference": "urn:uuid:26df38b2-cc67-4157-86bc-cf2fd32759f5",
          "display": "Victor Lagarde"
        },
        "effectiveDateTime": "2020-12-04T04:48:18Z",
        "specimen": {
          "reference": "urn:uuid:2b4518e8-2fb8-4863-ad4b-cea20533e56f"
        }
      }
    },
    {
      "fullUrl": "urn:uuid:cd4f08de-7c0b-4d73-9136-6c1685c0c936",
      "resource": {
        "resourceType": "Observation",
        "id": "cd4f08de-7c0b-4d73-9136-6c1685c0c936",
        "meta": {
          "profile": [
            "http://hl7.eu/fhir/laboratory/StructureDefinition/Observation-resultslab-eu-lab"
          ]
        },
        "performer": [
          {
            "display": "The Central European Lab"
          }
        ],
        "category": [
          {
            "coding": [
              {
                "system": "http://terminology.hl7.org/CodeSystem/observation-category",
                "code": "laboratory"
              }
            ]
          }
        ],
        "code": {
          "coding": [
            {
              "code": "5792-7",
              "system": "http://loinc.org",
              "display": "Glucose [Mass/volume] in Urine by Test strip"
            }
          ],
          "text": "Glucose [Mass/volume] in Urine by Test strip"
        },
        "valueQuantity": {
          "system": "http://unitsofmeasure.org",
          "value": 1.4,
          "unit": "mg/dL",
          "code": "mg/dL"
        },
        "referenceRange": [
          {
            "low": {
              "value": 0,
              "code": "mg/dL",
              "system": "http://unitsofmeasure.org"
            }
          },
          {
            "high": {
              "value": 0.8,
              "code": "mg/dL",
              "system": "http://unitsofmeasure.org"
            }
          }
        ],
        "interpretation": [
          {
            "coding": [
              {
                "code": "H",
                "system": "http://terminology.hl7.org/CodeSystem/v3-ObservationInterpretation",
                "display": "High"
              }
            ]
          }
        ],
        "text": {
          "status": "generated",
          "div": "<div xmlns=\"http://www.w3.org/1999/xhtml\"><table class=\"hl7__eu__lab__report\"><tr><th>Test</th><th>04-Dec-2020</th><th>Reference&#xA0;Range</th><th>Unit</th></tr><tr><td>Glucose [Mass/volume] in Urine by Test strip</td><td>1.4</td><td>0 - 0.8</td><td>H</td><td>mg/dL</td></tr></table></div>"
        },
        "status": "final",
        "subject": {
          "reference": "urn:uuid:26df38b2-cc67-4157-86bc-cf2fd32759f5",
          "display": "Victor Lagarde"
        },
        "effectiveDateTime": "2020-12-04T04:48:18Z",
        "specimen": {
          "reference": "urn:uuid:2b4518e8-2fb8-4863-ad4b-cea20533e56f"
        }
      }
    },
    {
      "fullUrl": "urn:uuid:f0b59ad5-3a2f-4a43-b842-90101a8ef99e",
      "resource": {
        "resourceType": "Observation",
        "id": "f0b59ad5-3a2f-4a43-b842-90101a8ef99e",
        "meta": {
          "profile": [
            "http://hl7.eu/fhir/laboratory/StructureDefinition/Observation-resultslab-eu-lab"
          ]
        },
        "performer": [
          {
            "display": "The Central European Lab"
          }
        ],
        "category": [
          {
            "coding": [
              {
                "system": "http://terminology.hl7.org/CodeSystem/observation-category",
                "code": "laboratory"
              }
            ]
          }
        ],
        "code": {
          "coding": [
            {
              "code": "25428-4",
              "system": "http://loinc.org",
              "display": "Glucose [Presence] in Urine by Test strip"
            }
          ],
          "text": "Glucose [Presence] in Urine by Test strip"
        },
        "text": {
          "status": "generated",
          "div": "<div xmlns=\"http://www.w3.org/1999/xhtml\"><table class=\"hl7__eu__lab__report\"><tr><th>Test</th><th>04-Dec-2020</th><th>Reference&#xA0;Range</th><th>Unit</th></tr><tr><td>Glucose [Presence] in Urine by Test strip</td></tr></table></div>"
        },
        "status": "final",
        "subject": {
          "reference": "urn:uuid:26df38b2-cc67-4157-86bc-cf2fd32759f5",
          "display": "Victor Lagarde"
        },
        "effectiveDateTime": "2020-12-04T04:48:18Z",
        "specimen": {
          "reference": "urn:uuid:2b4518e8-2fb8-4863-ad4b-cea20533e56f"
        }
      }
    },
    {
      "fullUrl": "urn:uuid:db08764a-c7ff-4ad5-831c-18c3be52757e",
      "resource": {
        "resourceType": "Observation",
        "id": "db08764a-c7ff-4ad5-831c-18c3be52757e",
        "meta": {
          "profile": [
            "http://hl7.eu/fhir/laboratory/StructureDefinition/Observation-resultslab-eu-lab"
          ]
        },
        "performer": [
          {
            "display": "The Central European Lab"
          }
        ],
        "category": [
          {
            "coding": [
              {
                "system": "http://terminology.hl7.org/CodeSystem/observation-category",
                "code": "laboratory"
              }
            ]
          }
        ],
        "code": {
          "coding": [
            {
              "code": "20505-4",
              "system": "http://loinc.org",
              "display": "Bilirubin.total [Mass/volume] in Urine by Test strip"
            }
          ],
          "text": "Bilirubin.total [Mass/volume] in Urine by Test strip"
        },
        "valueQuantity": {
          "system": "http://unitsofmeasure.org",
          "value": 1.4,
          "unit": "mg/dL",
          "code": "mg/dL"
        },
        "referenceRange": [
          {
            "low": {
              "value": 0,
              "code": "mg/dL",
              "system": "http://unitsofmeasure.org"
            }
          },
          {
            "high": {
              "value": 1.9,
              "code": "mg/dL",
              "system": "http://unitsofmeasure.org"
            }
          }
        ],
        "text": {
          "status": "generated",
          "div": "<div xmlns=\"http://www.w3.org/1999/xhtml\"><table class=\"hl7__eu__lab__report\"><tr><th>Test</th><th>04-Dec-2020</th><th>Reference&#xA0;Range</th><th>Unit</th></tr><tr><td>Bilirubin.total [Mass/volume] in Urine by Test strip</td><td>1.4</td><td>0 - 1.9</td><td></td><td>mg/dL</td></tr></table></div>"
        },
        "status": "final",
        "subject": {
          "reference": "urn:uuid:26df38b2-cc67-4157-86bc-cf2fd32759f5",
          "display": "Victor Lagarde"
        },
        "effectiveDateTime": "2020-12-04T04:48:18Z",
        "specimen": {
          "reference": "urn:uuid:2b4518e8-2fb8-4863-ad4b-cea20533e56f"
        }
      }
    },
    {
      "fullUrl": "urn:uuid:07fd05ab-fd97-40e6-8992-52d9789be768",
      "resource": {
        "resourceType": "Observation",
        "id": "07fd05ab-fd97-40e6-8992-52d9789be768",
        "meta": {
          "profile": [
            "http://hl7.eu/fhir/laboratory/StructureDefinition/Observation-resultslab-eu-lab"
          ]
        },
        "performer": [
          {
            "display": "The Central European Lab"
          }
        ],
        "category": [
          {
            "coding": [
              {
                "system": "http://terminology.hl7.org/CodeSystem/observation-category",
                "code": "laboratory"
              }
            ]
          }
        ],
        "code": {
          "coding": [
            {
              "code": "5770-3",
              "system": "http://loinc.org",
              "display": "Bilirubin.total [Presence] in Urine by Test strip"
            }
          ],
          "text": "Bilirubin.total [Presence] in Urine by Test strip"
        },
        "text": {
          "status": "generated",
          "div": "<div xmlns=\"http://www.w3.org/1999/xhtml\"><table class=\"hl7__eu__lab__report\"><tr><th>Test</th><th>04-Dec-2020</th><th>Reference&#xA0;Range</th><th>Unit</th></tr><tr><td>Bilirubin.total [Presence] in Urine by Test strip</td></tr></table></div>"
        },
        "status": "final",
        "subject": {
          "reference": "urn:uuid:26df38b2-cc67-4157-86bc-cf2fd32759f5",
          "display": "Victor Lagarde"
        },
        "effectiveDateTime": "2020-12-04T04:48:18Z",
        "specimen": {
          "reference": "urn:uuid:2b4518e8-2fb8-4863-ad4b-cea20533e56f"
        }
      }
    },
    {
      "fullUrl": "urn:uuid:c5b45904-10b0-4e2c-8c27-74231b5e8496",
      "resource": {
        "resourceType": "Observation",
        "id": "c5b45904-10b0-4e2c-8c27-74231b5e8496",
        "meta": {
          "profile": [
            "http://hl7.eu/fhir/laboratory/StructureDefinition/Observation-resultslab-eu-lab"
          ]
        },
        "performer": [
          {
            "display": "The Central European Lab"
          }
        ],
        "category": [
          {
            "coding": [
              {
                "system": "http://terminology.hl7.org/CodeSystem/observation-category",
                "code": "laboratory"
              }
            ]
          }
        ],
        "code": {
          "coding": [
            {
              "code": "5797-6",
              "system": "http://loinc.org",
              "display": "Ketones [Mass/volume] in Urine by Test strip"
            }
          ],
          "text": "Ketones [Mass/volume] in Urine by Test strip"
        },
        "valueQuantity": {
          "system": "http://unitsofmeasure.org",
          "value": 16.6,
          "unit": "mg/dL",
          "code": "mg/dL"
        },
        "referenceRange": [
          {
            "low": {
              "value": 0,
              "code": "mg/dL",
              "system": "http://unitsofmeasure.org"
            }
          },
          {
            "high": {
              "value": 3,
              "code": "mg/dL",
              "system": "http://unitsofmeasure.org"
            }
          }
        ],
        "interpretation": [
          {
            "coding": [
              {
                "code": "H",
                "system": "http://terminology.hl7.org/CodeSystem/v3-ObservationInterpretation",
                "display": "High"
              }
            ]
          }
        ],
        "text": {
          "status": "generated",
          "div": "<div xmlns=\"http://www.w3.org/1999/xhtml\"><table class=\"hl7__eu__lab__report\"><tr><th>Test</th><th>04-Dec-2020</th><th>Reference&#xA0;Range</th><th>Unit</th></tr><tr><td>Ketones [Mass/volume] in Urine by Test strip</td><td>16.6</td><td>0 - 3</td><td>H</td><td>mg/dL</td></tr></table></div>"
        },
        "status": "final",
        "subject": {
          "reference": "urn:uuid:26df38b2-cc67-4157-86bc-cf2fd32759f5",
          "display": "Victor Lagarde"
        },
        "effectiveDateTime": "2020-12-04T04:48:18Z",
        "specimen": {
          "reference": "urn:uuid:2b4518e8-2fb8-4863-ad4b-cea20533e56f"
        }
      }
    },
    {
      "fullUrl": "urn:uuid:475f9a55-6437-4a7c-a9a8-07d15f7be41c",
      "resource": {
        "resourceType": "Observation",
        "id": "475f9a55-6437-4a7c-a9a8-07d15f7be41c",
        "meta": {
          "profile": [
            "http://hl7.eu/fhir/laboratory/StructureDefinition/Observation-resultslab-eu-lab"
          ]
        },
        "performer": [
          {
            "display": "The Central European Lab"
          }
        ],
        "category": [
          {
            "coding": [
              {
                "system": "http://terminology.hl7.org/CodeSystem/observation-category",
                "code": "laboratory"
              }
            ]
          }
        ],
        "code": {
          "coding": [
            {
              "code": "2514-8",
              "system": "http://loinc.org",
              "display": "Ketones [Presence] in Urine by Test strip"
            }
          ],
          "text": "Ketones [Presence] in Urine by Test strip"
        },
        "text": {
          "status": "generated",
          "div": "<div xmlns=\"http://www.w3.org/1999/xhtml\"><table class=\"hl7__eu__lab__report\"><tr><th>Test</th><th>04-Dec-2020</th><th>Reference&#xA0;Range</th><th>Unit</th></tr><tr><td>Ketones [Presence] in Urine by Test strip</td></tr></table></div>"
        },
        "status": "final",
        "subject": {
          "reference": "urn:uuid:26df38b2-cc67-4157-86bc-cf2fd32759f5",
          "display": "Victor Lagarde"
        },
        "effectiveDateTime": "2020-12-04T04:48:18Z",
        "specimen": {
          "reference": "urn:uuid:2b4518e8-2fb8-4863-ad4b-cea20533e56f"
        }
      }
    },
    {
      "fullUrl": "urn:uuid:fe816ca6-c2b4-4c93-8d60-d65169573cad",
      "resource": {
        "resourceType": "Observation",
        "id": "fe816ca6-c2b4-4c93-8d60-d65169573cad",
        "meta": {
          "profile": [
            "http://hl7.eu/fhir/laboratory/StructureDefinition/Observation-resultslab-eu-lab"
          ]
        },
        "performer": [
          {
            "display": "The Central European Lab"
          }
        ],
        "category": [
          {
            "coding": [
              {
                "system": "http://terminology.hl7.org/CodeSystem/observation-category",
                "code": "laboratory"
              }
            ]
          }
        ],
        "code": {
          "coding": [
            {
              "code": "5811-5",
              "system": "http://loinc.org",
              "display": "Specific gravity of Urine by Test strip"
            }
          ],
          "text": "Specific gravity of Urine by Test strip"
        },
        "valueQuantity": {
          "system": "http://unitsofmeasure.org",
          "value": 1,
          "unit": "{nominal}",
          "code": "{nominal}"
        },
        "referenceRange": [
          {
            "low": {
              "value": 1.01,
              "code": "g/mL",
              "system": "http://unitsofmeasure.org"
            }
          },
          {
            "high": {
              "value": 1.03,
              "code": "g/mL",
              "system": "http://unitsofmeasure.org"
            }
          }
        ],
        "interpretation": [
          {
            "coding": [
              {
                "code": "L",
                "system": "http://terminology.hl7.org/CodeSystem/v3-ObservationInterpretation",
                "display": "Low"
              }
            ]
          }
        ],
        "text": {
          "status": "generated",
          "div": "<div xmlns=\"http://www.w3.org/1999/xhtml\"><table class=\"hl7__eu__lab__report\"><tr><th>Test</th><th>04-Dec-2020</th><th>Reference&#xA0;Range</th><th>Unit</th></tr><tr><td>Specific gravity of Urine by Test strip</td><td>1.0</td><td>1.01 - 1.03</td><td>L</td><td>{nominal}</td></tr></table></div>"
        },
        "status": "final",
        "subject": {
          "reference": "urn:uuid:26df38b2-cc67-4157-86bc-cf2fd32759f5",
          "display": "Victor Lagarde"
        },
        "effectiveDateTime": "2020-12-04T04:48:18Z",
        "specimen": {
          "reference": "urn:uuid:2b4518e8-2fb8-4863-ad4b-cea20533e56f"
        }
      }
    },
    {
      "fullUrl": "urn:uuid:843cd509-19f4-4a5b-8ceb-c89c842be32b",
      "resource": {
        "resourceType": "Observation",
        "id": "843cd509-19f4-4a5b-8ceb-c89c842be32b",
        "meta": {
          "profile": [
            "http://hl7.eu/fhir/laboratory/StructureDefinition/Observation-resultslab-eu-lab"
          ]
        },
        "performer": [
          {
            "display": "The Central European Lab"
          }
        ],
        "category": [
          {
            "coding": [
              {
                "system": "http://terminology.hl7.org/CodeSystem/observation-category",
                "code": "laboratory"
              }
            ]
          }
        ],
        "code": {
          "coding": [
            {
              "code": "5803-2",
              "system": "http://loinc.org",
              "display": "pH of Urine by Test strip"
            }
          ],
          "text": "pH of Urine by Test strip"
        },
        "valueQuantity": {
          "system": "http://unitsofmeasure.org",
          "value": 5.4,
          "unit": "pH",
          "code": "pH"
        },
        "referenceRange": [
          {
            "low": {
              "value": 4.5,
              "code": "pH",
              "system": "http://unitsofmeasure.org"
            }
          },
          {
            "high": {
              "value": 7.5,
              "code": "pH",
              "system": "http://unitsofmeasure.org"
            }
          }
        ],
        "text": {
          "status": "generated",
          "div": "<div xmlns=\"http://www.w3.org/1999/xhtml\"><table class=\"hl7__eu__lab__report\"><tr><th>Test</th><th>04-Dec-2020</th><th>Reference&#xA0;Range</th><th>Unit</th></tr><tr><td>pH of Urine by Test strip</td><td>5.4</td><td>4.5 - 7.5</td><td></td><td>pH</td></tr></table></div>"
        },
        "status": "final",
        "subject": {
          "reference": "urn:uuid:26df38b2-cc67-4157-86bc-cf2fd32759f5",
          "display": "Victor Lagarde"
        },
        "effectiveDateTime": "2020-12-04T04:48:18Z",
        "specimen": {
          "reference": "urn:uuid:2b4518e8-2fb8-4863-ad4b-cea20533e56f"
        }
      }
    },
    {
      "fullUrl": "urn:uuid:221b8cde-b90d-4a9b-b565-bfeed0a569b7",
      "resource": {
        "resourceType": "Observation",
        "id": "221b8cde-b90d-4a9b-b565-bfeed0a569b7",
        "meta": {
          "profile": [
            "http://hl7.eu/fhir/laboratory/StructureDefinition/Observation-resultslab-eu-lab"
          ]
        },
        "performer": [
          {
            "display": "The Central European Lab"
          }
        ],
        "category": [
          {
            "coding": [
              {
                "system": "http://terminology.hl7.org/CodeSystem/observation-category",
                "code": "laboratory"
              }
            ]
          }
        ],
        "code": {
          "coding": [
            {
              "code": "5804-0",
              "system": "http://loinc.org",
              "display": "Protein [Mass/volume] in Urine by Test strip"
            }
          ],
          "text": "Protein [Mass/volume] in Urine by Test strip"
        },
        "valueQuantity": {
          "system": "http://unitsofmeasure.org",
          "value": 320.2,
          "unit": "mg/dL",
          "code": "mg/dL"
        },
        "referenceRange": [
          {
            "low": {
              "value": 0,
              "code": "mg/dL",
              "system": "http://unitsofmeasure.org"
            }
          },
          {
            "high": {
              "value": 149,
              "code": "mg/dL",
              "system": "http://unitsofmeasure.org"
            }
          }
        ],
        "interpretation": [
          {
            "coding": [
              {
                "code": "H",
                "system": "http://terminology.hl7.org/CodeSystem/v3-ObservationInterpretation",
                "display": "High"
              }
            ]
          }
        ],
        "text": {
          "status": "generated",
          "div": "<div xmlns=\"http://www.w3.org/1999/xhtml\"><table class=\"hl7__eu__lab__report\"><tr><th>Test</th><th>04-Dec-2020</th><th>Reference&#xA0;Range</th><th>Unit</th></tr><tr><td>Protein [Mass/volume] in Urine by Test strip</td><td>320.2</td><td>0 - 149</td><td>H</td><td>mg/dL</td></tr></table></div>"
        },
        "status": "final",
        "subject": {
          "reference": "urn:uuid:26df38b2-cc67-4157-86bc-cf2fd32759f5",
          "display": "Victor Lagarde"
        },
        "effectiveDateTime": "2020-12-04T04:48:18Z",
        "specimen": {
          "reference": "urn:uuid:2b4518e8-2fb8-4863-ad4b-cea20533e56f"
        }
      }
    },
    {
      "fullUrl": "urn:uuid:b5e3bc15-048e-4c45-b69e-0fd8fc2a1e12",
      "resource": {
        "resourceType": "Observation",
        "id": "b5e3bc15-048e-4c45-b69e-0fd8fc2a1e12",
        "meta": {
          "profile": [
            "http://hl7.eu/fhir/laboratory/StructureDefinition/Observation-resultslab-eu-lab"
          ]
        },
        "performer": [
          {
            "display": "The Central European Lab"
          }
        ],
        "category": [
          {
            "coding": [
              {
                "system": "http://terminology.hl7.org/CodeSystem/observation-category",
                "code": "laboratory"
              }
            ]
          }
        ],
        "code": {
          "coding": [
            {
              "code": "20454-5",
              "system": "http://loinc.org",
              "display": "Protein [Presence] in Urine by Test strip"
            }
          ],
          "text": "Protein [Presence] in Urine by Test strip"
        },
        "text": {
          "status": "generated",
          "div": "<div xmlns=\"http://www.w3.org/1999/xhtml\"><table class=\"hl7__eu__lab__report\"><tr><th>Test</th><th>04-Dec-2020</th><th>Reference&#xA0;Range</th><th>Unit</th></tr><tr><td>Protein [Presence] in Urine by Test strip</td></tr></table></div>"
        },
        "status": "final",
        "subject": {
          "reference": "urn:uuid:26df38b2-cc67-4157-86bc-cf2fd32759f5",
          "display": "Victor Lagarde"
        },
        "effectiveDateTime": "2020-12-04T04:48:18Z",
        "specimen": {
          "reference": "urn:uuid:2b4518e8-2fb8-4863-ad4b-cea20533e56f"
        }
      }
    },
    {
      "fullUrl": "urn:uuid:47ee49d6-3125-4532-9652-c5dc28b45c4b",
      "resource": {
        "resourceType": "Observation",
        "id": "47ee49d6-3125-4532-9652-c5dc28b45c4b",
        "meta": {
          "profile": [
            "http://hl7.eu/fhir/laboratory/StructureDefinition/Observation-resultslab-eu-lab"
          ]
        },
        "performer": [
          {
            "display": "The Central European Lab"
          }
        ],
        "category": [
          {
            "coding": [
              {
                "system": "http://terminology.hl7.org/CodeSystem/observation-category",
                "code": "laboratory"
              }
            ]
          }
        ],
        "code": {
          "coding": [
            {
              "code": "5802-4",
              "system": "http://loinc.org",
              "display": "Nitrite [Presence] in Urine by Test strip"
            }
          ],
          "text": "Nitrite [Presence] in Urine by Test strip"
        },
        "text": {
          "status": "generated",
          "div": "<div xmlns=\"http://www.w3.org/1999/xhtml\"><table class=\"hl7__eu__lab__report\"><tr><th>Test</th><th>04-Dec-2020</th><th>Reference&#xA0;Range</th><th>Unit</th></tr><tr><td>Nitrite [Presence] in Urine by Test strip</td></tr></table></div>"
        },
        "status": "final",
        "subject": {
          "reference": "urn:uuid:26df38b2-cc67-4157-86bc-cf2fd32759f5",
          "display": "Victor Lagarde"
        },
        "effectiveDateTime": "2020-12-04T04:48:18Z",
        "specimen": {
          "reference": "urn:uuid:2b4518e8-2fb8-4863-ad4b-cea20533e56f"
        }
      }
    },
    {
      "fullUrl": "urn:uuid:739cae44-0dff-497f-a6cb-fee1e53f08f3",
      "resource": {
        "resourceType": "Observation",
        "id": "739cae44-0dff-497f-a6cb-fee1e53f08f3",
        "meta": {
          "profile": [
            "http://hl7.eu/fhir/laboratory/StructureDefinition/Observation-resultslab-eu-lab"
          ]
        },
        "performer": [
          {
            "display": "The Central European Lab"
          }
        ],
        "category": [
          {
            "coding": [
              {
                "system": "http://terminology.hl7.org/CodeSystem/observation-category",
                "code": "laboratory"
              }
            ]
          }
        ],
        "code": {
          "coding": [
            {
              "code": "5794-3",
              "system": "http://loinc.org",
              "display": "Hemoglobin [Presence] in Urine by Test strip"
            }
          ],
          "text": "Hemoglobin [Presence] in Urine by Test strip"
        },
        "text": {
          "status": "generated",
          "div": "<div xmlns=\"http://www.w3.org/1999/xhtml\"><table class=\"hl7__eu__lab__report\"><tr><th>Test</th><th>04-Dec-2020</th><th>Reference&#xA0;Range</th><th>Unit</th></tr><tr><td>Hemoglobin [Presence] in Urine by Test strip</td></tr></table></div>"
        },
        "status": "final",
        "subject": {
          "reference": "urn:uuid:26df38b2-cc67-4157-86bc-cf2fd32759f5",
          "display": "Victor Lagarde"
        },
        "effectiveDateTime": "2020-12-04T04:48:18Z",
        "specimen": {
          "reference": "urn:uuid:2b4518e8-2fb8-4863-ad4b-cea20533e56f"
        }
      }
    },
    {
      "fullUrl": "urn:uuid:0d94e9e3-e5d5-40d7-9a19-0a8d3eb76a51",
      "resource": {
        "resourceType": "Observation",
        "id": "0d94e9e3-e5d5-40d7-9a19-0a8d3eb76a51",
        "meta": {
          "profile": [
            "http://hl7.eu/fhir/laboratory/StructureDefinition/Observation-resultslab-eu-lab"
          ]
        },
        "performer": [
          {
            "display": "The Central European Lab"
          }
        ],
        "category": [
          {
            "coding": [
              {
                "system": "http://terminology.hl7.org/CodeSystem/observation-category",
                "code": "laboratory"
              }
            ]
          }
        ],
        "code": {
          "coding": [
            {
              "code": "5799-2",
              "system": "http://loinc.org",
              "display": "Leukocyte esterase [Presence] in Urine by Test strip"
            }
          ],
          "text": "Leukocyte esterase [Presence] in Urine by Test strip"
        },
        "text": {
          "status": "generated",
          "div": "<div xmlns=\"http://www.w3.org/1999/xhtml\"><table class=\"hl7__eu__lab__report\"><tr><th>Test</th><th>04-Dec-2020</th><th>Reference&#xA0;Range</th><th>Unit</th></tr><tr><td>Leukocyte esterase [Presence] in Urine by Test strip</td></tr></table></div>"
        },
        "status": "final",
        "subject": {
          "reference": "urn:uuid:26df38b2-cc67-4157-86bc-cf2fd32759f5",
          "display": "Victor Lagarde"
        },
        "effectiveDateTime": "2020-12-04T04:48:18Z",
        "specimen": {
          "reference": "urn:uuid:2b4518e8-2fb8-4863-ad4b-cea20533e56f"
        }
      }
    },
    {
      "fullUrl": "urn:uuid:27d1dc9f-3224-44e2-a399-d07733942927",
      "resource": {
        "resourceType": "Observation",
        "id": "27d1dc9f-3224-44e2-a399-d07733942927",
        "meta": {
          "profile": [
            "http://hl7.eu/fhir/laboratory/StructureDefinition/Observation-resultslab-eu-lab"
          ]
        },
        "performer": [
          {
            "display": "The Central European Lab"
          }
        ],
        "category": [
          {
            "coding": [
              {
                "system": "http://terminology.hl7.org/CodeSystem/observation-category",
                "code": "laboratory"
              }
            ]
          }
        ],
        "code": {
          "coding": [
            {
              "code": "4548-4",
              "system": "http://loinc.org",
              "display": "Hemoglobin A1c/Hemoglobin.total in Blood"
            }
          ],
          "text": "Hemoglobin A1c/Hemoglobin.total in Blood"
        },
        "valueQuantity": {
          "system": "http://unitsofmeasure.org",
          "value": 3,
          "unit": "%",
          "code": "%"
        },
        "referenceRange": [
          {
            "low": {
              "value": 4.3,
              "code": "%",
              "system": "http://unitsofmeasure.org"
            }
          },
          {
            "high": {
              "value": 6,
              "code": "%",
              "system": "http://unitsofmeasure.org"
            }
          }
        ],
        "interpretation": [
          {
            "coding": [
              {
                "code": "L",
                "system": "http://terminology.hl7.org/CodeSystem/v3-ObservationInterpretation",
                "display": "Low"
              }
            ]
          }
        ],
        "text": {
          "status": "generated",
          "div": "<div xmlns=\"http://www.w3.org/1999/xhtml\"><table class=\"hl7__eu__lab__report\"><tr><th>Test</th><th>04-Dec-2020</th><th>Reference&#xA0;Range</th><th>Unit</th></tr><tr><td>Hemoglobin A1c/Hemoglobin.total in Blood</td><td>3.0</td><td>4.3 - 6</td><td>L</td><td>%</td></tr></table></div>"
        },
        "status": "final",
        "subject": {
          "reference": "urn:uuid:26df38b2-cc67-4157-86bc-cf2fd32759f5",
          "display": "Victor Lagarde"
        },
        "effectiveDateTime": "2020-12-04T04:48:18Z",
        "specimen": {
          "reference": "urn:uuid:4bf87a84-d816-495d-8017-6bfd640658d0"
        }
      }
    },
    {
      "fullUrl": "urn:uuid:f1429dd6-d593-4401-8101-180bd0e5ba6f",
      "resource": {
        "resourceType": "Observation",
        "id": "f1429dd6-d593-4401-8101-180bd0e5ba6f",
        "meta": {
          "profile": [
            "http://hl7.eu/fhir/laboratory/StructureDefinition/Observation-resultslab-eu-lab"
          ]
        },
        "performer": [
          {
            "display": "The Central European Lab"
          }
        ],
        "category": [
          {
            "coding": [
              {
                "system": "http://terminology.hl7.org/CodeSystem/observation-category",
                "code": "laboratory"
              }
            ]
          }
        ],
        "code": {
          "coding": [
            {
              "code": "2339-0",
              "system": "http://loinc.org",
              "display": "Glucose [Mass/volume] in Blood"
            }
          ],
          "text": "Glucose [Mass/volume] in Blood"
        },
        "valueQuantity": {
          "system": "http://unitsofmeasure.org",
          "value": 92.1,
          "unit": "mg/dL",
          "code": "mg/dL"
        },
        "referenceRange": [
          {
            "low": {
              "value": 70,
              "code": "mg/dL",
              "system": "http://unitsofmeasure.org"
            }
          },
          {
            "high": {
              "value": 140,
              "code": "mg/dL",
              "system": "http://unitsofmeasure.org"
            }
          }
        ],
        "text": {
          "status": "generated",
          "div": "<div xmlns=\"http://www.w3.org/1999/xhtml\"><table class=\"hl7__eu__lab__report\"><tr><th>Test</th><th>04-Dec-2020</th><th>Reference&#xA0;Range</th><th>Unit</th></tr><tr><td>Glucose [Mass/volume] in Blood</td><td>92.1</td><td>70 - 140</td><td></td><td>mg/dL</td></tr></table></div>"
        },
        "status": "final",
        "subject": {
          "reference": "urn:uuid:26df38b2-cc67-4157-86bc-cf2fd32759f5",
          "display": "Victor Lagarde"
        },
        "effectiveDateTime": "2020-12-04T04:48:18Z",
        "specimen": {
          "reference": "urn:uuid:4bf87a84-d816-495d-8017-6bfd640658d0"
        }
      }
    },
    {
      "fullUrl": "urn:uuid:787d1f95-a933-46ee-a10a-b22e7a8e54a3",
      "resource": {
        "resourceType": "Observation",
        "id": "787d1f95-a933-46ee-a10a-b22e7a8e54a3",
        "meta": {
          "profile": [
            "http://hl7.eu/fhir/laboratory/StructureDefinition/Observation-resultslab-eu-lab"
          ]
        },
        "performer": [
          {
            "display": "The Central European Lab"
          }
        ],
        "category": [
          {
            "coding": [
              {
                "system": "http://terminology.hl7.org/CodeSystem/observation-category",
                "code": "laboratory"
              }
            ]
          }
        ],
        "code": {
          "coding": [
            {
              "code": "6299-2",
              "system": "http://loinc.org",
              "display": "Urea nitrogen [Mass/volume] in Blood"
            }
          ],
          "text": "Urea nitrogen [Mass/volume] in Blood"
        },
        "valueQuantity": {
          "system": "http://unitsofmeasure.org",
          "value": 8.1,
          "unit": "mg/dL",
          "code": "mg/dL"
        },
        "referenceRange": [
          {
            "low": {
              "value": 7,
              "code": "mg/dL",
              "system": "http://unitsofmeasure.org"
            }
          },
          {
            "high": {
              "value": 20,
              "code": "mg/dL",
              "system": "http://unitsofmeasure.org"
            }
          }
        ],
        "text": {
          "status": "generated",
          "div": "<div xmlns=\"http://www.w3.org/1999/xhtml\"><table class=\"hl7__eu__lab__report\"><tr><th>Test</th><th>04-Dec-2020</th><th>Reference&#xA0;Range</th><th>Unit</th></tr><tr><td>Urea nitrogen [Mass/volume] in Blood</td><td>8.1</td><td>7 - 20</td><td></td><td>mg/dL</td></tr></table></div>"
        },
        "status": "final",
        "subject": {
          "reference": "urn:uuid:26df38b2-cc67-4157-86bc-cf2fd32759f5",
          "display": "Victor Lagarde"
        },
        "effectiveDateTime": "2020-12-04T04:48:18Z",
        "specimen": {
          "reference": "urn:uuid:4bf87a84-d816-495d-8017-6bfd640658d0"
        }
      }
    },
    {
      "fullUrl": "urn:uuid:3bb133c7-cb77-4ec7-a27b-298036a700d6",
      "resource": {
        "resourceType": "Observation",
        "id": "3bb133c7-cb77-4ec7-a27b-298036a700d6",
        "meta": {
          "profile": [
            "http://hl7.eu/fhir/laboratory/StructureDefinition/Observation-resultslab-eu-lab"
          ]
        },
        "performer": [
          {
            "display": "The Central European Lab"
          }
        ],
        "category": [
          {
            "coding": [
              {
                "system": "http://terminology.hl7.org/CodeSystem/observation-category",
                "code": "laboratory"
              }
            ]
          }
        ],
        "code": {
          "coding": [
            {
              "code": "38483-4",
              "system": "http://loinc.org",
              "display": "Creatinine [Mass/volume] in Blood"
            }
          ],
          "text": "Creatinine [Mass/volume] in Blood"
        },
        "valueQuantity": {
          "system": "http://unitsofmeasure.org",
          "value": 2.7,
          "unit": "mg/dL",
          "code": "mg/dL"
        },
        "referenceRange": [
          {
            "low": {
              "value": 0.9,
              "code": "mg/dL",
              "system": "http://unitsofmeasure.org"
            }
          },
          {
            "high": {
              "value": 1.3,
              "code": "mg/dL",
              "system": "http://unitsofmeasure.org"
            }
          }
        ],
        "interpretation": [
          {
            "coding": [
              {
                "code": "H",
                "system": "http://terminology.hl7.org/CodeSystem/v3-ObservationInterpretation",
                "display": "High"
              }
            ]
          }
        ],
        "text": {
          "status": "generated",
          "div": "<div xmlns=\"http://www.w3.org/1999/xhtml\"><table class=\"hl7__eu__lab__report\"><tr><th>Test</th><th>04-Dec-2020</th><th>Reference&#xA0;Range</th><th>Unit</th></tr><tr><td>Creatinine [Mass/volume] in Blood</td><td>2.7</td><td>0.9 - 1.3</td><td>H</td><td>mg/dL</td></tr></table></div>"
        },
        "status": "final",
        "subject": {
          "reference": "urn:uuid:26df38b2-cc67-4157-86bc-cf2fd32759f5",
          "display": "Victor Lagarde"
        },
        "effectiveDateTime": "2020-12-04T04:48:18Z",
        "specimen": {
          "reference": "urn:uuid:4bf87a84-d816-495d-8017-6bfd640658d0"
        }
      }
    },
    {
      "fullUrl": "urn:uuid:d5b52785-da3d-4cbe-abbd-71584f70fa4a",
      "resource": {
        "resourceType": "Observation",
        "id": "d5b52785-da3d-4cbe-abbd-71584f70fa4a",
        "meta": {
          "profile": [
            "http://hl7.eu/fhir/laboratory/StructureDefinition/Observation-resultslab-eu-lab"
          ]
        },
        "performer": [
          {
            "display": "The Central European Lab"
          }
        ],
        "category": [
          {
            "coding": [
              {
                "system": "http://terminology.hl7.org/CodeSystem/observation-category",
                "code": "laboratory"
              }
            ]
          }
        ],
        "code": {
          "coding": [
            {
              "code": "49765-1",
              "system": "http://loinc.org",
              "display": "Calcium [Mass/volume] in Blood"
            }
          ],
          "text": "Calcium [Mass/volume] in Blood"
        },
        "valueQuantity": {
          "system": "http://unitsofmeasure.org",
          "value": 9.9,
          "unit": "mg/dL",
          "code": "mg/dL"
        },
        "referenceRange": [
          {
            "low": {
              "value": 8.5,
              "code": "mg/dL",
              "system": "http://unitsofmeasure.org"
            }
          },
          {
            "high": {
              "value": 10.5,
              "code": "mg/dL",
              "system": "http://unitsofmeasure.org"
            }
          }
        ],
        "text": {
          "status": "generated",
          "div": "<div xmlns=\"http://www.w3.org/1999/xhtml\"><table class=\"hl7__eu__lab__report\"><tr><th>Test</th><th>04-Dec-2020</th><th>Reference&#xA0;Range</th><th>Unit</th></tr><tr><td>Calcium [Mass/volume] in Blood</td><td>9.9</td><td>8.5 - 10.5</td><td></td><td>mg/dL</td></tr></table></div>"
        },
        "status": "final",
        "subject": {
          "reference": "urn:uuid:26df38b2-cc67-4157-86bc-cf2fd32759f5",
          "display": "Victor Lagarde"
        },
        "effectiveDateTime": "2020-12-04T04:48:18Z",
        "specimen": {
          "reference": "urn:uuid:4bf87a84-d816-495d-8017-6bfd640658d0"
        }
      }
    },
    {
      "fullUrl": "urn:uuid:13de55b1-4d5d-47a4-97b8-2174f285fbff",
      "resource": {
        "resourceType": "Observation",
        "id": "13de55b1-4d5d-47a4-97b8-2174f285fbff",
        "meta": {
          "profile": [
            "http://hl7.eu/fhir/laboratory/StructureDefinition/Observation-resultslab-eu-lab"
          ]
        },
        "performer": [
          {
            "display": "The Central European Lab"
          }
        ],
        "category": [
          {
            "coding": [
              {
                "system": "http://terminology.hl7.org/CodeSystem/observation-category",
                "code": "laboratory"
              }
            ]
          }
        ],
        "code": {
          "coding": [
            {
              "code": "2947-0",
              "system": "http://loinc.org",
              "display": "Sodium [Moles/volume] in Blood"
            }
          ],
          "text": "Sodium [Moles/volume] in Blood"
        },
        "valueQuantity": {
          "system": "http://unitsofmeasure.org",
          "value": 143.8,
          "unit": "mmol/L",
          "code": "mmol/L"
        },
        "referenceRange": [
          {
            "low": {
              "value": 135,
              "code": "mmol/L",
              "system": "http://unitsofmeasure.org"
            }
          },
          {
            "high": {
              "value": 145,
              "code": "mmol/L",
              "system": "http://unitsofmeasure.org"
            }
          }
        ],
        "text": {
          "status": "generated",
          "div": "<div xmlns=\"http://www.w3.org/1999/xhtml\"><table class=\"hl7__eu__lab__report\"><tr><th>Test</th><th>04-Dec-2020</th><th>Reference&#xA0;Range</th><th>Unit</th></tr><tr><td>Sodium [Moles/volume] in Blood</td><td>143.8</td><td>135 - 145</td><td></td><td>mmol/L</td></tr></table></div>"
        },
        "status": "final",
        "subject": {
          "reference": "urn:uuid:26df38b2-cc67-4157-86bc-cf2fd32759f5",
          "display": "Victor Lagarde"
        },
        "effectiveDateTime": "2020-12-04T04:48:18Z",
        "specimen": {
          "reference": "urn:uuid:4bf87a84-d816-495d-8017-6bfd640658d0"
        }
      }
    },
    {
      "fullUrl": "urn:uuid:037b426d-25dd-45a8-8e35-f76f46f960f8",
      "resource": {
        "resourceType": "Observation",
        "id": "037b426d-25dd-45a8-8e35-f76f46f960f8",
        "meta": {
          "profile": [
            "http://hl7.eu/fhir/laboratory/StructureDefinition/Observation-resultslab-eu-lab"
          ]
        },
        "performer": [
          {
            "display": "The Central European Lab"
          }
        ],
        "category": [
          {
            "coding": [
              {
                "system": "http://terminology.hl7.org/CodeSystem/observation-category",
                "code": "laboratory"
              }
            ]
          }
        ],
        "code": {
          "coding": [
            {
              "code": "6298-4",
              "system": "http://loinc.org",
              "display": "Potassium [Moles/volume] in Blood"
            }
          ],
          "text": "Potassium [Moles/volume] in Blood"
        },
        "valueQuantity": {
          "system": "http://unitsofmeasure.org",
          "value": 3.8,
          "unit": "mmol/L",
          "code": "mmol/L"
        },
        "referenceRange": [
          {
            "low": {
              "value": 3.5,
              "code": "mmol/L",
              "system": "http://unitsofmeasure.org"
            }
          },
          {
            "high": {
              "value": 5.1,
              "code": "mmol/L",
              "system": "http://unitsofmeasure.org"
            }
          }
        ],
        "text": {
          "status": "generated",
          "div": "<div xmlns=\"http://www.w3.org/1999/xhtml\"><table class=\"hl7__eu__lab__report\"><tr><th>Test</th><th>04-Dec-2020</th><th>Reference&#xA0;Range</th><th>Unit</th></tr><tr><td>Potassium [Moles/volume] in Blood</td><td>3.8</td><td>3.5 - 5.1</td><td></td><td>mmol/L</td></tr></table></div>"
        },
        "status": "final",
        "subject": {
          "reference": "urn:uuid:26df38b2-cc67-4157-86bc-cf2fd32759f5",
          "display": "Victor Lagarde"
        },
        "effectiveDateTime": "2020-12-04T04:48:18Z",
        "specimen": {
          "reference": "urn:uuid:4bf87a84-d816-495d-8017-6bfd640658d0"
        }
      }
    },
    {
      "fullUrl": "urn:uuid:fb73d592-38a5-4cba-b183-061e524c6989",
      "resource": {
        "resourceType": "Observation",
        "id": "fb73d592-38a5-4cba-b183-061e524c6989",
        "meta": {
          "profile": [
            "http://hl7.eu/fhir/laboratory/StructureDefinition/Observation-resultslab-eu-lab"
          ]
        },
        "performer": [
          {
            "display": "The Central European Lab"
          }
        ],
        "category": [
          {
            "coding": [
              {
                "system": "http://terminology.hl7.org/CodeSystem/observation-category",
                "code": "laboratory"
              }
            ]
          }
        ],
        "code": {
          "coding": [
            {
              "code": "2069-3",
              "system": "http://loinc.org",
              "display": "Chloride [Moles/volume] in Blood"
            }
          ],
          "text": "Chloride [Moles/volume] in Blood"
        },
        "valueQuantity": {
          "system": "http://unitsofmeasure.org",
          "value": 107,
          "unit": "mmol/L",
          "code": "mmol/L"
        },
        "referenceRange": [
          {
            "low": {
              "value": 98,
              "code": "mmol/L",
              "system": "http://unitsofmeasure.org"
            }
          },
          {
            "high": {
              "value": 108,
              "code": "mmol/L",
              "system": "http://unitsofmeasure.org"
            }
          }
        ],
        "text": {
          "status": "generated",
          "div": "<div xmlns=\"http://www.w3.org/1999/xhtml\"><table class=\"hl7__eu__lab__report\"><tr><th>Test</th><th>04-Dec-2020</th><th>Reference&#xA0;Range</th><th>Unit</th></tr><tr><td>Chloride [Moles/volume] in Blood</td><td>107.0</td><td>98 - 108</td><td></td><td>mmol/L</td></tr></table></div>"
        },
        "status": "final",
        "subject": {
          "reference": "urn:uuid:26df38b2-cc67-4157-86bc-cf2fd32759f5",
          "display": "Victor Lagarde"
        },
        "effectiveDateTime": "2020-12-04T04:48:18Z",
        "specimen": {
          "reference": "urn:uuid:4bf87a84-d816-495d-8017-6bfd640658d0"
        }
      }
    },
    {
      "fullUrl": "urn:uuid:680c2896-6265-4c85-9493-aaa2a67b9eb2",
      "resource": {
        "resourceType": "Observation",
        "id": "680c2896-6265-4c85-9493-aaa2a67b9eb2",
        "meta": {
          "profile": [
            "http://hl7.eu/fhir/laboratory/StructureDefinition/Observation-resultslab-eu-lab"
          ]
        },
        "performer": [
          {
            "display": "The Central European Lab"
          }
        ],
        "category": [
          {
            "coding": [
              {
                "system": "http://terminology.hl7.org/CodeSystem/observation-category",
                "code": "laboratory"
              }
            ]
          }
        ],
        "code": {
          "coding": [
            {
              "code": "20565-8",
              "system": "http://loinc.org",
              "display": "Carbon dioxide, total [Moles/volume] in Blood"
            }
          ],
          "text": "Carbon dioxide, total [Moles/volume] in Blood"
        },
        "valueQuantity": {
          "system": "http://unitsofmeasure.org",
          "value": 23.2,
          "unit": "mmol/L",
          "code": "mmol/L"
        },
        "referenceRange": [
          {
            "low": {
              "value": 22,
              "code": "mmol/L",
              "system": "http://unitsofmeasure.org"
            }
          },
          {
            "high": {
              "value": 29,
              "code": "mmol/L",
              "system": "http://unitsofmeasure.org"
            }
          }
        ],
        "text": {
          "status": "generated",
          "div": "<div xmlns=\"http://www.w3.org/1999/xhtml\"><table class=\"hl7__eu__lab__report\"><tr><th>Test</th><th>04-Dec-2020</th><th>Reference&#xA0;Range</th><th>Unit</th></tr><tr><td>Carbon dioxide, total [Moles/volume] in Blood</td><td>23.2</td><td>22 - 29</td><td></td><td>mmol/L</td></tr></table></div>"
        },
        "status": "final",
        "subject": {
          "reference": "urn:uuid:26df38b2-cc67-4157-86bc-cf2fd32759f5",
          "display": "Victor Lagarde"
        },
        "effectiveDateTime": "2020-12-04T04:48:18Z",
        "specimen": {
          "reference": "urn:uuid:4bf87a84-d816-495d-8017-6bfd640658d0"
        }
      }
    },
    {
      "fullUrl": "urn:uuid:52053351-487a-432a-a636-dc5a84addd7a",
      "resource": {
        "resourceType": "Observation",
        "id": "52053351-487a-432a-a636-dc5a84addd7a",
        "meta": {
          "profile": [
            "http://hl7.eu/fhir/laboratory/StructureDefinition/Observation-resultslab-eu-lab"
          ]
        },
        "performer": [
          {
            "display": "The Central European Lab"
          }
        ],
        "category": [
          {
            "coding": [
              {
                "system": "http://terminology.hl7.org/CodeSystem/observation-category",
                "code": "laboratory"
              }
            ]
          }
        ],
        "code": {
          "coding": [
            {
              "code": "6690-2",
              "system": "http://loinc.org",
              "display": "Leukocytes [#/volume] in Blood by Automated count"
            }
          ],
          "text": "Leukocytes [#/volume] in Blood by Automated count"
        },
        "valueQuantity": {
          "system": "http://unitsofmeasure.org",
          "value": 9.8,
          "unit": "10*3/uL",
          "code": "10*3/uL"
        },
        "referenceRange": [
          {
            "low": {
              "value": 3.4,
              "code": "10*3/uL",
              "system": "http://unitsofmeasure.org"
            }
          },
          {
            "high": {
              "value": 10.6,
              "code": "10*3/uL",
              "system": "http://unitsofmeasure.org"
            }
          }
        ],
        "text": {
          "status": "generated",
          "div": "<div xmlns=\"http://www.w3.org/1999/xhtml\"><table class=\"hl7__eu__lab__report\"><tr><th>Test</th><th>04-Dec-2020</th><th>Reference&#xA0;Range</th><th>Unit</th></tr><tr><td>Leukocytes [#/volume] in Blood by Automated count</td><td>9.8</td><td>3.4 - 10.6</td><td></td><td>10*3/uL</td></tr></table></div>"
        },
        "status": "final",
        "subject": {
          "reference": "urn:uuid:26df38b2-cc67-4157-86bc-cf2fd32759f5",
          "display": "Victor Lagarde"
        },
        "effectiveDateTime": "2020-12-04T04:48:18Z",
        "specimen": {
          "reference": "urn:uuid:4bf87a84-d816-495d-8017-6bfd640658d0"
        }
      }
    },
    {
      "fullUrl": "urn:uuid:7f24e451-260c-4927-974a-48dadb1a6b8d",
      "resource": {
        "resourceType": "Observation",
        "id": "7f24e451-260c-4927-974a-48dadb1a6b8d",
        "meta": {
          "profile": [
            "http://hl7.eu/fhir/laboratory/StructureDefinition/Observation-resultslab-eu-lab"
          ]
        },
        "performer": [
          {
            "display": "The Central European Lab"
          }
        ],
        "category": [
          {
            "coding": [
              {
                "system": "http://terminology.hl7.org/CodeSystem/observation-category",
                "code": "laboratory"
              }
            ]
          }
        ],
        "code": {
          "coding": [
            {
              "code": "789-8",
              "system": "http://loinc.org",
              "display": "Erythrocytes [#/volume] in Blood by Automated count"
            }
          ],
          "text": "Erythrocytes [#/volume] in Blood by Automated count"
        },
        "valueQuantity": {
          "system": "http://unitsofmeasure.org",
          "value": 5.3,
          "unit": "10*6/uL",
          "code": "10*6/uL"
        },
        "referenceRange": [
          {
            "low": {
              "value": 4.2,
              "code": "10*6/uL",
              "system": "http://unitsofmeasure.org"
            }
          },
          {
            "high": {
              "value": 6.2,
              "code": "10*6/uL",
              "system": "http://unitsofmeasure.org"
            }
          }
        ],
        "text": {
          "status": "generated",
          "div": "<div xmlns=\"http://www.w3.org/1999/xhtml\"><table class=\"hl7__eu__lab__report\"><tr><th>Test</th><th>04-Dec-2020</th><th>Reference&#xA0;Range</th><th>Unit</th></tr><tr><td>Erythrocytes [#/volume] in Blood by Automated count</td><td>5.3</td><td>4.2 - 6.2</td><td></td><td>10*6/uL</td></tr></table></div>"
        },
        "status": "final",
        "subject": {
          "reference": "urn:uuid:26df38b2-cc67-4157-86bc-cf2fd32759f5",
          "display": "Victor Lagarde"
        },
        "effectiveDateTime": "2020-12-04T04:48:18Z",
        "specimen": {
          "reference": "urn:uuid:4bf87a84-d816-495d-8017-6bfd640658d0"
        }
      }
    },
    {
      "fullUrl": "urn:uuid:e698e9eb-6187-4759-bcc9-02baf639a023",
      "resource": {
        "resourceType": "Observation",
        "id": "e698e9eb-6187-4759-bcc9-02baf639a023",
        "meta": {
          "profile": [
            "http://hl7.eu/fhir/laboratory/StructureDefinition/Observation-resultslab-eu-lab"
          ]
        },
        "performer": [
          {
            "display": "The Central European Lab"
          }
        ],
        "category": [
          {
            "coding": [
              {
                "system": "http://terminology.hl7.org/CodeSystem/observation-category",
                "code": "laboratory"
              }
            ]
          }
        ],
        "code": {
          "coding": [
            {
              "code": "718-7",
              "system": "http://loinc.org",
              "display": "Hemoglobin [Mass/volume] in Blood"
            }
          ],
          "text": "Hemoglobin [Mass/volume] in Blood"
        },
        "valueQuantity": {
          "system": "http://unitsofmeasure.org",
          "value": 16.7,
          "unit": "g/dL",
          "code": "g/dL"
        },
        "referenceRange": [
          {
            "low": {
              "value": 13.8,
              "code": "g/dL",
              "system": "http://unitsofmeasure.org"
            }
          },
          {
            "high": {
              "value": 17.5,
              "code": "g/dL",
              "system": "http://unitsofmeasure.org"
            }
          }
        ],
        "text": {
          "status": "generated",
          "div": "<div xmlns=\"http://www.w3.org/1999/xhtml\"><table class=\"hl7__eu__lab__report\"><tr><th>Test</th><th>04-Dec-2020</th><th>Reference&#xA0;Range</th><th>Unit</th></tr><tr><td>Hemoglobin [Mass/volume] in Blood</td><td>16.7</td><td>13.8 - 17.5</td><td></td><td>g/dL</td></tr></table></div>"
        },
        "status": "final",
        "subject": {
          "reference": "urn:uuid:26df38b2-cc67-4157-86bc-cf2fd32759f5",
          "display": "Victor Lagarde"
        },
        "effectiveDateTime": "2020-12-04T04:48:18Z",
        "specimen": {
          "reference": "urn:uuid:4bf87a84-d816-495d-8017-6bfd640658d0"
        }
      }
    },
    {
      "fullUrl": "urn:uuid:0ed74393-5d47-47d1-aa26-7d0af85b4949",
      "resource": {
        "resourceType": "Observation",
        "id": "0ed74393-5d47-47d1-aa26-7d0af85b4949",
        "meta": {
          "profile": [
            "http://hl7.eu/fhir/laboratory/StructureDefinition/Observation-resultslab-eu-lab"
          ]
        },
        "performer": [
          {
            "display": "The Central European Lab"
          }
        ],
        "category": [
          {
            "coding": [
              {
                "system": "http://terminology.hl7.org/CodeSystem/observation-category",
                "code": "laboratory"
              }
            ]
          }
        ],
        "code": {
          "coding": [
            {
              "code": "4544-3",
              "system": "http://loinc.org",
              "display": "Hematocrit [Volume Fraction] of Blood by Automated count"
            }
          ],
          "text": "Hematocrit [Volume Fraction] of Blood by Automated count"
        },
        "valueQuantity": {
          "system": "http://unitsofmeasure.org",
          "value": 48.7,
          "unit": "%",
          "code": "%"
        },
        "referenceRange": [
          {
            "low": {
              "value": 38,
              "code": "%",
              "system": "http://unitsofmeasure.org"
            }
          },
          {
            "high": {
              "value": 50,
              "code": "%",
              "system": "http://unitsofmeasure.org"
            }
          }
        ],
        "text": {
          "status": "generated",
          "div": "<div xmlns=\"http://www.w3.org/1999/xhtml\"><table class=\"hl7__eu__lab__report\"><tr><th>Test</th><th>04-Dec-2020</th><th>Reference&#xA0;Range</th><th>Unit</th></tr><tr><td>Hematocrit [Volume Fraction] of Blood by Automated count</td><td>48.7</td><td>38 - 50</td><td></td><td>%</td></tr></table></div>"
        },
        "status": "final",
        "subject": {
          "reference": "urn:uuid:26df38b2-cc67-4157-86bc-cf2fd32759f5",
          "display": "Victor Lagarde"
        },
        "effectiveDateTime": "2020-12-04T04:48:18Z",
        "specimen": {
          "reference": "urn:uuid:4bf87a84-d816-495d-8017-6bfd640658d0"
        }
      }
    },
    {
      "fullUrl": "urn:uuid:72f3c08f-c7e3-499c-b71b-a4b024b2d0fe",
      "resource": {
        "resourceType": "Observation",
        "id": "72f3c08f-c7e3-499c-b71b-a4b024b2d0fe",
        "meta": {
          "profile": [
            "http://hl7.eu/fhir/laboratory/StructureDefinition/Observation-resultslab-eu-lab"
          ]
        },
        "performer": [
          {
            "display": "The Central European Lab"
          }
        ],
        "category": [
          {
            "coding": [
              {
                "system": "http://terminology.hl7.org/CodeSystem/observation-category",
                "code": "laboratory"
              }
            ]
          }
        ],
        "code": {
          "coding": [
            {
              "code": "787-2",
              "system": "http://loinc.org",
              "display": "MCV [Entitic volume] by Automated count"
            }
          ],
          "text": "MCV [Entitic volume] by Automated count"
        },
        "valueQuantity": {
          "system": "http://unitsofmeasure.org",
          "value": 91,
          "unit": "fL",
          "code": "fL"
        },
        "referenceRange": [
          {
            "low": {
              "value": 76,
              "code": "fL",
              "system": "http://unitsofmeasure.org"
            }
          },
          {
            "high": {
              "value": 98,
              "code": "fL",
              "system": "http://unitsofmeasure.org"
            }
          }
        ],
        "text": {
          "status": "generated",
          "div": "<div xmlns=\"http://www.w3.org/1999/xhtml\"><table class=\"hl7__eu__lab__report\"><tr><th>Test</th><th>04-Dec-2020</th><th>Reference&#xA0;Range</th><th>Unit</th></tr><tr><td>MCV [Entitic volume] by Automated count</td><td>91.0</td><td>76 - 98</td><td></td><td>fL</td></tr></table></div>"
        },
        "status": "final",
        "subject": {
          "reference": "urn:uuid:26df38b2-cc67-4157-86bc-cf2fd32759f5",
          "display": "Victor Lagarde"
        },
        "effectiveDateTime": "2020-12-04T04:48:18Z",
        "specimen": {
          "reference": "urn:uuid:4bf87a84-d816-495d-8017-6bfd640658d0"
        }
      }
    },
    {
      "fullUrl": "urn:uuid:f9e84740-b918-44c6-9711-4b2e238ad7b9",
      "resource": {
        "resourceType": "Observation",
        "id": "f9e84740-b918-44c6-9711-4b2e238ad7b9",
        "meta": {
          "profile": [
            "http://hl7.eu/fhir/laboratory/StructureDefinition/Observation-resultslab-eu-lab"
          ]
        },
        "performer": [
          {
            "display": "The Central European Lab"
          }
        ],
        "category": [
          {
            "coding": [
              {
                "system": "http://terminology.hl7.org/CodeSystem/observation-category",
                "code": "laboratory"
              }
            ]
          }
        ],
        "code": {
          "coding": [
            {
              "code": "785-6",
              "system": "http://loinc.org",
              "display": "MCH [Entitic mass] by Automated count"
            }
          ],
          "text": "MCH [Entitic mass] by Automated count"
        },
        "valueQuantity": {
          "system": "http://unitsofmeasure.org",
          "value": 27.5,
          "unit": "pg",
          "code": "pg"
        },
        "referenceRange": [
          {
            "low": {
              "value": 27,
              "code": "pg",
              "system": "http://unitsofmeasure.org"
            }
          },
          {
            "high": {
              "value": 34,
              "code": "pg",
              "system": "http://unitsofmeasure.org"
            }
          }
        ],
        "text": {
          "status": "generated",
          "div": "<div xmlns=\"http://www.w3.org/1999/xhtml\"><table class=\"hl7__eu__lab__report\"><tr><th>Test</th><th>04-Dec-2020</th><th>Reference&#xA0;Range</th><th>Unit</th></tr><tr><td>MCH [Entitic mass] by Automated count</td><td>27.5</td><td>27 - 34</td><td></td><td>pg</td></tr></table></div>"
        },
        "status": "final",
        "subject": {
          "reference": "urn:uuid:26df38b2-cc67-4157-86bc-cf2fd32759f5",
          "display": "Victor Lagarde"
        },
        "effectiveDateTime": "2020-12-04T04:48:18Z",
        "specimen": {
          "reference": "urn:uuid:4bf87a84-d816-495d-8017-6bfd640658d0"
        }
      }
    },
    {
      "fullUrl": "urn:uuid:4e1f82d2-30b3-494a-a2e7-86ce036a5195",
      "resource": {
        "resourceType": "Observation",
        "id": "4e1f82d2-30b3-494a-a2e7-86ce036a5195",
        "meta": {
          "profile": [
            "http://hl7.eu/fhir/laboratory/StructureDefinition/Observation-resultslab-eu-lab"
          ]
        },
        "performer": [
          {
            "display": "The Central European Lab"
          }
        ],
        "category": [
          {
            "coding": [
              {
                "system": "http://terminology.hl7.org/CodeSystem/observation-category",
                "code": "laboratory"
              }
            ]
          }
        ],
        "code": {
          "coding": [
            {
              "code": "786-4",
              "system": "http://loinc.org",
              "display": "MCHC [Mass/volume] by Automated count"
            }
          ],
          "text": "MCHC [Mass/volume] by Automated count"
        },
        "valueQuantity": {
          "system": "http://unitsofmeasure.org",
          "value": 33.9,
          "unit": "g/dL",
          "code": "g/dL"
        },
        "referenceRange": [
          {
            "low": {
              "value": 31,
              "code": "g/dL",
              "system": "http://unitsofmeasure.org"
            }
          },
          {
            "high": {
              "value": 37,
              "code": "g/dL",
              "system": "http://unitsofmeasure.org"
            }
          }
        ],
        "text": {
          "status": "generated",
          "div": "<div xmlns=\"http://www.w3.org/1999/xhtml\"><table class=\"hl7__eu__lab__report\"><tr><th>Test</th><th>04-Dec-2020</th><th>Reference&#xA0;Range</th><th>Unit</th></tr><tr><td>MCHC [Mass/volume] by Automated count</td><td>33.9</td><td>31 - 37</td><td></td><td>g/dL</td></tr></table></div>"
        },
        "status": "final",
        "subject": {
          "reference": "urn:uuid:26df38b2-cc67-4157-86bc-cf2fd32759f5",
          "display": "Victor Lagarde"
        },
        "effectiveDateTime": "2020-12-04T04:48:18Z",
        "specimen": {
          "reference": "urn:uuid:4bf87a84-d816-495d-8017-6bfd640658d0"
        }
      }
    },
    {
      "fullUrl": "urn:uuid:a9ab860c-8ee7-4bfb-86a1-bae986dc71f8",
      "resource": {
        "resourceType": "Observation",
        "id": "a9ab860c-8ee7-4bfb-86a1-bae986dc71f8",
        "meta": {
          "profile": [
            "http://hl7.eu/fhir/laboratory/StructureDefinition/Observation-resultslab-eu-lab"
          ]
        },
        "performer": [
          {
            "display": "The Central European Lab"
          }
        ],
        "category": [
          {
            "coding": [
              {
                "system": "http://terminology.hl7.org/CodeSystem/observation-category",
                "code": "laboratory"
              }
            ]
          }
        ],
        "code": {
          "coding": [
            {
              "code": "21000-5",
              "system": "http://loinc.org",
              "display": "Erythrocyte distribution width [Entitic volume] by Automated count"
            }
          ],
          "text": "Erythrocyte distribution width [Entitic volume] by Automated count"
        },
        "valueQuantity": {
          "system": "http://unitsofmeasure.org",
          "value": 43.8,
          "unit": "fL",
          "code": "fL"
        },
        "referenceRange": [
          {
            "low": {
              "value": 36,
              "code": "fL",
              "system": "http://unitsofmeasure.org"
            }
          },
          {
            "high": {
              "value": 56,
              "code": "fL",
              "system": "http://unitsofmeasure.org"
            }
          }
        ],
        "text": {
          "status": "generated",
          "div": "<div xmlns=\"http://www.w3.org/1999/xhtml\"><table class=\"hl7__eu__lab__report\"><tr><th>Test</th><th>04-Dec-2020</th><th>Reference&#xA0;Range</th><th>Unit</th></tr><tr><td>Erythrocyte distribution width [Entitic volume] by Automated count</td><td>43.8</td><td>36 - 56</td><td></td><td>fL</td></tr></table></div>"
        },
        "status": "final",
        "subject": {
          "reference": "urn:uuid:26df38b2-cc67-4157-86bc-cf2fd32759f5",
          "display": "Victor Lagarde"
        },
        "effectiveDateTime": "2020-12-04T04:48:18Z",
        "specimen": {
          "reference": "urn:uuid:4bf87a84-d816-495d-8017-6bfd640658d0"
        }
      }
    },
    {
      "fullUrl": "urn:uuid:feccbfa2-9aaa-4576-ae27-adf7cde26ed6",
      "resource": {
        "resourceType": "Observation",
        "id": "feccbfa2-9aaa-4576-ae27-adf7cde26ed6",
        "meta": {
          "profile": [
            "http://hl7.eu/fhir/laboratory/StructureDefinition/Observation-resultslab-eu-lab"
          ]
        },
        "performer": [
          {
            "display": "The Central European Lab"
          }
        ],
        "category": [
          {
            "coding": [
              {
                "system": "http://terminology.hl7.org/CodeSystem/observation-category",
                "code": "laboratory"
              }
            ]
          }
        ],
        "code": {
          "coding": [
            {
              "code": "777-3",
              "system": "http://loinc.org",
              "display": "Platelets [#/volume] in Blood by Automated count"
            }
          ],
          "text": "Platelets [#/volume] in Blood by Automated count"
        },
        "valueQuantity": {
          "system": "http://unitsofmeasure.org",
          "value": 237.7,
          "unit": "10*3/uL",
          "code": "10*3/uL"
        },
        "referenceRange": [
          {
            "low": {
              "value": 150,
              "code": "10*3/uL",
              "system": "http://unitsofmeasure.org"
            }
          },
          {
            "high": {
              "value": 363,
              "code": "10*3/uL",
              "system": "http://unitsofmeasure.org"
            }
          }
        ],
        "text": {
          "status": "generated",
          "div": "<div xmlns=\"http://www.w3.org/1999/xhtml\"><table class=\"hl7__eu__lab__report\"><tr><th>Test</th><th>04-Dec-2020</th><th>Reference&#xA0;Range</th><th>Unit</th></tr><tr><td>Platelets [#/volume] in Blood by Automated count</td><td>237.7</td><td>150 - 363</td><td></td><td>10*3/uL</td></tr></table></div>"
        },
        "status": "final",
        "subject": {
          "reference": "urn:uuid:26df38b2-cc67-4157-86bc-cf2fd32759f5",
          "display": "Victor Lagarde"
        },
        "effectiveDateTime": "2020-12-04T04:48:18Z",
        "specimen": {
          "reference": "urn:uuid:4bf87a84-d816-495d-8017-6bfd640658d0"
        }
      }
    },
    {
      "fullUrl": "urn:uuid:a612b12f-fa53-4d09-8c9c-0b2a6083b9cd",
      "resource": {
        "resourceType": "Observation",
        "id": "a612b12f-fa53-4d09-8c9c-0b2a6083b9cd",
        "meta": {
          "profile": [
            "http://hl7.eu/fhir/laboratory/StructureDefinition/Observation-resultslab-eu-lab"
          ]
        },
        "performer": [
          {
            "display": "The Central European Lab"
          }
        ],
        "category": [
          {
            "coding": [
              {
                "system": "http://terminology.hl7.org/CodeSystem/observation-category",
                "code": "laboratory"
              }
            ]
          }
        ],
        "code": {
          "coding": [
            {
              "code": "32207-3",
              "system": "http://loinc.org",
              "display": "Platelet distribution width [Entitic volume] in Blood by Automated count"
            }
          ],
          "text": "Platelet distribution width [Entitic volume] in Blood by Automated count"
        },
        "valueQuantity": {
          "system": "http://unitsofmeasure.org",
          "value": 198,
          "unit": "fL",
          "code": "fL"
        },
        "referenceRange": [
          {
            "low": {
              "value": 13.4,
              "code": "fL",
              "system": "http://unitsofmeasure.org"
            }
          },
          {
            "high": {
              "value": 17.4,
              "code": "fL",
              "system": "http://unitsofmeasure.org"
            }
          }
        ],
        "interpretation": [
          {
            "coding": [
              {
                "code": "H",
                "system": "http://terminology.hl7.org/CodeSystem/v3-ObservationInterpretation",
                "display": "High"
              }
            ]
          }
        ],
        "text": {
          "status": "generated",
          "div": "<div xmlns=\"http://www.w3.org/1999/xhtml\"><table class=\"hl7__eu__lab__report\"><tr><th>Test</th><th>04-Dec-2020</th><th>Reference&#xA0;Range</th><th>Unit</th></tr><tr><td>Platelet distribution width [Entitic volume] in Blood by Automated count</td><td>198.0</td><td>13.4 - 17.4</td><td>H</td><td>fL</td></tr></table></div>"
        },
        "status": "final",
        "subject": {
          "reference": "urn:uuid:26df38b2-cc67-4157-86bc-cf2fd32759f5",
          "display": "Victor Lagarde"
        },
        "effectiveDateTime": "2020-12-04T04:48:18Z",
        "specimen": {
          "reference": "urn:uuid:4bf87a84-d816-495d-8017-6bfd640658d0"
        }
      }
    },
    {
      "fullUrl": "urn:uuid:8fdaa851-fbb0-4531-ba65-ed4e5c63cfc0",
      "resource": {
        "resourceType": "Observation",
        "id": "8fdaa851-fbb0-4531-ba65-ed4e5c63cfc0",
        "meta": {
          "profile": [
            "http://hl7.eu/fhir/laboratory/StructureDefinition/Observation-resultslab-eu-lab"
          ]
        },
        "performer": [
          {
            "display": "The Central European Lab"
          }
        ],
        "category": [
          {
            "coding": [
              {
                "system": "http://terminology.hl7.org/CodeSystem/observation-category",
                "code": "laboratory"
              }
            ]
          }
        ],
        "code": {
          "coding": [
            {
              "code": "32623-1",
              "system": "http://loinc.org",
              "display": "Platelet mean volume [Entitic volume] in Blood by Automated count"
            }
          ],
          "text": "Platelet mean volume [Entitic volume] in Blood by Automated count"
        },
        "valueQuantity": {
          "system": "http://unitsofmeasure.org",
          "value": 11.5,
          "unit": "fL",
          "code": "fL"
        },
        "referenceRange": [
          {
            "low": {
              "value": 7.2,
              "code": "fL",
              "system": "http://unitsofmeasure.org"
            }
          },
          {
            "high": {
              "value": 13.5,
              "code": "fL",
              "system": "http://unitsofmeasure.org"
            }
          }
        ],
        "text": {
          "status": "generated",
          "div": "<div xmlns=\"http://www.w3.org/1999/xhtml\"><table class=\"hl7__eu__lab__report\"><tr><th>Test</th><th>04-Dec-2020</th><th>Reference&#xA0;Range</th><th>Unit</th></tr><tr><td>Platelet mean volume [Entitic volume] in Blood by Automated count</td><td>11.5</td><td>7.2 - 13.5</td><td></td><td>fL</td></tr></table></div>"
        },
        "status": "final",
        "subject": {
          "reference": "urn:uuid:26df38b2-cc67-4157-86bc-cf2fd32759f5",
          "display": "Victor Lagarde"
        },
        "effectiveDateTime": "2020-12-04T04:48:18Z",
        "specimen": {
          "reference": "urn:uuid:4bf87a84-d816-495d-8017-6bfd640658d0"
        }
      }
    },
    {
      "fullUrl": "urn:uuid:45c849af-4328-40ce-8bce-83d999a3bfd6",
      "resource": {
        "resourceType": "Device",
        "id": "45c849af-4328-40ce-8bce-83d999a3bfd6",
        "deviceName": [
          {
            "name": "SYNDERAI Synthetic Generator",
            "type": "manufacturer-name"
          }
        ],
        "version": [
          {
            "value": "5.0"
          }
        ],
        "text": {
          "status": "generated",
          "div": "<div xmlns=\"http://www.w3.org/1999/xhtml\">SYNDERAI Synthetic Generator v5.0</div>"
        },
        "status": "active\"",
        "distinctIdentifier": "synderai-generator-50",
        "manufacturer": "SYNDERAI Project"
      }
    },
    {
      "fullUrl": "urn:uuid:6257def6-a470-4aa1-abf0-55b8a714d655",
      "resource": {
        "resourceType": "Provenance",
        "id": "6257def6-a470-4aa1-abf0-55b8a714d655",
        "target": [
          {
            "reference": "Patient/26df38b2-cc67-4157-86bc-cf2fd32759f5"
          },
          {
            "reference": "Bundle/1f537c29-22be-4aa8-86f7-1f0fdaa2d74e"
          },
          {
            "reference": "Composition/051787e8-0e5b-4fea-86a2-c0d7a51a7489"
          },
          {
            "reference": "PractitionerRole/e9ec3feb-5ea2-4ef8-964b-e6ca20b9f55a"
          },
          {
            "reference": "Practitioner/4c005663-6944-4dfd-8b2e-f74384f562b9"
          },
          {
            "reference": "PractitionerRole/eb2290f7-6e8e-44e4-9eb7-12c0ef6ea8a8"
          },
          {
            "reference": "Organization/f1ebfa28-b188-4258-b219-a8583f7e6c04"
          }
        ],
        "activity": {
          "text": "Synthetic Example Data Generation"
        },
        "policy": [
          "https://synderai.net/synderai-synthetic-data-policy"
        ],
        "agent": [
          {
            "type": {
              "text": "author"
            },
            "who": {
              "reference": "Device/45c849af-4328-40ce-8bce-83d999a3bfd6"
            }
          }
        ],
        "reason": [
          {
            "text": "Interoperability Testing and Training (non-clinical use)"
          }
        ],
        "text": {
          "status": "generated",
          "div": "<div xmlns=\"http://www.w3.org/1999/xhtml\">Provenance for SYNDERAI Synthetic Example Data Resource</div>"
        },
        "recorded": "2020-12-04T05:48:18Z"
      }
    },
    {
      "fullUrl": "urn:uuid:e9ec3feb-5ea2-4ef8-964b-e6ca20b9f55a",
      "resource": {
        "resourceType": "PractitionerRole",
        "id": "e9ec3feb-5ea2-4ef8-964b-e6ca20b9f55a",
        "meta": {
          "profile": [
            "http://hl7.eu/fhir/base/StructureDefinition/practitionerRole-eu"
          ]
        },
        "text": {
          "status": "generated",
          "div": "<div xmlns=\"http://www.w3.org/1999/xhtml\">Laboratory Role Id: e9ec3feb-5ea2-4ef8-964b-e6ca20b9f55a</div>"
        },
        "practitioner": {
          "reference": "urn:uuid:4c005663-6944-4dfd-8b2e-f74384f562b9"
        }
      }
    },
    {
      "fullUrl": "urn:uuid:4c005663-6944-4dfd-8b2e-f74384f562b9",
      "resource": {
        "resourceType": "Practitioner",
        "id": "4c005663-6944-4dfd-8b2e-f74384f562b9",
        "meta": {
          "profile": [
            "http://hl7.eu/fhir/base/StructureDefinition/practitioner-eu"
          ]
        },
        "identifier": [
          {
            "assigner": {
              "display": "HL7 Europe"
            },
            "system": "urn:oid:2.16.840.1.113883.2.51.999",
            "value": "01531321-6a09-4be8-94da-8d80214396ce"
          }
        ],
        "name": [
          {
            "prefix": [
              "dr"
            ],
            "given": [
              "Ex"
            ],
            "family": "Ample"
          }
        ],
        "address": [
          {
            "line": [
              "Laboratoire Central Europenne",
              "Boulevard du Jardin Botanique 32"
            ],
            "postalCode": "1000",
            "city": "Brussels",
            "country": "Belgium"
          }
        ],
        "text": {
          "status": "generated",
          "div": "<div xmlns=\"http://www.w3.org/1999/xhtml\">Laboratory: Laboratoire Central Europenne, 1000 Brussels, Belgium</div>"
        }
      }
    }
  ],
  "type": "document",
  "timestamp": "2020-12-04T05:48:18Z"
}
