{
  "resourceType": "Bundle",
  "id": "598c7a80-e4cb-49cc-9bc1-489840271671",
  "meta": {
    "profile": [
      "http://hl7.eu/fhir/laboratory/StructureDefinition/Bundle-eu-lab"
    ]
  },
  "identifier": {
    "assigner": {
      "display": "HL7 Europe"
    },
    "system": "urn:oid:2.16.840.1.113883.2.51.999",
    "value": "8a9ab0d8-6102-4a59-a5eb-aef2d7d5980f"
  },
  "entry": [
    {
      "fullUrl": "urn:uuid:736a826c-bd56-439e-a686-60cfe348598d",
      "resource": {
        "resourceType": "Composition",
        "id": "736a826c-bd56-439e-a686-60cfe348598d",
        "meta": {
          "profile": [
            "http://hl7.eu/fhir/laboratory/StructureDefinition/Composition-eu-lab"
          ]
        },
        "identifier": {
          "assigner": {
            "display": "HL7 Europe"
          },
          "system": "urn:oid:2.16.840.1.113883.2.51.999",
          "value": "c658adc8-cdb9-4a51-891f-9df731bed323"
        },
        "author": [
          {
            "reference": "urn:uuid:ed7e404a-eab5-439d-a5ce-5a81df03436f"
          }
        ],
        "category": [
          {
            "coding": [
              {
                "code": "26436-6",
                "system": "http://loinc.org",
                "display": "Laboratory studies (set)"
              }
            ]
          }
        ],
        "type": {
          "coding": [
            {
              "code": "11502-2",
              "system": "http://loinc.org",
              "display": "Laboratory report"
            }
          ],
          "text": "Laboratory Report"
        },
        "section": [
          {
            "code": {
              "coding": [
                {
                  "code": "26436-6",
                  "system": "http://loinc.org",
                  "display": "Laboratory studies (set)"
                }
              ],
              "text": "Laboratory studies"
            },
            "section": [
              {
                "code": {
                  "coding": [
                    {
                      "code": "$18719-5",
                      "system": "http://loinc.org",
                      "display": "Chemistry studies (set)"
                    }
                  ],
                  "text": "Chemistry"
                },
                "entry": [
                  {
                    "reference": "urn:uuid:6d60434c-d144-4691-897c-38ddf1d3d065"
                  },
                  {
                    "reference": "urn:uuid:52c6f535-5067-44e8-b591-48cad0b4875d"
                  },
                  {
                    "reference": "urn:uuid:79da9012-e7b3-4fee-a2c5-686e3cdc7370"
                  },
                  {
                    "reference": "urn:uuid:b09b38eb-232b-4a3e-b65c-9f433b2e5709"
                  },
                  {
                    "reference": "urn:uuid:c79415f8-87b5-412d-9ba6-363b059aece2"
                  },
                  {
                    "reference": "urn:uuid:0359deee-7d7a-4fc1-80e8-97cc5f9b4cfe"
                  },
                  {
                    "reference": "urn:uuid:30d610e4-aa6a-4c75-b916-4c1db66c8856"
                  },
                  {
                    "reference": "urn:uuid:f6bb0b77-fd61-4a9f-b2d0-7b7b1a48e2ff"
                  },
                  {
                    "reference": "urn:uuid:64a25599-81a7-4287-95dc-749a09e1f6b5"
                  },
                  {
                    "reference": "urn:uuid:021bb3de-d52f-4e10-9a23-01bef30ce00c"
                  },
                  {
                    "reference": "urn:uuid:e2dd0114-f724-45f6-993b-f69213da3a0f"
                  },
                  {
                    "reference": "urn:uuid:86817abb-806e-481b-89ad-0ced7f50c862"
                  },
                  {
                    "reference": "urn:uuid:7351b1bf-ac65-4e09-801f-bf105dbd0a7e"
                  },
                  {
                    "reference": "urn:uuid:0aec6332-3103-4348-819e-dfd9407869ce"
                  }
                ],
                "text": {
                  "status": "generated",
                  "div": "<div xmlns=\"http://www.w3.org/1999/xhtml\"><h3>Chemistry</h3><table class=\"hl7__eu__lab__report\"><thead><tr><th>Test</th><th>01-JUL-2016</th><th>Reference&#xA0;Range</th><th>Unit</th></tr></thead><tbody><tr><td>Hemoglobin A1c/Hemoglobin.total in Blood</td><td><strong>7.0 H</strong></td><td>4 - 6</td><td>%</td></tr><tr><td>Glucose [Mass/volume] in Blood</td><td>107.4</td><td>70 - 140</td><td>mg/dL</td></tr><tr><td>Urea nitrogen [Mass/volume] in Blood</td><td>14.7</td><td>7 - 25</td><td>mg/dL</td></tr><tr><td>Creatinine [Mass/volume] in Blood</td><td><strong>1.3 H</strong></td><td>0.6 - 1.1</td><td>mg/dL</td></tr><tr><td>Calcium [Mass/volume] in Blood</td><td>9.6</td><td>8.5 - 10.4</td><td>mg/dL</td></tr><tr><td>Sodium [Moles/volume] in Blood</td><td>143.3</td><td>135 - 145</td><td>mmol/L</td></tr><tr><td>Potassium [Moles/volume] in Blood</td><td>4.0</td><td>3.5 - 5.1</td><td>mmol/L</td></tr><tr><td>Chloride [Moles/volume] in Blood</td><td><strong>110.4 H</strong></td><td>98 - 107</td><td>mmol/L</td></tr><tr><td>Carbon dioxide, total [Moles/volume] in Blood</td><td><strong>21.3 L</strong></td><td>22 - 29</td><td>mmol/L</td></tr><tr><td>Cholesterol [Mass/volume] in Serum or Plasma</td><td><strong>231.4 H</strong></td><td>125 - 200</td><td>mg/dL</td></tr><tr><td>Triglyceride [Mass/volume] in Serum or Plasma</td><td><strong>185.1 H</strong></td><td>35 - 150</td><td>mg/dL</td></tr><tr><td>Cholesterol in LDL [Mass/volume] in Serum or Plasma by Direct assay</td><td><strong>141.2 H</strong></td><td>0 - 130</td><td>mg/dL</td></tr><tr><td>Cholesterol in HDL [Mass/volume] in Serum or Plasma</td><td>53.2</td><td>40 - 100</td><td>mg/dL</td></tr><tr><td>Microalbumin/Creatinine [Mass Ratio] in Urine</td><td>4.3</td><td>0 - 30</td><td>mg/g</td></tr></tbody></table></div>"
                },
                "title": "Chemistry"
              }
            ],
            "title": "Laboratory Report"
          },
          {
            "text": {
              "status": "generated",
              "div": "<div xmlns=\"http://www.w3.org/1999/xhtml\"><h3>Annotation</h3><table class=\"hl7__eu__lab__report\"><tr><th>Conclusion and Recommendations based on this report and previous findings known to us</th></tr><tr><td>The results indicate suboptimal glycemic control (elevated HbA1c), mild renal impairment (slightly high creatinine), and dyslipidemia (high total cholesterol, LDL, and triglycerides). There is also mild hyperchloremia and low total CO₂, which may suggest a mild metabolic acidosis. Microalbumin/creatinine ratio is normal. Recommend clinical correlation and further management of diabetes, renal function, and cardiovascular risk factors.</td></tr></table></div>"
            },
            "code": {
              "coding": [
                {
                  "system": "http://loinc.org",
                  "code": "48767-8",
                  "display": "Annotation comment"
                }
              ]
            },
            "title": "Annotation comment"
          }
        ],
        "status": "final",
        "subject": {
          "reference": "urn:uuid:86637bf1-ebce-42d3-b40c-7e21e0fdd7a6",
          "display": "Martine Couturier"
        },
        "date": "2016-07-01T22:13:15Z",
        "title": "Laboratory Report",
        "confidentiality": "N"
      }
    },
    {
      "fullUrl": "urn:uuid:a69aedd9-e8dd-4006-96be-f95f34942983",
      "resource": {
        "resourceType": "DiagnosticReport",
        "id": "a69aedd9-e8dd-4006-96be-f95f34942983",
        "meta": {
          "profile": [
            "http://hl7.eu/fhir/laboratory/StructureDefinition/DiagnosticReport-eu-lab"
          ]
        },
        "identifier": [
          {
            "assigner": {
              "display": "HL7 Europe"
            },
            "system": "urn:oid:2.16.840.1.113883.2.51.999",
            "value": "95345b42-be20-4180-a02c-82e7065e09c8"
          }
        ],
        "extension": [
          {
            "url": "http://hl7.org/fhir/5.0/StructureDefinition/extension-DiagnosticReport.composition",
            "valueReference": {
              "reference": "urn:uuid:c658adc8-cdb9-4a51-891f-9df731bed323"
            }
          }
        ],
        "category": [
          {
            "coding": [
              {
                "code": "26436-6",
                "system": "http://loinc.org",
                "display": "Laboratory studies (set)"
              }
            ]
          }
        ],
        "specimen": [
          {
            "reference": "urn:uuid:71950feb-92cd-42f9-89d0-4f1d22318d78"
          },
          {
            "reference": "urn:uuid:e420a0aa-9f1e-4d3e-aacd-9c0c5fcbc113"
          },
          {
            "reference": "urn:uuid:559ce2f2-4878-4822-ba7c-0e08cf12caf6"
          }
        ],
        "result": [
          {
            "reference": "urn:uuid:6d60434c-d144-4691-897c-38ddf1d3d065"
          },
          {
            "reference": "urn:uuid:52c6f535-5067-44e8-b591-48cad0b4875d"
          },
          {
            "reference": "urn:uuid:79da9012-e7b3-4fee-a2c5-686e3cdc7370"
          },
          {
            "reference": "urn:uuid:b09b38eb-232b-4a3e-b65c-9f433b2e5709"
          },
          {
            "reference": "urn:uuid:c79415f8-87b5-412d-9ba6-363b059aece2"
          },
          {
            "reference": "urn:uuid:0359deee-7d7a-4fc1-80e8-97cc5f9b4cfe"
          },
          {
            "reference": "urn:uuid:30d610e4-aa6a-4c75-b916-4c1db66c8856"
          },
          {
            "reference": "urn:uuid:f6bb0b77-fd61-4a9f-b2d0-7b7b1a48e2ff"
          },
          {
            "reference": "urn:uuid:64a25599-81a7-4287-95dc-749a09e1f6b5"
          },
          {
            "reference": "urn:uuid:021bb3de-d52f-4e10-9a23-01bef30ce00c"
          },
          {
            "reference": "urn:uuid:e2dd0114-f724-45f6-993b-f69213da3a0f"
          },
          {
            "reference": "urn:uuid:86817abb-806e-481b-89ad-0ced7f50c862"
          },
          {
            "reference": "urn:uuid:7351b1bf-ac65-4e09-801f-bf105dbd0a7e"
          },
          {
            "reference": "urn:uuid:0aec6332-3103-4348-819e-dfd9407869ce"
          }
        ],
        "status": "registered",
        "code": {
          "coding": [
            {
              "code": "11502-2",
              "system": "http://loinc.org",
              "display": "Laboratory report"
            }
          ]
        },
        "subject": {
          "reference": "urn:uuid:86637bf1-ebce-42d3-b40c-7e21e0fdd7a6",
          "display": "Martine Couturier"
        }
      }
    },
    {
      "fullUrl": "urn:uuid:86637bf1-ebce-42d3-b40c-7e21e0fdd7a6",
      "resource": {
        "resourceType": "Patient",
        "id": "86637bf1-ebce-42d3-b40c-7e21e0fdd7a6",
        "meta": {
          "security": [
            {
              "system": "http://terminology.hl7.org/CodeSystem/v3-ActReason",
              "code": "HTEST"
            },
            {
              "system": "http://terminology.hl7.org/CodeSystem/v3-ActReason",
              "code": "TRAIN"
            }
          ],
          "tag": [
            {
              "system": "https://synderai.net/fhir/CodeSystem/tags",
              "code": "synthetic",
              "display": "SYNDERAI Synthetic data"
            }
          ],
          "profile": [
            "http://hl7.eu/fhir/base/StructureDefinition/patient-eu-core"
          ]
        },
        "identifier": [
          {
            "type": {
              "coding": [
                {
                  "code": "PT",
                  "system": "http://terminology.hl7.org/CodeSystem/v2-0203"
                }
              ]
            },
            "system": "http://ec.europa.eu/identifier/eci",
            "value": "6614-983327-0"
          },
          {
            "type": {
              "coding": [
                {
                  "code": "MR",
                  "system": "http://terminology.hl7.org/CodeSystem/v2-0203"
                }
              ]
            },
            "system": "http://local.setting.eu/identifier",
            "value": "decdc04d-a1c8-929f-4aad-63136dd70efd"
          }
        ],
        "name": [
          {
            "family": "Couturier"
          },
          {
            "given": [
              "Martine"
            ]
          },
          {
            "text": "Martine Couturier"
          }
        ],
        "address": [
          {
            "line": [
              "458, rue de Bègue"
            ],
            "use": "home",
            "type": "physical",
            "postalCode": "03110",
            "city": "Boutin",
            "country": "France"
          }
        ],
        "telecom": [
          {
            "system": "phone",
            "value": "+33 4 11 66 35 81"
          }
        ],
        "extension": [
          {
            "url": "http://hl7.org/fhir/StructureDefinition/patient-nationality",
            "valueCodeableConcept": {
              "coding": [
                {
                  "code": "FR",
                  "system": "http://hl7.org/fhir/ValueSet/country"
                }
              ]
            }
          }
        ],
        "text": {
          "status": "generated",
          "div": "<div xmlns=\"http://www.w3.org/1999/xhtml\"><table class=\"hl7__ips\"><tr><td>Martine Couturier</td><td>female</td><td>13-Nov-1961</td></tr></table></div>"
        },
        "gender": "female",
        "birthDate": "1961-11-13"
      }
    },
    {
      "fullUrl": "urn:uuid:ad7a2804-71c8-4111-8463-dd4e0f66cf5a",
      "resource": {
        "resourceType": "ServiceRequest",
        "id": "ad7a2804-71c8-4111-8463-dd4e0f66cf5a",
        "meta": {
          "profile": [
            "http://hl7.eu/fhir/laboratory/StructureDefinition/ServiceRequest-eu-lab"
          ]
        },
        "identifier": [
          {
            "system": "http://example.org",
            "value": "f93d5516-b6e6-4a3e-ba8e-4187d7db6f9c"
          }
        ],
        "specimen": [
          {
            "reference": "urn:uuid:71950feb-92cd-42f9-89d0-4f1d22318d78"
          },
          {
            "reference": "urn:uuid:e420a0aa-9f1e-4d3e-aacd-9c0c5fcbc113"
          },
          {
            "reference": "urn:uuid:559ce2f2-4878-4822-ba7c-0e08cf12caf6"
          }
        ],
        "reasonCode": [
          {
            "coding": [
              {
                "code": "368581000119106",
                "system": "http://snomed.info/sct",
                "display": "Neuropathy due to type 2 diabetes mellitus"
              }
            ]
          },
          {
            "coding": [
              {
                "code": "302870006",
                "system": "http://snomed.info/sct",
                "display": "Hypertriglyceridemia"
              }
            ]
          },
          {
            "coding": [
              {
                "code": "44054006",
                "system": "http://snomed.info/sct",
                "display": "Type 2 diabetes mellitus"
              }
            ]
          },
          {
            "coding": [
              {
                "code": "237602007",
                "system": "http://snomed.info/sct",
                "display": "Metabolic syndrome X"
              }
            ]
          },
          {
            "coding": [
              {
                "code": "271737000",
                "system": "http://snomed.info/sct",
                "display": "Anemia"
              }
            ]
          },
          {
            "coding": [
              {
                "code": "15777000",
                "system": "http://snomed.info/sct",
                "display": "Prediabetes"
              }
            ]
          }
        ],
        "status": "active",
        "intent": "order",
        "code": {
          "coding": [
            {
              "code": "108252007",
              "system": "http://snomed.info/sct",
              "display": "Laboratory procedure"
            }
          ]
        },
        "subject": {
          "reference": "urn:uuid:86637bf1-ebce-42d3-b40c-7e21e0fdd7a6",
          "display": "Martine Couturier"
        },
        "requester": {
          "reference": "urn:uuid:11daf30c-30f4-437a-817b-cff5dd31cb46"
        }
      }
    },
    {
      "fullUrl": "urn:uuid:11daf30c-30f4-437a-817b-cff5dd31cb46",
      "resource": {
        "resourceType": "PractitionerRole",
        "id": "11daf30c-30f4-437a-817b-cff5dd31cb46",
        "meta": {
          "profile": [
            "http://hl7.eu/fhir/base/StructureDefinition/practitionerRole-eu"
          ]
        },
        "text": {
          "status": "generated",
          "div": "<div xmlns=\"http://www.w3.org/1999/xhtml\">Provider Role Id: 11daf30c-30f4-437a-817b-cff5dd31cb46</div>"
        },
        "organization": {
          "reference": "urn:uuid:20cf8247-acc7-4c3a-83af-f432e9076118"
        }
      }
    },
    {
      "fullUrl": "urn:uuid:20cf8247-acc7-4c3a-83af-f432e9076118",
      "resource": {
        "resourceType": "Organization",
        "id": "20cf8247-acc7-4c3a-83af-f432e9076118",
        "meta": {
          "profile": [
            "http://hl7.eu/fhir/base/StructureDefinition/organization-eu"
          ]
        },
        "identifier": [
          {
            "assigner": {
              "display": "HL7 Europe"
            },
            "system": "urn:oid:2.16.840.1.113883.2.51.999",
            "value": "73b717f9-b7a9-4d0b-9728-939ba47ef084"
          }
        ],
        "address": [
          {
            "line": [
              "Boulevard Denière 1"
            ],
            "city": "Vichy",
            "postalCode": "03200",
            "country": "France"
          }
        ],
        "text": {
          "status": "generated",
          "div": "<div xmlns=\"http://www.w3.org/1999/xhtml\">Provider Organization: Centre hospitalier Jacques Lacarin</div>"
        },
        "name": "Centre hospitalier Jacques Lacarin"
      }
    },
    {
      "fullUrl": "urn:uuid:71950feb-92cd-42f9-89d0-4f1d22318d78",
      "resource": {
        "resourceType": "Specimen",
        "id": "71950feb-92cd-42f9-89d0-4f1d22318d78",
        "meta": {
          "profile": [
            "http://hl7.eu/fhir/laboratory/StructureDefinition/Specimen-eu-lab"
          ]
        },
        "collection": {
          "collectedDateTime": "2016-07-01"
        },
        "text": {
          "status": "generated",
          "div": "<div xmlns=\"http://www.w3.org/1999/xhtml\"><table class=\"hl7__eu__lab__report\"><tr><th>Specimen</th><th>Collection Date</th></tr><tr><td>Whole blood specimen (specimen)</td><td><span class=\"nb\">01-Jul-2016</span></td></tr></table></div>"
        },
        "type": {
          "coding": [
            {
              "code": "258580003",
              "system": "http://snomed.info/sct",
              "display": "Whole blood specimen (specimen)"
            }
          ]
        }
      }
    },
    {
      "fullUrl": "urn:uuid:e420a0aa-9f1e-4d3e-aacd-9c0c5fcbc113",
      "resource": {
        "resourceType": "Specimen",
        "id": "e420a0aa-9f1e-4d3e-aacd-9c0c5fcbc113",
        "meta": {
          "profile": [
            "http://hl7.eu/fhir/laboratory/StructureDefinition/Specimen-eu-lab"
          ]
        },
        "collection": {
          "collectedDateTime": "2016-07-01"
        },
        "text": {
          "status": "generated",
          "div": "<div xmlns=\"http://www.w3.org/1999/xhtml\"><table class=\"hl7__eu__lab__report\"><tr><th>Specimen</th><th>Collection Date</th></tr><tr><td>Acellular blood (serum or plasma) specimen</td><td><span class=\"nb\">01-Jul-2016</span></td></tr></table></div>"
        },
        "type": {
          "coding": [
            {
              "code": "122592007",
              "system": "http://snomed.info/sct",
              "display": "Acellular blood (serum or plasma) specimen"
            }
          ]
        }
      }
    },
    {
      "fullUrl": "urn:uuid:559ce2f2-4878-4822-ba7c-0e08cf12caf6",
      "resource": {
        "resourceType": "Specimen",
        "id": "559ce2f2-4878-4822-ba7c-0e08cf12caf6",
        "meta": {
          "profile": [
            "http://hl7.eu/fhir/laboratory/StructureDefinition/Specimen-eu-lab"
          ]
        },
        "collection": {
          "collectedDateTime": "2016-07-01"
        },
        "text": {
          "status": "generated",
          "div": "<div xmlns=\"http://www.w3.org/1999/xhtml\"><table class=\"hl7__eu__lab__report\"><tr><th>Specimen</th><th>Collection Date</th></tr><tr><td>Urine specimen</td><td><span class=\"nb\">01-Jul-2016</span></td></tr></table></div>"
        },
        "type": {
          "coding": [
            {
              "code": "122575003",
              "system": "http://snomed.info/sct",
              "display": "Urine specimen"
            }
          ]
        }
      }
    },
    {
      "fullUrl": "urn:uuid:6d60434c-d144-4691-897c-38ddf1d3d065",
      "resource": {
        "resourceType": "Observation",
        "id": "6d60434c-d144-4691-897c-38ddf1d3d065",
        "meta": {
          "profile": [
            "http://hl7.eu/fhir/laboratory/StructureDefinition/Observation-resultslab-eu-lab"
          ]
        },
        "performer": [
          {
            "display": "The Central European Lab"
          }
        ],
        "category": [
          {
            "coding": [
              {
                "system": "http://terminology.hl7.org/CodeSystem/observation-category",
                "code": "laboratory"
              }
            ]
          }
        ],
        "code": {
          "coding": [
            {
              "code": "4548-4",
              "system": "http://loinc.org",
              "display": "Hemoglobin A1c/Hemoglobin.total in Blood"
            }
          ],
          "text": "Hemoglobin A1c/Hemoglobin.total in Blood"
        },
        "valueQuantity": {
          "system": "http://unitsofmeasure.org",
          "value": 7,
          "unit": "%",
          "code": "%"
        },
        "referenceRange": [
          {
            "low": {
              "value": 4,
              "code": "%",
              "system": "http://unitsofmeasure.org"
            }
          },
          {
            "high": {
              "value": 6,
              "code": "%",
              "system": "http://unitsofmeasure.org"
            }
          }
        ],
        "interpretation": [
          {
            "coding": [
              {
                "code": "H",
                "system": "http://terminology.hl7.org/CodeSystem/v3-ObservationInterpretation",
                "display": "High"
              }
            ]
          }
        ],
        "text": {
          "status": "generated",
          "div": "<div xmlns=\"http://www.w3.org/1999/xhtml\"><table class=\"hl7__eu__lab__report\"><tr><th>Test</th><th>01-Jul-2016</th><th>Reference&#xA0;Range</th><th>Unit</th></tr><tr><td>Hemoglobin A1c/Hemoglobin.total in Blood</td><td>7.0</td><td>4 - 6</td><td>H</td><td>%</td></tr></table></div>"
        },
        "status": "final",
        "subject": {
          "reference": "urn:uuid:86637bf1-ebce-42d3-b40c-7e21e0fdd7a6",
          "display": "Martine Couturier"
        },
        "effectiveDateTime": "2016-07-01T20:13:15Z",
        "specimen": {
          "reference": "urn:uuid:71950feb-92cd-42f9-89d0-4f1d22318d78"
        }
      }
    },
    {
      "fullUrl": "urn:uuid:52c6f535-5067-44e8-b591-48cad0b4875d",
      "resource": {
        "resourceType": "Observation",
        "id": "52c6f535-5067-44e8-b591-48cad0b4875d",
        "meta": {
          "profile": [
            "http://hl7.eu/fhir/laboratory/StructureDefinition/Observation-resultslab-eu-lab"
          ]
        },
        "performer": [
          {
            "display": "The Central European Lab"
          }
        ],
        "category": [
          {
            "coding": [
              {
                "system": "http://terminology.hl7.org/CodeSystem/observation-category",
                "code": "laboratory"
              }
            ]
          }
        ],
        "code": {
          "coding": [
            {
              "code": "2339-0",
              "system": "http://loinc.org",
              "display": "Glucose [Mass/volume] in Blood"
            }
          ],
          "text": "Glucose [Mass/volume] in Blood"
        },
        "valueQuantity": {
          "system": "http://unitsofmeasure.org",
          "value": 107.4,
          "unit": "mg/dL",
          "code": "mg/dL"
        },
        "referenceRange": [
          {
            "low": {
              "value": 70,
              "code": "mg/dL",
              "system": "http://unitsofmeasure.org"
            }
          },
          {
            "high": {
              "value": 140,
              "code": "mg/dL",
              "system": "http://unitsofmeasure.org"
            }
          }
        ],
        "text": {
          "status": "generated",
          "div": "<div xmlns=\"http://www.w3.org/1999/xhtml\"><table class=\"hl7__eu__lab__report\"><tr><th>Test</th><th>01-Jul-2016</th><th>Reference&#xA0;Range</th><th>Unit</th></tr><tr><td>Glucose [Mass/volume] in Blood</td><td>107.4</td><td>70 - 140</td><td></td><td>mg/dL</td></tr></table></div>"
        },
        "status": "final",
        "subject": {
          "reference": "urn:uuid:86637bf1-ebce-42d3-b40c-7e21e0fdd7a6",
          "display": "Martine Couturier"
        },
        "effectiveDateTime": "2016-07-01T20:13:15Z",
        "specimen": {
          "reference": "urn:uuid:71950feb-92cd-42f9-89d0-4f1d22318d78"
        }
      }
    },
    {
      "fullUrl": "urn:uuid:79da9012-e7b3-4fee-a2c5-686e3cdc7370",
      "resource": {
        "resourceType": "Observation",
        "id": "79da9012-e7b3-4fee-a2c5-686e3cdc7370",
        "meta": {
          "profile": [
            "http://hl7.eu/fhir/laboratory/StructureDefinition/Observation-resultslab-eu-lab"
          ]
        },
        "performer": [
          {
            "display": "The Central European Lab"
          }
        ],
        "category": [
          {
            "coding": [
              {
                "system": "http://terminology.hl7.org/CodeSystem/observation-category",
                "code": "laboratory"
              }
            ]
          }
        ],
        "code": {
          "coding": [
            {
              "code": "6299-2",
              "system": "http://loinc.org",
              "display": "Urea nitrogen [Mass/volume] in Blood"
            }
          ],
          "text": "Urea nitrogen [Mass/volume] in Blood"
        },
        "valueQuantity": {
          "system": "http://unitsofmeasure.org",
          "value": 14.7,
          "unit": "mg/dL",
          "code": "mg/dL"
        },
        "referenceRange": [
          {
            "low": {
              "value": 7,
              "code": "mg/dL",
              "system": "http://unitsofmeasure.org"
            }
          },
          {
            "high": {
              "value": 25,
              "code": "mg/dL",
              "system": "http://unitsofmeasure.org"
            }
          }
        ],
        "text": {
          "status": "generated",
          "div": "<div xmlns=\"http://www.w3.org/1999/xhtml\"><table class=\"hl7__eu__lab__report\"><tr><th>Test</th><th>01-Jul-2016</th><th>Reference&#xA0;Range</th><th>Unit</th></tr><tr><td>Urea nitrogen [Mass/volume] in Blood</td><td>14.7</td><td>7 - 25</td><td></td><td>mg/dL</td></tr></table></div>"
        },
        "status": "final",
        "subject": {
          "reference": "urn:uuid:86637bf1-ebce-42d3-b40c-7e21e0fdd7a6",
          "display": "Martine Couturier"
        },
        "effectiveDateTime": "2016-07-01T20:13:15Z",
        "specimen": {
          "reference": "urn:uuid:71950feb-92cd-42f9-89d0-4f1d22318d78"
        }
      }
    },
    {
      "fullUrl": "urn:uuid:b09b38eb-232b-4a3e-b65c-9f433b2e5709",
      "resource": {
        "resourceType": "Observation",
        "id": "b09b38eb-232b-4a3e-b65c-9f433b2e5709",
        "meta": {
          "profile": [
            "http://hl7.eu/fhir/laboratory/StructureDefinition/Observation-resultslab-eu-lab"
          ]
        },
        "performer": [
          {
            "display": "The Central European Lab"
          }
        ],
        "category": [
          {
            "coding": [
              {
                "system": "http://terminology.hl7.org/CodeSystem/observation-category",
                "code": "laboratory"
              }
            ]
          }
        ],
        "code": {
          "coding": [
            {
              "code": "38483-4",
              "system": "http://loinc.org",
              "display": "Creatinine [Mass/volume] in Blood"
            }
          ],
          "text": "Creatinine [Mass/volume] in Blood"
        },
        "valueQuantity": {
          "system": "http://unitsofmeasure.org",
          "value": 1.3,
          "unit": "mg/dL",
          "code": "mg/dL"
        },
        "referenceRange": [
          {
            "low": {
              "value": 0.6,
              "code": "mg/dL",
              "system": "http://unitsofmeasure.org"
            }
          },
          {
            "high": {
              "value": 1.1,
              "code": "mg/dL",
              "system": "http://unitsofmeasure.org"
            }
          }
        ],
        "interpretation": [
          {
            "coding": [
              {
                "code": "H",
                "system": "http://terminology.hl7.org/CodeSystem/v3-ObservationInterpretation",
                "display": "High"
              }
            ]
          }
        ],
        "text": {
          "status": "generated",
          "div": "<div xmlns=\"http://www.w3.org/1999/xhtml\"><table class=\"hl7__eu__lab__report\"><tr><th>Test</th><th>01-Jul-2016</th><th>Reference&#xA0;Range</th><th>Unit</th></tr><tr><td>Creatinine [Mass/volume] in Blood</td><td>1.3</td><td>0.6 - 1.1</td><td>H</td><td>mg/dL</td></tr></table></div>"
        },
        "status": "final",
        "subject": {
          "reference": "urn:uuid:86637bf1-ebce-42d3-b40c-7e21e0fdd7a6",
          "display": "Martine Couturier"
        },
        "effectiveDateTime": "2016-07-01T20:13:15Z",
        "specimen": {
          "reference": "urn:uuid:71950feb-92cd-42f9-89d0-4f1d22318d78"
        }
      }
    },
    {
      "fullUrl": "urn:uuid:c79415f8-87b5-412d-9ba6-363b059aece2",
      "resource": {
        "resourceType": "Observation",
        "id": "c79415f8-87b5-412d-9ba6-363b059aece2",
        "meta": {
          "profile": [
            "http://hl7.eu/fhir/laboratory/StructureDefinition/Observation-resultslab-eu-lab"
          ]
        },
        "performer": [
          {
            "display": "The Central European Lab"
          }
        ],
        "category": [
          {
            "coding": [
              {
                "system": "http://terminology.hl7.org/CodeSystem/observation-category",
                "code": "laboratory"
              }
            ]
          }
        ],
        "code": {
          "coding": [
            {
              "code": "49765-1",
              "system": "http://loinc.org",
              "display": "Calcium [Mass/volume] in Blood"
            }
          ],
          "text": "Calcium [Mass/volume] in Blood"
        },
        "valueQuantity": {
          "system": "http://unitsofmeasure.org",
          "value": 9.6,
          "unit": "mg/dL",
          "code": "mg/dL"
        },
        "referenceRange": [
          {
            "low": {
              "value": 8.5,
              "code": "mg/dL",
              "system": "http://unitsofmeasure.org"
            }
          },
          {
            "high": {
              "value": 10.4,
              "code": "mg/dL",
              "system": "http://unitsofmeasure.org"
            }
          }
        ],
        "text": {
          "status": "generated",
          "div": "<div xmlns=\"http://www.w3.org/1999/xhtml\"><table class=\"hl7__eu__lab__report\"><tr><th>Test</th><th>01-Jul-2016</th><th>Reference&#xA0;Range</th><th>Unit</th></tr><tr><td>Calcium [Mass/volume] in Blood</td><td>9.6</td><td>8.5 - 10.4</td><td></td><td>mg/dL</td></tr></table></div>"
        },
        "status": "final",
        "subject": {
          "reference": "urn:uuid:86637bf1-ebce-42d3-b40c-7e21e0fdd7a6",
          "display": "Martine Couturier"
        },
        "effectiveDateTime": "2016-07-01T20:13:15Z",
        "specimen": {
          "reference": "urn:uuid:71950feb-92cd-42f9-89d0-4f1d22318d78"
        }
      }
    },
    {
      "fullUrl": "urn:uuid:0359deee-7d7a-4fc1-80e8-97cc5f9b4cfe",
      "resource": {
        "resourceType": "Observation",
        "id": "0359deee-7d7a-4fc1-80e8-97cc5f9b4cfe",
        "meta": {
          "profile": [
            "http://hl7.eu/fhir/laboratory/StructureDefinition/Observation-resultslab-eu-lab"
          ]
        },
        "performer": [
          {
            "display": "The Central European Lab"
          }
        ],
        "category": [
          {
            "coding": [
              {
                "system": "http://terminology.hl7.org/CodeSystem/observation-category",
                "code": "laboratory"
              }
            ]
          }
        ],
        "code": {
          "coding": [
            {
              "code": "2947-0",
              "system": "http://loinc.org",
              "display": "Sodium [Moles/volume] in Blood"
            }
          ],
          "text": "Sodium [Moles/volume] in Blood"
        },
        "valueQuantity": {
          "system": "http://unitsofmeasure.org",
          "value": 143.3,
          "unit": "mmol/L",
          "code": "mmol/L"
        },
        "referenceRange": [
          {
            "low": {
              "value": 135,
              "code": "mmol/L",
              "system": "http://unitsofmeasure.org"
            }
          },
          {
            "high": {
              "value": 145,
              "code": "mmol/L",
              "system": "http://unitsofmeasure.org"
            }
          }
        ],
        "text": {
          "status": "generated",
          "div": "<div xmlns=\"http://www.w3.org/1999/xhtml\"><table class=\"hl7__eu__lab__report\"><tr><th>Test</th><th>01-Jul-2016</th><th>Reference&#xA0;Range</th><th>Unit</th></tr><tr><td>Sodium [Moles/volume] in Blood</td><td>143.3</td><td>135 - 145</td><td></td><td>mmol/L</td></tr></table></div>"
        },
        "status": "final",
        "subject": {
          "reference": "urn:uuid:86637bf1-ebce-42d3-b40c-7e21e0fdd7a6",
          "display": "Martine Couturier"
        },
        "effectiveDateTime": "2016-07-01T20:13:15Z",
        "specimen": {
          "reference": "urn:uuid:71950feb-92cd-42f9-89d0-4f1d22318d78"
        }
      }
    },
    {
      "fullUrl": "urn:uuid:30d610e4-aa6a-4c75-b916-4c1db66c8856",
      "resource": {
        "resourceType": "Observation",
        "id": "30d610e4-aa6a-4c75-b916-4c1db66c8856",
        "meta": {
          "profile": [
            "http://hl7.eu/fhir/laboratory/StructureDefinition/Observation-resultslab-eu-lab"
          ]
        },
        "performer": [
          {
            "display": "The Central European Lab"
          }
        ],
        "category": [
          {
            "coding": [
              {
                "system": "http://terminology.hl7.org/CodeSystem/observation-category",
                "code": "laboratory"
              }
            ]
          }
        ],
        "code": {
          "coding": [
            {
              "code": "6298-4",
              "system": "http://loinc.org",
              "display": "Potassium [Moles/volume] in Blood"
            }
          ],
          "text": "Potassium [Moles/volume] in Blood"
        },
        "valueQuantity": {
          "system": "http://unitsofmeasure.org",
          "value": 4,
          "unit": "mmol/L",
          "code": "mmol/L"
        },
        "referenceRange": [
          {
            "low": {
              "value": 3.5,
              "code": "mmol/L",
              "system": "http://unitsofmeasure.org"
            }
          },
          {
            "high": {
              "value": 5.1,
              "code": "mmol/L",
              "system": "http://unitsofmeasure.org"
            }
          }
        ],
        "text": {
          "status": "generated",
          "div": "<div xmlns=\"http://www.w3.org/1999/xhtml\"><table class=\"hl7__eu__lab__report\"><tr><th>Test</th><th>01-Jul-2016</th><th>Reference&#xA0;Range</th><th>Unit</th></tr><tr><td>Potassium [Moles/volume] in Blood</td><td>4.0</td><td>3.5 - 5.1</td><td></td><td>mmol/L</td></tr></table></div>"
        },
        "status": "final",
        "subject": {
          "reference": "urn:uuid:86637bf1-ebce-42d3-b40c-7e21e0fdd7a6",
          "display": "Martine Couturier"
        },
        "effectiveDateTime": "2016-07-01T20:13:15Z",
        "specimen": {
          "reference": "urn:uuid:71950feb-92cd-42f9-89d0-4f1d22318d78"
        }
      }
    },
    {
      "fullUrl": "urn:uuid:f6bb0b77-fd61-4a9f-b2d0-7b7b1a48e2ff",
      "resource": {
        "resourceType": "Observation",
        "id": "f6bb0b77-fd61-4a9f-b2d0-7b7b1a48e2ff",
        "meta": {
          "profile": [
            "http://hl7.eu/fhir/laboratory/StructureDefinition/Observation-resultslab-eu-lab"
          ]
        },
        "performer": [
          {
            "display": "The Central European Lab"
          }
        ],
        "category": [
          {
            "coding": [
              {
                "system": "http://terminology.hl7.org/CodeSystem/observation-category",
                "code": "laboratory"
              }
            ]
          }
        ],
        "code": {
          "coding": [
            {
              "code": "2069-3",
              "system": "http://loinc.org",
              "display": "Chloride [Moles/volume] in Blood"
            }
          ],
          "text": "Chloride [Moles/volume] in Blood"
        },
        "valueQuantity": {
          "system": "http://unitsofmeasure.org",
          "value": 110.4,
          "unit": "mmol/L",
          "code": "mmol/L"
        },
        "referenceRange": [
          {
            "low": {
              "value": 98,
              "code": "mmol/L",
              "system": "http://unitsofmeasure.org"
            }
          },
          {
            "high": {
              "value": 107,
              "code": "mmol/L",
              "system": "http://unitsofmeasure.org"
            }
          }
        ],
        "interpretation": [
          {
            "coding": [
              {
                "code": "H",
                "system": "http://terminology.hl7.org/CodeSystem/v3-ObservationInterpretation",
                "display": "High"
              }
            ]
          }
        ],
        "text": {
          "status": "generated",
          "div": "<div xmlns=\"http://www.w3.org/1999/xhtml\"><table class=\"hl7__eu__lab__report\"><tr><th>Test</th><th>01-Jul-2016</th><th>Reference&#xA0;Range</th><th>Unit</th></tr><tr><td>Chloride [Moles/volume] in Blood</td><td>110.4</td><td>98 - 107</td><td>H</td><td>mmol/L</td></tr></table></div>"
        },
        "status": "final",
        "subject": {
          "reference": "urn:uuid:86637bf1-ebce-42d3-b40c-7e21e0fdd7a6",
          "display": "Martine Couturier"
        },
        "effectiveDateTime": "2016-07-01T20:13:15Z",
        "specimen": {
          "reference": "urn:uuid:71950feb-92cd-42f9-89d0-4f1d22318d78"
        }
      }
    },
    {
      "fullUrl": "urn:uuid:64a25599-81a7-4287-95dc-749a09e1f6b5",
      "resource": {
        "resourceType": "Observation",
        "id": "64a25599-81a7-4287-95dc-749a09e1f6b5",
        "meta": {
          "profile": [
            "http://hl7.eu/fhir/laboratory/StructureDefinition/Observation-resultslab-eu-lab"
          ]
        },
        "performer": [
          {
            "display": "The Central European Lab"
          }
        ],
        "category": [
          {
            "coding": [
              {
                "system": "http://terminology.hl7.org/CodeSystem/observation-category",
                "code": "laboratory"
              }
            ]
          }
        ],
        "code": {
          "coding": [
            {
              "code": "20565-8",
              "system": "http://loinc.org",
              "display": "Carbon dioxide, total [Moles/volume] in Blood"
            }
          ],
          "text": "Carbon dioxide, total [Moles/volume] in Blood"
        },
        "valueQuantity": {
          "system": "http://unitsofmeasure.org",
          "value": 21.3,
          "unit": "mmol/L",
          "code": "mmol/L"
        },
        "referenceRange": [
          {
            "low": {
              "value": 22,
              "code": "mmol/L",
              "system": "http://unitsofmeasure.org"
            }
          },
          {
            "high": {
              "value": 29,
              "code": "mmol/L",
              "system": "http://unitsofmeasure.org"
            }
          }
        ],
        "interpretation": [
          {
            "coding": [
              {
                "code": "L",
                "system": "http://terminology.hl7.org/CodeSystem/v3-ObservationInterpretation",
                "display": "Low"
              }
            ]
          }
        ],
        "text": {
          "status": "generated",
          "div": "<div xmlns=\"http://www.w3.org/1999/xhtml\"><table class=\"hl7__eu__lab__report\"><tr><th>Test</th><th>01-Jul-2016</th><th>Reference&#xA0;Range</th><th>Unit</th></tr><tr><td>Carbon dioxide, total [Moles/volume] in Blood</td><td>21.3</td><td>22 - 29</td><td>L</td><td>mmol/L</td></tr></table></div>"
        },
        "status": "final",
        "subject": {
          "reference": "urn:uuid:86637bf1-ebce-42d3-b40c-7e21e0fdd7a6",
          "display": "Martine Couturier"
        },
        "effectiveDateTime": "2016-07-01T20:13:15Z",
        "specimen": {
          "reference": "urn:uuid:71950feb-92cd-42f9-89d0-4f1d22318d78"
        }
      }
    },
    {
      "fullUrl": "urn:uuid:021bb3de-d52f-4e10-9a23-01bef30ce00c",
      "resource": {
        "resourceType": "Observation",
        "id": "021bb3de-d52f-4e10-9a23-01bef30ce00c",
        "meta": {
          "profile": [
            "http://hl7.eu/fhir/laboratory/StructureDefinition/Observation-resultslab-eu-lab"
          ]
        },
        "performer": [
          {
            "display": "The Central European Lab"
          }
        ],
        "category": [
          {
            "coding": [
              {
                "system": "http://terminology.hl7.org/CodeSystem/observation-category",
                "code": "laboratory"
              }
            ]
          }
        ],
        "code": {
          "coding": [
            {
              "code": "2093-3",
              "system": "http://loinc.org",
              "display": "Cholesterol [Mass/volume] in Serum or Plasma"
            }
          ],
          "text": "Cholesterol [Mass/volume] in Serum or Plasma"
        },
        "valueQuantity": {
          "system": "http://unitsofmeasure.org",
          "value": 231.4,
          "unit": "mg/dL",
          "code": "mg/dL"
        },
        "referenceRange": [
          {
            "low": {
              "value": 125,
              "code": "mg/dL",
              "system": "http://unitsofmeasure.org"
            }
          },
          {
            "high": {
              "value": 200,
              "code": "mg/dL",
              "system": "http://unitsofmeasure.org"
            }
          }
        ],
        "interpretation": [
          {
            "coding": [
              {
                "code": "H",
                "system": "http://terminology.hl7.org/CodeSystem/v3-ObservationInterpretation",
                "display": "High"
              }
            ]
          }
        ],
        "text": {
          "status": "generated",
          "div": "<div xmlns=\"http://www.w3.org/1999/xhtml\"><table class=\"hl7__eu__lab__report\"><tr><th>Test</th><th>01-Jul-2016</th><th>Reference&#xA0;Range</th><th>Unit</th></tr><tr><td>Cholesterol [Mass/volume] in Serum or Plasma</td><td>231.4</td><td>125 - 200</td><td>H</td><td>mg/dL</td></tr></table></div>"
        },
        "status": "final",
        "subject": {
          "reference": "urn:uuid:86637bf1-ebce-42d3-b40c-7e21e0fdd7a6",
          "display": "Martine Couturier"
        },
        "effectiveDateTime": "2016-07-01T20:13:15Z",
        "specimen": {
          "reference": "urn:uuid:e420a0aa-9f1e-4d3e-aacd-9c0c5fcbc113"
        }
      }
    },
    {
      "fullUrl": "urn:uuid:e2dd0114-f724-45f6-993b-f69213da3a0f",
      "resource": {
        "resourceType": "Observation",
        "id": "e2dd0114-f724-45f6-993b-f69213da3a0f",
        "meta": {
          "profile": [
            "http://hl7.eu/fhir/laboratory/StructureDefinition/Observation-resultslab-eu-lab"
          ]
        },
        "performer": [
          {
            "display": "The Central European Lab"
          }
        ],
        "category": [
          {
            "coding": [
              {
                "system": "http://terminology.hl7.org/CodeSystem/observation-category",
                "code": "laboratory"
              }
            ]
          }
        ],
        "code": {
          "coding": [
            {
              "code": "2571-8",
              "system": "http://loinc.org",
              "display": "Triglyceride [Mass/volume] in Serum or Plasma"
            }
          ],
          "text": "Triglyceride [Mass/volume] in Serum or Plasma"
        },
        "valueQuantity": {
          "system": "http://unitsofmeasure.org",
          "value": 185.1,
          "unit": "mg/dL",
          "code": "mg/dL"
        },
        "referenceRange": [
          {
            "low": {
              "value": 35,
              "code": "mg/dL",
              "system": "http://unitsofmeasure.org"
            }
          },
          {
            "high": {
              "value": 150,
              "code": "mg/dL",
              "system": "http://unitsofmeasure.org"
            }
          }
        ],
        "interpretation": [
          {
            "coding": [
              {
                "code": "H",
                "system": "http://terminology.hl7.org/CodeSystem/v3-ObservationInterpretation",
                "display": "High"
              }
            ]
          }
        ],
        "text": {
          "status": "generated",
          "div": "<div xmlns=\"http://www.w3.org/1999/xhtml\"><table class=\"hl7__eu__lab__report\"><tr><th>Test</th><th>01-Jul-2016</th><th>Reference&#xA0;Range</th><th>Unit</th></tr><tr><td>Triglyceride [Mass/volume] in Serum or Plasma</td><td>185.1</td><td>35 - 150</td><td>H</td><td>mg/dL</td></tr></table></div>"
        },
        "status": "final",
        "subject": {
          "reference": "urn:uuid:86637bf1-ebce-42d3-b40c-7e21e0fdd7a6",
          "display": "Martine Couturier"
        },
        "effectiveDateTime": "2016-07-01T20:13:15Z",
        "specimen": {
          "reference": "urn:uuid:e420a0aa-9f1e-4d3e-aacd-9c0c5fcbc113"
        }
      }
    },
    {
      "fullUrl": "urn:uuid:86817abb-806e-481b-89ad-0ced7f50c862",
      "resource": {
        "resourceType": "Observation",
        "id": "86817abb-806e-481b-89ad-0ced7f50c862",
        "meta": {
          "profile": [
            "http://hl7.eu/fhir/laboratory/StructureDefinition/Observation-resultslab-eu-lab"
          ]
        },
        "performer": [
          {
            "display": "The Central European Lab"
          }
        ],
        "category": [
          {
            "coding": [
              {
                "system": "http://terminology.hl7.org/CodeSystem/observation-category",
                "code": "laboratory"
              }
            ]
          }
        ],
        "code": {
          "coding": [
            {
              "code": "18262-6",
              "system": "http://loinc.org",
              "display": "Cholesterol in LDL [Mass/volume] in Serum or Plasma by Direct assay"
            }
          ],
          "text": "Cholesterol in LDL [Mass/volume] in Serum or Plasma by Direct assay"
        },
        "valueQuantity": {
          "system": "http://unitsofmeasure.org",
          "value": 141.2,
          "unit": "mg/dL",
          "code": "mg/dL"
        },
        "referenceRange": [
          {
            "low": {
              "value": 0,
              "code": "mg/dL",
              "system": "http://unitsofmeasure.org"
            }
          },
          {
            "high": {
              "value": 130,
              "code": "mg/dL",
              "system": "http://unitsofmeasure.org"
            }
          }
        ],
        "interpretation": [
          {
            "coding": [
              {
                "code": "H",
                "system": "http://terminology.hl7.org/CodeSystem/v3-ObservationInterpretation",
                "display": "High"
              }
            ]
          }
        ],
        "text": {
          "status": "generated",
          "div": "<div xmlns=\"http://www.w3.org/1999/xhtml\"><table class=\"hl7__eu__lab__report\"><tr><th>Test</th><th>01-Jul-2016</th><th>Reference&#xA0;Range</th><th>Unit</th></tr><tr><td>Cholesterol in LDL [Mass/volume] in Serum or Plasma by Direct assay</td><td>141.2</td><td>0 - 130</td><td>H</td><td>mg/dL</td></tr></table></div>"
        },
        "status": "final",
        "subject": {
          "reference": "urn:uuid:86637bf1-ebce-42d3-b40c-7e21e0fdd7a6",
          "display": "Martine Couturier"
        },
        "effectiveDateTime": "2016-07-01T20:13:15Z",
        "specimen": {
          "reference": "urn:uuid:e420a0aa-9f1e-4d3e-aacd-9c0c5fcbc113"
        }
      }
    },
    {
      "fullUrl": "urn:uuid:7351b1bf-ac65-4e09-801f-bf105dbd0a7e",
      "resource": {
        "resourceType": "Observation",
        "id": "7351b1bf-ac65-4e09-801f-bf105dbd0a7e",
        "meta": {
          "profile": [
            "http://hl7.eu/fhir/laboratory/StructureDefinition/Observation-resultslab-eu-lab"
          ]
        },
        "performer": [
          {
            "display": "The Central European Lab"
          }
        ],
        "category": [
          {
            "coding": [
              {
                "system": "http://terminology.hl7.org/CodeSystem/observation-category",
                "code": "laboratory"
              }
            ]
          }
        ],
        "code": {
          "coding": [
            {
              "code": "2085-9",
              "system": "http://loinc.org",
              "display": "Cholesterol in HDL [Mass/volume] in Serum or Plasma"
            }
          ],
          "text": "Cholesterol in HDL [Mass/volume] in Serum or Plasma"
        },
        "valueQuantity": {
          "system": "http://unitsofmeasure.org",
          "value": 53.2,
          "unit": "mg/dL",
          "code": "mg/dL"
        },
        "referenceRange": [
          {
            "low": {
              "value": 40,
              "code": "mg/dL",
              "system": "http://unitsofmeasure.org"
            }
          },
          {
            "high": {
              "value": 100,
              "code": "mg/dL",
              "system": "http://unitsofmeasure.org"
            }
          }
        ],
        "text": {
          "status": "generated",
          "div": "<div xmlns=\"http://www.w3.org/1999/xhtml\"><table class=\"hl7__eu__lab__report\"><tr><th>Test</th><th>01-Jul-2016</th><th>Reference&#xA0;Range</th><th>Unit</th></tr><tr><td>Cholesterol in HDL [Mass/volume] in Serum or Plasma</td><td>53.2</td><td>40 - 100</td><td></td><td>mg/dL</td></tr></table></div>"
        },
        "status": "final",
        "subject": {
          "reference": "urn:uuid:86637bf1-ebce-42d3-b40c-7e21e0fdd7a6",
          "display": "Martine Couturier"
        },
        "effectiveDateTime": "2016-07-01T20:13:15Z",
        "specimen": {
          "reference": "urn:uuid:e420a0aa-9f1e-4d3e-aacd-9c0c5fcbc113"
        }
      }
    },
    {
      "fullUrl": "urn:uuid:0aec6332-3103-4348-819e-dfd9407869ce",
      "resource": {
        "resourceType": "Observation",
        "id": "0aec6332-3103-4348-819e-dfd9407869ce",
        "meta": {
          "profile": [
            "http://hl7.eu/fhir/laboratory/StructureDefinition/Observation-resultslab-eu-lab"
          ]
        },
        "performer": [
          {
            "display": "The Central European Lab"
          }
        ],
        "category": [
          {
            "coding": [
              {
                "system": "http://terminology.hl7.org/CodeSystem/observation-category",
                "code": "laboratory"
              }
            ]
          }
        ],
        "code": {
          "coding": [
            {
              "code": "14959-1",
              "system": "http://loinc.org",
              "display": "Microalbumin/Creatinine [Mass Ratio] in Urine"
            }
          ],
          "text": "Microalbumin/Creatinine [Mass Ratio] in Urine"
        },
        "valueQuantity": {
          "system": "http://unitsofmeasure.org",
          "value": 4.3,
          "unit": "mg/g",
          "code": "mg/g"
        },
        "referenceRange": [
          {
            "low": {
              "value": 0,
              "code": "mg/g",
              "system": "http://unitsofmeasure.org"
            }
          },
          {
            "high": {
              "value": 30,
              "code": "mg/g",
              "system": "http://unitsofmeasure.org"
            }
          }
        ],
        "text": {
          "status": "generated",
          "div": "<div xmlns=\"http://www.w3.org/1999/xhtml\"><table class=\"hl7__eu__lab__report\"><tr><th>Test</th><th>01-Jul-2016</th><th>Reference&#xA0;Range</th><th>Unit</th></tr><tr><td>Microalbumin/Creatinine [Mass Ratio] in Urine</td><td>4.3</td><td>0 - 30</td><td></td><td>mg/g</td></tr></table></div>"
        },
        "status": "final",
        "subject": {
          "reference": "urn:uuid:86637bf1-ebce-42d3-b40c-7e21e0fdd7a6",
          "display": "Martine Couturier"
        },
        "effectiveDateTime": "2016-07-01T20:13:15Z",
        "specimen": {
          "reference": "urn:uuid:559ce2f2-4878-4822-ba7c-0e08cf12caf6"
        }
      }
    },
    {
      "fullUrl": "urn:uuid:27bab83a-ef86-4c10-827a-638bd939cc01",
      "resource": {
        "resourceType": "Device",
        "id": "27bab83a-ef86-4c10-827a-638bd939cc01",
        "deviceName": [
          {
            "name": "SYNDERAI Synthetic Generator",
            "type": "manufacturer-name"
          }
        ],
        "version": [
          {
            "value": "5.0"
          }
        ],
        "text": {
          "status": "generated",
          "div": "<div xmlns=\"http://www.w3.org/1999/xhtml\">SYNDERAI Synthetic Generator v5.0</div>"
        },
        "status": "active\"",
        "distinctIdentifier": "synderai-generator-50",
        "manufacturer": "SYNDERAI Project"
      }
    },
    {
      "fullUrl": "urn:uuid:88036b8d-a93b-4a6e-ba08-5e98c5950668",
      "resource": {
        "resourceType": "Provenance",
        "id": "88036b8d-a93b-4a6e-ba08-5e98c5950668",
        "target": [
          {
            "reference": "Patient/86637bf1-ebce-42d3-b40c-7e21e0fdd7a6"
          },
          {
            "reference": "Bundle/598c7a80-e4cb-49cc-9bc1-489840271671"
          },
          {
            "reference": "Composition/736a826c-bd56-439e-a686-60cfe348598d"
          },
          {
            "reference": "PractitionerRole/ed7e404a-eab5-439d-a5ce-5a81df03436f"
          },
          {
            "reference": "Practitioner/6c09bcf7-1c41-4381-93d9-8edd4af12e55"
          },
          {
            "reference": "PractitionerRole/11daf30c-30f4-437a-817b-cff5dd31cb46"
          },
          {
            "reference": "Organization/20cf8247-acc7-4c3a-83af-f432e9076118"
          }
        ],
        "activity": {
          "text": "Synthetic Example Data Generation"
        },
        "policy": [
          "https://synderai.net/synderai-synthetic-data-policy"
        ],
        "agent": [
          {
            "type": {
              "text": "author"
            },
            "who": {
              "reference": "Device/27bab83a-ef86-4c10-827a-638bd939cc01"
            }
          }
        ],
        "reason": [
          {
            "text": "Interoperability Testing and Training (non-clinical use)"
          }
        ],
        "text": {
          "status": "generated",
          "div": "<div xmlns=\"http://www.w3.org/1999/xhtml\">Provenance for SYNDERAI Synthetic Example Data Resource</div>"
        },
        "recorded": "2016-07-01T22:13:15Z"
      }
    },
    {
      "fullUrl": "urn:uuid:ed7e404a-eab5-439d-a5ce-5a81df03436f",
      "resource": {
        "resourceType": "PractitionerRole",
        "id": "ed7e404a-eab5-439d-a5ce-5a81df03436f",
        "meta": {
          "profile": [
            "http://hl7.eu/fhir/base/StructureDefinition/practitionerRole-eu"
          ]
        },
        "text": {
          "status": "generated",
          "div": "<div xmlns=\"http://www.w3.org/1999/xhtml\">Laboratory Role Id: ed7e404a-eab5-439d-a5ce-5a81df03436f</div>"
        },
        "practitioner": {
          "reference": "urn:uuid:6c09bcf7-1c41-4381-93d9-8edd4af12e55"
        }
      }
    },
    {
      "fullUrl": "urn:uuid:6c09bcf7-1c41-4381-93d9-8edd4af12e55",
      "resource": {
        "resourceType": "Practitioner",
        "id": "6c09bcf7-1c41-4381-93d9-8edd4af12e55",
        "meta": {
          "profile": [
            "http://hl7.eu/fhir/base/StructureDefinition/practitioner-eu"
          ]
        },
        "identifier": [
          {
            "assigner": {
              "display": "HL7 Europe"
            },
            "system": "urn:oid:2.16.840.1.113883.2.51.999",
            "value": "b9c481fa-43b8-4fb6-bb94-3f15810aea07"
          }
        ],
        "name": [
          {
            "prefix": [
              "dr"
            ],
            "given": [
              "Ex"
            ],
            "family": "Ample"
          }
        ],
        "address": [
          {
            "line": [
              "Laboratoire Central Européenne",
              "Boulevard du Jardin Botanique 32"
            ],
            "postalCode": "1000",
            "city": "Brussels",
            "country": "Belgium"
          }
        ],
        "text": {
          "status": "generated",
          "div": "<div xmlns=\"http://www.w3.org/1999/xhtml\">Laboratory: Laboratoire Central Européenne, 1000 Brussels, Belgium</div>"
        }
      }
    }
  ],
  "type": "document",
  "timestamp": "2016-07-01T22:13:15Z"
}
