{
  "resourceType": "Bundle",
  "id": "a1ca8d45-a44d-400f-92ab-b9554ab73169",
  "meta": {
    "profile": [
      "http://hl7.eu/fhir/laboratory/StructureDefinition/Bundle-eu-lab"
    ]
  },
  "identifier": {
    "assigner": {
      "display": "HL7 Europe"
    },
    "system": "urn:oid:2.16.840.1.113883.2.51.999",
    "value": "83d49a37-a921-4ac6-81d0-1299f1bc7976"
  },
  "entry": [
    {
      "fullUrl": "urn:uuid:b14da2d4-4a22-47fe-ab90-90feaaaa23d7",
      "resource": {
        "resourceType": "Composition",
        "id": "b14da2d4-4a22-47fe-ab90-90feaaaa23d7",
        "meta": {
          "profile": [
            "http://hl7.eu/fhir/laboratory/StructureDefinition/Composition-eu-lab"
          ]
        },
        "identifier": {
          "assigner": {
            "display": "HL7 Europe"
          },
          "system": "urn:oid:2.16.840.1.113883.2.51.999",
          "value": "d561961c-75a1-4796-9e43-e465d3858a52"
        },
        "author": [
          {
            "reference": "urn:uuid:71a55bd2-d6df-49e8-a2b2-391fe823e961"
          }
        ],
        "category": [
          {
            "coding": [
              {
                "code": "26436-6",
                "system": "http://loinc.org",
                "display": "Laboratory studies (set)"
              }
            ]
          }
        ],
        "type": {
          "coding": [
            {
              "code": "11502-2",
              "system": "http://loinc.org",
              "display": "Laboratory report"
            }
          ],
          "text": "Laboratory Report"
        },
        "section": [
          {
            "code": {
              "coding": [
                {
                  "code": "26436-6",
                  "system": "http://loinc.org",
                  "display": "Laboratory studies (set)"
                }
              ],
              "text": "Laboratory studies"
            },
            "section": [
              {
                "code": {
                  "coding": [
                    {
                      "code": "$18719-5",
                      "system": "http://loinc.org",
                      "display": "Chemistry studies (set)"
                    }
                  ],
                  "text": "Chemistry"
                },
                "entry": [
                  {
                    "reference": "urn:uuid:63065d1c-f6df-4eb1-8a9d-031a8429ae54"
                  },
                  {
                    "reference": "urn:uuid:6cd8876f-a7bf-420c-8db1-0a11f1b14295"
                  },
                  {
                    "reference": "urn:uuid:0e77bce4-52be-451b-9c6c-9843843e93be"
                  },
                  {
                    "reference": "urn:uuid:29c92aec-a25f-4ae8-ac12-1454fb0b6c41"
                  },
                  {
                    "reference": "urn:uuid:d88eefc4-35f1-4bfd-91f2-c0185d10780a"
                  },
                  {
                    "reference": "urn:uuid:0432a40b-07ae-4241-a308-4068e2bab51e"
                  },
                  {
                    "reference": "urn:uuid:71e42608-2ef8-4c04-b1ea-077b9de96d6b"
                  },
                  {
                    "reference": "urn:uuid:4c57446d-a839-4756-983e-c10726867a10"
                  },
                  {
                    "reference": "urn:uuid:8bd78cfd-3d3a-4557-9fe6-00c77d22c892"
                  }
                ],
                "text": {
                  "status": "generated",
                  "div": "<div xmlns=\"http://www.w3.org/1999/xhtml\"><h3>Chemistry</h3><table class=\"hl7__eu__lab__report\"><thead><tr><th>Test</th><th>18-JUL-2024</th><th>Reference&#xA0;Range</th><th>Unit</th></tr></thead><tbody><tr><td>Glucose [Mass/volume] in Serum or Plasma</td><td><strong>65.8 L</strong></td><td>70 - 140</td><td>mg/dL</td></tr><tr><td>Urea nitrogen [Mass/volume] in Serum or Plasma</td><td>16.1</td><td>7 - 50</td><td>mg/dL</td></tr><tr><td>Creatinine [Mass/volume] in Serum or Plasma</td><td><strong>2.1 H</strong></td><td>0.6 - 1.1</td><td>mg/dL</td></tr><tr><td>Calcium [Mass/volume] in Serum or Plasma</td><td>9.9</td><td>8.5 - 10.5</td><td>mg/dL</td></tr><tr><td>Sodium [Moles/volume] in Serum or Plasma</td><td>140.8</td><td>135 - 145</td><td>mmol/L</td></tr><tr><td>Potassium [Moles/volume] in Serum or Plasma</td><td>4.6</td><td>3.5 - 5.1</td><td>mmol/L</td></tr><tr><td>Chloride [Moles/volume] in Serum or Plasma</td><td>107.0</td><td>98 - 108</td><td>mmol/L</td></tr><tr><td>Carbon dioxide, total [Moles/volume] in Serum or Plasma</td><td>23.8</td><td>22 - 32</td><td>mmol/L</td></tr><tr><td>Ketones [Presence] in Urine by Test strip</td><td>Urine ketone test = +</td><td></td><td></td></tr></tbody></table></div>"
                },
                "title": "Chemistry"
              },
              {
                "code": {
                  "coding": [
                    {
                      "code": "$18729-4",
                      "system": "http://loinc.org",
                      "display": "Urinalysis studies (set)"
                    }
                  ],
                  "text": "Urinalysis"
                },
                "entry": [
                  {
                    "reference": "urn:uuid:0bf5653e-2726-46b6-9bde-69205d5f48e2"
                  },
                  {
                    "reference": "urn:uuid:b645d1a1-0bee-4daa-b224-f8f0b0cbda96"
                  },
                  {
                    "reference": "urn:uuid:51910a97-79ee-487f-91ea-a31389658c23"
                  },
                  {
                    "reference": "urn:uuid:5c0912e8-c1f7-4e24-ac96-6f9b45bffc2f"
                  },
                  {
                    "reference": "urn:uuid:60de3a38-f4c5-4dfe-ac71-e1112243ad73"
                  },
                  {
                    "reference": "urn:uuid:fc4eadda-df1c-459a-8479-b89b65ee047a"
                  },
                  {
                    "reference": "urn:uuid:f0eb655e-0dd2-4215-b27f-9ca8e24b8d81"
                  },
                  {
                    "reference": "urn:uuid:6e789e53-1e14-4d10-a7cf-724e5c4de504"
                  },
                  {
                    "reference": "urn:uuid:17ec9ee9-87f7-4c15-a8bf-785d9953a6f7"
                  },
                  {
                    "reference": "urn:uuid:9dd073ef-89ff-4aba-a1ac-911039fac613"
                  },
                  {
                    "reference": "urn:uuid:d5346445-a166-4549-8210-746de86c320b"
                  },
                  {
                    "reference": "urn:uuid:9bd2e8b0-1ff2-4028-995f-c849eafd010a"
                  }
                ],
                "text": {
                  "status": "generated",
                  "div": "<div xmlns=\"http://www.w3.org/1999/xhtml\"><h3>Urinalysis</h3><table class=\"hl7__eu__lab__report\"><thead><tr><th>Test</th><th>18-JUL-2024</th><th>Reference&#xA0;Range</th><th>Unit</th></tr></thead><tbody><tr><td>Glucose [Mass/volume] in Urine by Test strip</td><td><strong>1.9 H</strong></td><td>0.8 - 0</td><td>mg/dL</td></tr><tr><td>Glucose [Presence] in Urine by Test strip</td><td>++</td><td></td><td></td></tr><tr><td>Bilirubin.total [Mass/volume] in Urine by Test strip</td><td><strong>1.1 H</strong></td><td>0 - 1</td><td>mg/dL</td></tr><tr><td>Bilirubin.total [Presence] in Urine by Test strip</td><td>Finding of bilirubin in urine</td><td></td><td></td></tr><tr><td>Ketones [Mass/volume] in Urine by Test strip</td><td>7.4</td><td>0 - 20</td><td>mg/dL</td></tr><tr><td>Specific gravity of Urine by Test strip</td><td><strong>1.0 L</strong></td><td>1.01 - 1.03</td><td>{nominal}</td></tr><tr><td>pH of Urine by Test strip</td><td>5.9</td><td>4.6 - 7</td><td>pH</td></tr><tr><td>Protein [Mass/volume] in Urine by Test strip</td><td><strong>303.3 H</strong></td><td>0 - 15</td><td>mg/dL</td></tr><tr><td>Protein [Presence] in Urine by Test strip</td><td>Urine protein test = ++</td><td></td><td></td></tr><tr><td>Nitrite [Presence] in Urine by Test strip</td><td>Urine nitrite negative</td><td></td><td></td></tr><tr><td>Hemoglobin [Presence] in Urine by Test strip</td><td>Urine blood test = negative</td><td></td><td></td></tr><tr><td>Leukocyte esterase [Presence] in Urine by Test strip</td><td>Urine leukocyte test negative</td><td></td><td></td></tr></tbody></table></div>"
                },
                "title": "Urinalysis"
              },
              {
                "code": {
                  "coding": [
                    {
                      "code": "$LP7846-1",
                      "system": "http://loinc.org",
                      "display": "Specimen information"
                    }
                  ],
                  "text": "Specimen information"
                },
                "entry": [
                  {
                    "reference": "urn:uuid:87ea6ecc-65a3-4935-b615-9e7a6eedc298"
                  },
                  {
                    "reference": "urn:uuid:197e6f27-52f0-4dcd-bce6-5fe6c06fb7db"
                  },
                  {
                    "reference": "urn:uuid:c7d6ea68-8956-47a9-a09b-a013cb003318"
                  },
                  {
                    "reference": "urn:uuid:43c0b8aa-3bcf-40e8-bb14-c19d6835deea"
                  }
                ],
                "text": {
                  "status": "generated",
                  "div": "<div xmlns=\"http://www.w3.org/1999/xhtml\"><h3>Specimen information</h3><table class=\"hl7__eu__lab__report\"><thead><tr><th>Test</th><th>18-JUL-2024</th><th>Specimen</th><th></th></tr></thead><tbody><tr><td>Appearance of Urine</td><td>Cloudy urine</td><td>Urine</td><td></td></tr><tr><td>Odor of Urine</td><td>Urine smell ammoniacal</td><td>Urine</td><td></td></tr><tr><td>Clarity of Urine</td><td>Translucent</td><td>Urine</td><td></td></tr><tr><td>Color of Urine</td><td>Brown color</td><td>Urine</td><td></td></tr></tbody></table></div>"
                },
                "title": "Specimen information"
              }
            ],
            "title": "Laboratory Report"
          },
          {
            "text": {
              "status": "generated",
              "div": "<div xmlns=\"http://www.w3.org/1999/xhtml\"><h3>Annotation</h3><table class=\"hl7__eu__lab__report\"><tr><th>Conclusion and Recommendations based on this report and previous findings known to us</th></tr><tr><td>The patient shows hypoglycemia, elevated creatinine suggesting impaired renal function, and significant proteinuria with low urine specific gravity, indicating possible nephrotic syndrome or advanced kidney disease. Urine findings of brown color, cloudiness, and bilirubinuria may suggest hepatic or urinary tract involvement. No evidence of urinary tract infection is present. Clinical correlation and further nephrological and hepatic evaluation are recommended.</td></tr></table></div>"
            },
            "code": {
              "coding": [
                {
                  "system": "http://loinc.org",
                  "code": "48767-8",
                  "display": "Annotation comment"
                }
              ]
            },
            "title": "Annotation comment"
          }
        ],
        "status": "final",
        "subject": {
          "reference": "urn:uuid:7346cb44-1d34-469b-9ce7-a899fc81607a",
          "display": "Marthe Gallet"
        },
        "date": "2024-07-18T21:05:43Z",
        "title": "Laboratory Report",
        "confidentiality": "N"
      }
    },
    {
      "fullUrl": "urn:uuid:85f07939-d87d-4e92-bf0a-4178be61d381",
      "resource": {
        "resourceType": "DiagnosticReport",
        "id": "85f07939-d87d-4e92-bf0a-4178be61d381",
        "meta": {
          "profile": [
            "http://hl7.eu/fhir/laboratory/StructureDefinition/DiagnosticReport-eu-lab"
          ]
        },
        "identifier": [
          {
            "assigner": {
              "display": "HL7 Europe"
            },
            "system": "urn:oid:2.16.840.1.113883.2.51.999",
            "value": "c0e51235-7582-488b-97c2-fe9119f727aa"
          }
        ],
        "extension": [
          {
            "url": "http://hl7.org/fhir/5.0/StructureDefinition/extension-DiagnosticReport.composition",
            "valueReference": {
              "reference": "urn:uuid:d561961c-75a1-4796-9e43-e465d3858a52"
            }
          }
        ],
        "category": [
          {
            "coding": [
              {
                "code": "26436-6",
                "system": "http://loinc.org",
                "display": "Laboratory studies (set)"
              }
            ]
          }
        ],
        "specimen": [
          {
            "reference": "urn:uuid:7bbcc772-fe61-4e36-878b-40b4146b1c0a"
          },
          {
            "reference": "urn:uuid:e16b3ce7-de8d-4c54-a669-8d5477445642"
          }
        ],
        "result": [
          {
            "reference": "urn:uuid:63065d1c-f6df-4eb1-8a9d-031a8429ae54"
          },
          {
            "reference": "urn:uuid:6cd8876f-a7bf-420c-8db1-0a11f1b14295"
          },
          {
            "reference": "urn:uuid:0e77bce4-52be-451b-9c6c-9843843e93be"
          },
          {
            "reference": "urn:uuid:29c92aec-a25f-4ae8-ac12-1454fb0b6c41"
          },
          {
            "reference": "urn:uuid:d88eefc4-35f1-4bfd-91f2-c0185d10780a"
          },
          {
            "reference": "urn:uuid:0432a40b-07ae-4241-a308-4068e2bab51e"
          },
          {
            "reference": "urn:uuid:71e42608-2ef8-4c04-b1ea-077b9de96d6b"
          },
          {
            "reference": "urn:uuid:4c57446d-a839-4756-983e-c10726867a10"
          },
          {
            "reference": "urn:uuid:87ea6ecc-65a3-4935-b615-9e7a6eedc298"
          },
          {
            "reference": "urn:uuid:197e6f27-52f0-4dcd-bce6-5fe6c06fb7db"
          },
          {
            "reference": "urn:uuid:c7d6ea68-8956-47a9-a09b-a013cb003318"
          },
          {
            "reference": "urn:uuid:43c0b8aa-3bcf-40e8-bb14-c19d6835deea"
          },
          {
            "reference": "urn:uuid:0bf5653e-2726-46b6-9bde-69205d5f48e2"
          },
          {
            "reference": "urn:uuid:b645d1a1-0bee-4daa-b224-f8f0b0cbda96"
          },
          {
            "reference": "urn:uuid:51910a97-79ee-487f-91ea-a31389658c23"
          },
          {
            "reference": "urn:uuid:5c0912e8-c1f7-4e24-ac96-6f9b45bffc2f"
          },
          {
            "reference": "urn:uuid:60de3a38-f4c5-4dfe-ac71-e1112243ad73"
          },
          {
            "reference": "urn:uuid:8bd78cfd-3d3a-4557-9fe6-00c77d22c892"
          },
          {
            "reference": "urn:uuid:fc4eadda-df1c-459a-8479-b89b65ee047a"
          },
          {
            "reference": "urn:uuid:f0eb655e-0dd2-4215-b27f-9ca8e24b8d81"
          },
          {
            "reference": "urn:uuid:6e789e53-1e14-4d10-a7cf-724e5c4de504"
          },
          {
            "reference": "urn:uuid:17ec9ee9-87f7-4c15-a8bf-785d9953a6f7"
          },
          {
            "reference": "urn:uuid:9dd073ef-89ff-4aba-a1ac-911039fac613"
          },
          {
            "reference": "urn:uuid:d5346445-a166-4549-8210-746de86c320b"
          },
          {
            "reference": "urn:uuid:9bd2e8b0-1ff2-4028-995f-c849eafd010a"
          }
        ],
        "status": "registered",
        "code": {
          "coding": [
            {
              "code": "11502-2",
              "system": "http://loinc.org",
              "display": "Laboratory report"
            }
          ]
        },
        "subject": {
          "reference": "urn:uuid:7346cb44-1d34-469b-9ce7-a899fc81607a",
          "display": "Marthe Gallet"
        }
      }
    },
    {
      "fullUrl": "urn:uuid:7346cb44-1d34-469b-9ce7-a899fc81607a",
      "resource": {
        "resourceType": "Patient",
        "id": "7346cb44-1d34-469b-9ce7-a899fc81607a",
        "meta": {
          "security": [
            {
              "system": "http://terminology.hl7.org/CodeSystem/v3-ActReason",
              "code": "HTEST"
            },
            {
              "system": "http://terminology.hl7.org/CodeSystem/v3-ActReason",
              "code": "TRAIN"
            }
          ],
          "tag": [
            {
              "system": "https://synderai.net/fhir/CodeSystem/tags",
              "code": "synthetic",
              "display": "SYNDERAI Synthetic data"
            }
          ],
          "profile": [
            "http://hl7.eu/fhir/base/StructureDefinition/patient-eu-core"
          ]
        },
        "identifier": [
          {
            "type": {
              "coding": [
                {
                  "code": "PT",
                  "system": "http://terminology.hl7.org/CodeSystem/v2-0203"
                }
              ]
            },
            "system": "http://ec.europa.eu/identifier/eci",
            "value": "9444-947487-6"
          },
          {
            "type": {
              "coding": [
                {
                  "code": "MR",
                  "system": "http://terminology.hl7.org/CodeSystem/v2-0203"
                }
              ]
            },
            "system": "http://local.setting.eu/identifier",
            "value": "854228d5-a476-2d9c-a1d7-c3202375a617"
          }
        ],
        "name": [
          {
            "family": "Gallet"
          },
          {
            "given": [
              "Marthe"
            ]
          },
          {
            "text": "Marthe Gallet"
          }
        ],
        "address": [
          {
            "line": [
              "3, rue Emmanuel Goncalves"
            ],
            "use": "home",
            "type": "physical",
            "postalCode": "49490",
            "city": "Briand",
            "country": "France"
          }
        ],
        "telecom": [
          {
            "system": "phone",
            "value": "+33 1 70 99 82 74"
          }
        ],
        "extension": [
          {
            "url": "http://hl7.org/fhir/StructureDefinition/patient-nationality",
            "valueCodeableConcept": {
              "coding": [
                {
                  "code": "FR",
                  "system": "http://hl7.org/fhir/ValueSet/country"
                }
              ]
            }
          }
        ],
        "text": {
          "status": "generated",
          "div": "<div xmlns=\"http://www.w3.org/1999/xhtml\"><table class=\"hl7__ips\"><tr><td>Marthe Gallet</td><td>female</td><td>29-Oct-1950</td></tr></table></div>"
        },
        "gender": "female",
        "birthDate": "1950-10-29"
      }
    },
    {
      "fullUrl": "urn:uuid:5fcc9d28-9b5f-4d69-9579-486e0b0a5e33",
      "resource": {
        "resourceType": "ServiceRequest",
        "id": "5fcc9d28-9b5f-4d69-9579-486e0b0a5e33",
        "meta": {
          "profile": [
            "http://hl7.eu/fhir/laboratory/StructureDefinition/ServiceRequest-eu-lab"
          ]
        },
        "identifier": [
          {
            "system": "http://example.org",
            "value": "8415d6bd-99bb-4611-891e-39ea487059f1"
          }
        ],
        "specimen": [
          {
            "reference": "urn:uuid:7bbcc772-fe61-4e36-878b-40b4146b1c0a"
          },
          {
            "reference": "urn:uuid:e16b3ce7-de8d-4c54-a669-8d5477445642"
          }
        ],
        "reasonCode": [
          {
            "coding": [
              {
                "code": "431856006",
                "system": "http://snomed.info/sct",
                "display": "Chronic kidney disease stage 2"
              }
            ]
          },
          {
            "coding": [
              {
                "code": "90781000119102",
                "system": "http://snomed.info/sct",
                "display": "Microalbuminuria due to type 2 diabetes mellitus"
              }
            ]
          },
          {
            "coding": [
              {
                "code": "127013003",
                "system": "http://snomed.info/sct",
                "display": "Disorder of kidney due to diabetes mellitus"
              }
            ]
          },
          {
            "coding": [
              {
                "code": "431855005",
                "system": "http://snomed.info/sct",
                "display": "Chronic kidney disease stage 1"
              }
            ]
          },
          {
            "coding": [
              {
                "code": "55822004",
                "system": "http://snomed.info/sct",
                "display": "Hyperlipidemia"
              }
            ]
          },
          {
            "coding": [
              {
                "code": "59621000",
                "system": "http://snomed.info/sct",
                "display": "Essential hypertension"
              }
            ]
          }
        ],
        "status": "active",
        "intent": "order",
        "code": {
          "coding": [
            {
              "code": "108252007",
              "system": "http://snomed.info/sct",
              "display": "Laboratory procedure"
            }
          ]
        },
        "subject": {
          "reference": "urn:uuid:7346cb44-1d34-469b-9ce7-a899fc81607a",
          "display": "Marthe Gallet"
        },
        "requester": {
          "reference": "urn:uuid:fc5482ee-256a-4f92-94e7-1d6a83eabbf2"
        }
      }
    },
    {
      "fullUrl": "urn:uuid:fc5482ee-256a-4f92-94e7-1d6a83eabbf2",
      "resource": {
        "resourceType": "PractitionerRole",
        "id": "fc5482ee-256a-4f92-94e7-1d6a83eabbf2",
        "meta": {
          "profile": [
            "http://hl7.eu/fhir/base/StructureDefinition/practitionerRole-eu"
          ]
        },
        "text": {
          "status": "generated",
          "div": "<div xmlns=\"http://www.w3.org/1999/xhtml\">Provider Role Id: fc5482ee-256a-4f92-94e7-1d6a83eabbf2</div>"
        },
        "organization": {
          "reference": "urn:uuid:cfa293d2-6069-4a9d-ac1e-61e02a7bcf22"
        }
      }
    },
    {
      "fullUrl": "urn:uuid:cfa293d2-6069-4a9d-ac1e-61e02a7bcf22",
      "resource": {
        "resourceType": "Organization",
        "id": "cfa293d2-6069-4a9d-ac1e-61e02a7bcf22",
        "meta": {
          "profile": [
            "http://hl7.eu/fhir/base/StructureDefinition/organization-eu"
          ]
        },
        "identifier": [
          {
            "assigner": {
              "display": "HL7 Europe"
            },
            "system": "urn:oid:2.16.840.1.113883.2.51.999",
            "value": "e8a38934-de95-4109-bac6-3690bda1ea7a"
          }
        ],
        "address": [
          {
            "line": [
              "Rue Larrey nan"
            ],
            "city": "Angers",
            "postalCode": "49100",
            "country": "France"
          }
        ],
        "text": {
          "status": "generated",
          "div": "<div xmlns=\"http://www.w3.org/1999/xhtml\">Provider Organization: CHU d&#039;Angers</div>"
        },
        "name": "CHU d&#039;Angers"
      }
    },
    {
      "fullUrl": "urn:uuid:7bbcc772-fe61-4e36-878b-40b4146b1c0a",
      "resource": {
        "resourceType": "Specimen",
        "id": "7bbcc772-fe61-4e36-878b-40b4146b1c0a",
        "meta": {
          "profile": [
            "http://hl7.eu/fhir/laboratory/StructureDefinition/Specimen-eu-lab"
          ]
        },
        "collection": {
          "collectedDateTime": "2024-07-18"
        },
        "text": {
          "status": "generated",
          "div": "<div xmlns=\"http://www.w3.org/1999/xhtml\"><table class=\"hl7__eu__lab__report\"><tr><th>Specimen</th><th>Collection Date</th></tr><tr><td>Acellular blood (serum or plasma) specimen</td><td><span class=\"nb\">18-Jul-2024</span></td></tr></table></div>"
        },
        "type": {
          "coding": [
            {
              "code": "122592007",
              "system": "http://snomed.info/sct",
              "display": "Acellular blood (serum or plasma) specimen"
            }
          ]
        }
      }
    },
    {
      "fullUrl": "urn:uuid:e16b3ce7-de8d-4c54-a669-8d5477445642",
      "resource": {
        "resourceType": "Specimen",
        "id": "e16b3ce7-de8d-4c54-a669-8d5477445642",
        "meta": {
          "profile": [
            "http://hl7.eu/fhir/laboratory/StructureDefinition/Specimen-eu-lab"
          ]
        },
        "collection": {
          "collectedDateTime": "2024-07-18"
        },
        "text": {
          "status": "generated",
          "div": "<div xmlns=\"http://www.w3.org/1999/xhtml\"><table class=\"hl7__eu__lab__report\"><tr><th>Specimen</th><th>Collection Date</th></tr><tr><td>Urine specimen</td><td><span class=\"nb\">18-Jul-2024</span></td></tr></table></div>"
        },
        "type": {
          "coding": [
            {
              "code": "122575003",
              "system": "http://snomed.info/sct",
              "display": "Urine specimen"
            }
          ]
        }
      }
    },
    {
      "fullUrl": "urn:uuid:63065d1c-f6df-4eb1-8a9d-031a8429ae54",
      "resource": {
        "resourceType": "Observation",
        "id": "63065d1c-f6df-4eb1-8a9d-031a8429ae54",
        "meta": {
          "profile": [
            "http://hl7.eu/fhir/laboratory/StructureDefinition/Observation-resultslab-eu-lab"
          ]
        },
        "performer": [
          {
            "display": "The Central European Lab"
          }
        ],
        "category": [
          {
            "coding": [
              {
                "system": "http://terminology.hl7.org/CodeSystem/observation-category",
                "code": "laboratory"
              }
            ]
          }
        ],
        "code": {
          "coding": [
            {
              "code": "2345-7",
              "system": "http://loinc.org",
              "display": "Glucose [Mass/volume] in Serum or Plasma"
            }
          ],
          "text": "Glucose [Mass/volume] in Serum or Plasma"
        },
        "valueQuantity": {
          "system": "http://unitsofmeasure.org",
          "value": 65.8,
          "unit": "mg/dL",
          "code": "mg/dL"
        },
        "referenceRange": [
          {
            "low": {
              "value": 70,
              "code": "mg/dL",
              "system": "http://unitsofmeasure.org"
            }
          },
          {
            "high": {
              "value": 140,
              "code": "mg/dL",
              "system": "http://unitsofmeasure.org"
            }
          }
        ],
        "interpretation": [
          {
            "coding": [
              {
                "code": "L",
                "system": "http://terminology.hl7.org/CodeSystem/v3-ObservationInterpretation",
                "display": "Low"
              }
            ]
          }
        ],
        "text": {
          "status": "generated",
          "div": "<div xmlns=\"http://www.w3.org/1999/xhtml\"><table class=\"hl7__eu__lab__report\"><tr><th>Test</th><th>18-Jul-2024</th><th>Reference&#xA0;Range</th><th>Unit</th></tr><tr><td>Glucose [Mass/volume] in Serum or Plasma</td><td>65.8</td><td>70 - 140</td><td>L</td><td>mg/dL</td></tr></table></div>"
        },
        "status": "final",
        "subject": {
          "reference": "urn:uuid:7346cb44-1d34-469b-9ce7-a899fc81607a",
          "display": "Marthe Gallet"
        },
        "effectiveDateTime": "2024-07-18T19:05:43Z",
        "specimen": {
          "reference": "urn:uuid:7bbcc772-fe61-4e36-878b-40b4146b1c0a"
        }
      }
    },
    {
      "fullUrl": "urn:uuid:6cd8876f-a7bf-420c-8db1-0a11f1b14295",
      "resource": {
        "resourceType": "Observation",
        "id": "6cd8876f-a7bf-420c-8db1-0a11f1b14295",
        "meta": {
          "profile": [
            "http://hl7.eu/fhir/laboratory/StructureDefinition/Observation-resultslab-eu-lab"
          ]
        },
        "performer": [
          {
            "display": "The Central European Lab"
          }
        ],
        "category": [
          {
            "coding": [
              {
                "system": "http://terminology.hl7.org/CodeSystem/observation-category",
                "code": "laboratory"
              }
            ]
          }
        ],
        "code": {
          "coding": [
            {
              "code": "3094-0",
              "system": "http://loinc.org",
              "display": "Urea nitrogen [Mass/volume] in Serum or Plasma"
            }
          ],
          "text": "Urea nitrogen [Mass/volume] in Serum or Plasma"
        },
        "valueQuantity": {
          "system": "http://unitsofmeasure.org",
          "value": 16.1,
          "unit": "mg/dL",
          "code": "mg/dL"
        },
        "referenceRange": [
          {
            "low": {
              "value": 7,
              "code": "mg/dL",
              "system": "http://unitsofmeasure.org"
            }
          },
          {
            "high": {
              "value": 50,
              "code": "mg/dL",
              "system": "http://unitsofmeasure.org"
            }
          }
        ],
        "text": {
          "status": "generated",
          "div": "<div xmlns=\"http://www.w3.org/1999/xhtml\"><table class=\"hl7__eu__lab__report\"><tr><th>Test</th><th>18-Jul-2024</th><th>Reference&#xA0;Range</th><th>Unit</th></tr><tr><td>Urea nitrogen [Mass/volume] in Serum or Plasma</td><td>16.1</td><td>7 - 50</td><td></td><td>mg/dL</td></tr></table></div>"
        },
        "status": "final",
        "subject": {
          "reference": "urn:uuid:7346cb44-1d34-469b-9ce7-a899fc81607a",
          "display": "Marthe Gallet"
        },
        "effectiveDateTime": "2024-07-18T19:05:43Z",
        "specimen": {
          "reference": "urn:uuid:7bbcc772-fe61-4e36-878b-40b4146b1c0a"
        }
      }
    },
    {
      "fullUrl": "urn:uuid:0e77bce4-52be-451b-9c6c-9843843e93be",
      "resource": {
        "resourceType": "Observation",
        "id": "0e77bce4-52be-451b-9c6c-9843843e93be",
        "meta": {
          "profile": [
            "http://hl7.eu/fhir/laboratory/StructureDefinition/Observation-resultslab-eu-lab"
          ]
        },
        "performer": [
          {
            "display": "The Central European Lab"
          }
        ],
        "category": [
          {
            "coding": [
              {
                "system": "http://terminology.hl7.org/CodeSystem/observation-category",
                "code": "laboratory"
              }
            ]
          }
        ],
        "code": {
          "coding": [
            {
              "code": "2160-0",
              "system": "http://loinc.org",
              "display": "Creatinine [Mass/volume] in Serum or Plasma"
            }
          ],
          "text": "Creatinine [Mass/volume] in Serum or Plasma"
        },
        "valueQuantity": {
          "system": "http://unitsofmeasure.org",
          "value": 2.1,
          "unit": "mg/dL",
          "code": "mg/dL"
        },
        "referenceRange": [
          {
            "low": {
              "value": 0.6,
              "code": "mg/dL",
              "system": "http://unitsofmeasure.org"
            }
          },
          {
            "high": {
              "value": 1.1,
              "code": "mg/dL",
              "system": "http://unitsofmeasure.org"
            }
          }
        ],
        "interpretation": [
          {
            "coding": [
              {
                "code": "H",
                "system": "http://terminology.hl7.org/CodeSystem/v3-ObservationInterpretation",
                "display": "High"
              }
            ]
          }
        ],
        "text": {
          "status": "generated",
          "div": "<div xmlns=\"http://www.w3.org/1999/xhtml\"><table class=\"hl7__eu__lab__report\"><tr><th>Test</th><th>18-Jul-2024</th><th>Reference&#xA0;Range</th><th>Unit</th></tr><tr><td>Creatinine [Mass/volume] in Serum or Plasma</td><td>2.1</td><td>0.6 - 1.1</td><td>H</td><td>mg/dL</td></tr></table></div>"
        },
        "status": "final",
        "subject": {
          "reference": "urn:uuid:7346cb44-1d34-469b-9ce7-a899fc81607a",
          "display": "Marthe Gallet"
        },
        "effectiveDateTime": "2024-07-18T19:05:43Z",
        "specimen": {
          "reference": "urn:uuid:7bbcc772-fe61-4e36-878b-40b4146b1c0a"
        }
      }
    },
    {
      "fullUrl": "urn:uuid:29c92aec-a25f-4ae8-ac12-1454fb0b6c41",
      "resource": {
        "resourceType": "Observation",
        "id": "29c92aec-a25f-4ae8-ac12-1454fb0b6c41",
        "meta": {
          "profile": [
            "http://hl7.eu/fhir/laboratory/StructureDefinition/Observation-resultslab-eu-lab"
          ]
        },
        "performer": [
          {
            "display": "The Central European Lab"
          }
        ],
        "category": [
          {
            "coding": [
              {
                "system": "http://terminology.hl7.org/CodeSystem/observation-category",
                "code": "laboratory"
              }
            ]
          }
        ],
        "code": {
          "coding": [
            {
              "code": "17861-6",
              "system": "http://loinc.org",
              "display": "Calcium [Mass/volume] in Serum or Plasma"
            }
          ],
          "text": "Calcium [Mass/volume] in Serum or Plasma"
        },
        "valueQuantity": {
          "system": "http://unitsofmeasure.org",
          "value": 9.9,
          "unit": "mg/dL",
          "code": "mg/dL"
        },
        "referenceRange": [
          {
            "low": {
              "value": 8.5,
              "code": "mg/dL",
              "system": "http://unitsofmeasure.org"
            }
          },
          {
            "high": {
              "value": 10.5,
              "code": "mg/dL",
              "system": "http://unitsofmeasure.org"
            }
          }
        ],
        "text": {
          "status": "generated",
          "div": "<div xmlns=\"http://www.w3.org/1999/xhtml\"><table class=\"hl7__eu__lab__report\"><tr><th>Test</th><th>18-Jul-2024</th><th>Reference&#xA0;Range</th><th>Unit</th></tr><tr><td>Calcium [Mass/volume] in Serum or Plasma</td><td>9.9</td><td>8.5 - 10.5</td><td></td><td>mg/dL</td></tr></table></div>"
        },
        "status": "final",
        "subject": {
          "reference": "urn:uuid:7346cb44-1d34-469b-9ce7-a899fc81607a",
          "display": "Marthe Gallet"
        },
        "effectiveDateTime": "2024-07-18T19:05:43Z",
        "specimen": {
          "reference": "urn:uuid:7bbcc772-fe61-4e36-878b-40b4146b1c0a"
        }
      }
    },
    {
      "fullUrl": "urn:uuid:d88eefc4-35f1-4bfd-91f2-c0185d10780a",
      "resource": {
        "resourceType": "Observation",
        "id": "d88eefc4-35f1-4bfd-91f2-c0185d10780a",
        "meta": {
          "profile": [
            "http://hl7.eu/fhir/laboratory/StructureDefinition/Observation-resultslab-eu-lab"
          ]
        },
        "performer": [
          {
            "display": "The Central European Lab"
          }
        ],
        "category": [
          {
            "coding": [
              {
                "system": "http://terminology.hl7.org/CodeSystem/observation-category",
                "code": "laboratory"
              }
            ]
          }
        ],
        "code": {
          "coding": [
            {
              "code": "2951-2",
              "system": "http://loinc.org",
              "display": "Sodium [Moles/volume] in Serum or Plasma"
            }
          ],
          "text": "Sodium [Moles/volume] in Serum or Plasma"
        },
        "valueQuantity": {
          "system": "http://unitsofmeasure.org",
          "value": 140.8,
          "unit": "mmol/L",
          "code": "mmol/L"
        },
        "referenceRange": [
          {
            "low": {
              "value": 135,
              "code": "mmol/L",
              "system": "http://unitsofmeasure.org"
            }
          },
          {
            "high": {
              "value": 145,
              "code": "mmol/L",
              "system": "http://unitsofmeasure.org"
            }
          }
        ],
        "text": {
          "status": "generated",
          "div": "<div xmlns=\"http://www.w3.org/1999/xhtml\"><table class=\"hl7__eu__lab__report\"><tr><th>Test</th><th>18-Jul-2024</th><th>Reference&#xA0;Range</th><th>Unit</th></tr><tr><td>Sodium [Moles/volume] in Serum or Plasma</td><td>140.8</td><td>135 - 145</td><td></td><td>mmol/L</td></tr></table></div>"
        },
        "status": "final",
        "subject": {
          "reference": "urn:uuid:7346cb44-1d34-469b-9ce7-a899fc81607a",
          "display": "Marthe Gallet"
        },
        "effectiveDateTime": "2024-07-18T19:05:43Z",
        "specimen": {
          "reference": "urn:uuid:7bbcc772-fe61-4e36-878b-40b4146b1c0a"
        }
      }
    },
    {
      "fullUrl": "urn:uuid:0432a40b-07ae-4241-a308-4068e2bab51e",
      "resource": {
        "resourceType": "Observation",
        "id": "0432a40b-07ae-4241-a308-4068e2bab51e",
        "meta": {
          "profile": [
            "http://hl7.eu/fhir/laboratory/StructureDefinition/Observation-resultslab-eu-lab"
          ]
        },
        "performer": [
          {
            "display": "The Central European Lab"
          }
        ],
        "category": [
          {
            "coding": [
              {
                "system": "http://terminology.hl7.org/CodeSystem/observation-category",
                "code": "laboratory"
              }
            ]
          }
        ],
        "code": {
          "coding": [
            {
              "code": "2823-3",
              "system": "http://loinc.org",
              "display": "Potassium [Moles/volume] in Serum or Plasma"
            }
          ],
          "text": "Potassium [Moles/volume] in Serum or Plasma"
        },
        "valueQuantity": {
          "system": "http://unitsofmeasure.org",
          "value": 4.6,
          "unit": "mmol/L",
          "code": "mmol/L"
        },
        "referenceRange": [
          {
            "low": {
              "value": 3.5,
              "code": "mmol/L",
              "system": "http://unitsofmeasure.org"
            }
          },
          {
            "high": {
              "value": 5.1,
              "code": "mmol/L",
              "system": "http://unitsofmeasure.org"
            }
          }
        ],
        "text": {
          "status": "generated",
          "div": "<div xmlns=\"http://www.w3.org/1999/xhtml\"><table class=\"hl7__eu__lab__report\"><tr><th>Test</th><th>18-Jul-2024</th><th>Reference&#xA0;Range</th><th>Unit</th></tr><tr><td>Potassium [Moles/volume] in Serum or Plasma</td><td>4.6</td><td>3.5 - 5.1</td><td></td><td>mmol/L</td></tr></table></div>"
        },
        "status": "final",
        "subject": {
          "reference": "urn:uuid:7346cb44-1d34-469b-9ce7-a899fc81607a",
          "display": "Marthe Gallet"
        },
        "effectiveDateTime": "2024-07-18T19:05:43Z",
        "specimen": {
          "reference": "urn:uuid:7bbcc772-fe61-4e36-878b-40b4146b1c0a"
        }
      }
    },
    {
      "fullUrl": "urn:uuid:71e42608-2ef8-4c04-b1ea-077b9de96d6b",
      "resource": {
        "resourceType": "Observation",
        "id": "71e42608-2ef8-4c04-b1ea-077b9de96d6b",
        "meta": {
          "profile": [
            "http://hl7.eu/fhir/laboratory/StructureDefinition/Observation-resultslab-eu-lab"
          ]
        },
        "performer": [
          {
            "display": "The Central European Lab"
          }
        ],
        "category": [
          {
            "coding": [
              {
                "system": "http://terminology.hl7.org/CodeSystem/observation-category",
                "code": "laboratory"
              }
            ]
          }
        ],
        "code": {
          "coding": [
            {
              "code": "2075-0",
              "system": "http://loinc.org",
              "display": "Chloride [Moles/volume] in Serum or Plasma"
            }
          ],
          "text": "Chloride [Moles/volume] in Serum or Plasma"
        },
        "valueQuantity": {
          "system": "http://unitsofmeasure.org",
          "value": 107,
          "unit": "mmol/L",
          "code": "mmol/L"
        },
        "referenceRange": [
          {
            "low": {
              "value": 98,
              "code": "mmol/L",
              "system": "http://unitsofmeasure.org"
            }
          },
          {
            "high": {
              "value": 108,
              "code": "mmol/L",
              "system": "http://unitsofmeasure.org"
            }
          }
        ],
        "text": {
          "status": "generated",
          "div": "<div xmlns=\"http://www.w3.org/1999/xhtml\"><table class=\"hl7__eu__lab__report\"><tr><th>Test</th><th>18-Jul-2024</th><th>Reference&#xA0;Range</th><th>Unit</th></tr><tr><td>Chloride [Moles/volume] in Serum or Plasma</td><td>107.0</td><td>98 - 108</td><td></td><td>mmol/L</td></tr></table></div>"
        },
        "status": "final",
        "subject": {
          "reference": "urn:uuid:7346cb44-1d34-469b-9ce7-a899fc81607a",
          "display": "Marthe Gallet"
        },
        "effectiveDateTime": "2024-07-18T19:05:43Z",
        "specimen": {
          "reference": "urn:uuid:7bbcc772-fe61-4e36-878b-40b4146b1c0a"
        }
      }
    },
    {
      "fullUrl": "urn:uuid:4c57446d-a839-4756-983e-c10726867a10",
      "resource": {
        "resourceType": "Observation",
        "id": "4c57446d-a839-4756-983e-c10726867a10",
        "meta": {
          "profile": [
            "http://hl7.eu/fhir/laboratory/StructureDefinition/Observation-resultslab-eu-lab"
          ]
        },
        "performer": [
          {
            "display": "The Central European Lab"
          }
        ],
        "category": [
          {
            "coding": [
              {
                "system": "http://terminology.hl7.org/CodeSystem/observation-category",
                "code": "laboratory"
              }
            ]
          }
        ],
        "code": {
          "coding": [
            {
              "code": "2028-9",
              "system": "http://loinc.org",
              "display": "Carbon dioxide, total [Moles/volume] in Serum or Plasma"
            }
          ],
          "text": "Carbon dioxide, total [Moles/volume] in Serum or Plasma"
        },
        "valueQuantity": {
          "system": "http://unitsofmeasure.org",
          "value": 23.8,
          "unit": "mmol/L",
          "code": "mmol/L"
        },
        "referenceRange": [
          {
            "low": {
              "value": 22,
              "code": "mmol/L",
              "system": "http://unitsofmeasure.org"
            }
          },
          {
            "high": {
              "value": 32,
              "code": "mmol/L",
              "system": "http://unitsofmeasure.org"
            }
          }
        ],
        "text": {
          "status": "generated",
          "div": "<div xmlns=\"http://www.w3.org/1999/xhtml\"><table class=\"hl7__eu__lab__report\"><tr><th>Test</th><th>18-Jul-2024</th><th>Reference&#xA0;Range</th><th>Unit</th></tr><tr><td>Carbon dioxide, total [Moles/volume] in Serum or Plasma</td><td>23.8</td><td>22 - 32</td><td></td><td>mmol/L</td></tr></table></div>"
        },
        "status": "final",
        "subject": {
          "reference": "urn:uuid:7346cb44-1d34-469b-9ce7-a899fc81607a",
          "display": "Marthe Gallet"
        },
        "effectiveDateTime": "2024-07-18T19:05:43Z",
        "specimen": {
          "reference": "urn:uuid:7bbcc772-fe61-4e36-878b-40b4146b1c0a"
        }
      }
    },
    {
      "fullUrl": "urn:uuid:87ea6ecc-65a3-4935-b615-9e7a6eedc298",
      "resource": {
        "resourceType": "Observation",
        "id": "87ea6ecc-65a3-4935-b615-9e7a6eedc298",
        "meta": {
          "profile": [
            "http://hl7.eu/fhir/laboratory/StructureDefinition/Observation-resultslab-eu-lab"
          ]
        },
        "performer": [
          {
            "display": "The Central European Lab"
          }
        ],
        "category": [
          {
            "coding": [
              {
                "system": "http://terminology.hl7.org/CodeSystem/observation-category",
                "code": "laboratory"
              }
            ]
          }
        ],
        "code": {
          "coding": [
            {
              "code": "5767-9",
              "system": "http://loinc.org",
              "display": "Appearance of Urine"
            }
          ],
          "text": "Appearance of Urine"
        },
        "text": {
          "status": "generated",
          "div": "<div xmlns=\"http://www.w3.org/1999/xhtml\"><table class=\"hl7__eu__lab__report\"><tr><th>Test</th><th>18-Jul-2024</th><th>Reference&#xA0;Range</th><th>Unit</th></tr><tr><td>Appearance of Urine</td></tr></table></div>"
        },
        "status": "final",
        "subject": {
          "reference": "urn:uuid:7346cb44-1d34-469b-9ce7-a899fc81607a",
          "display": "Marthe Gallet"
        },
        "effectiveDateTime": "2024-07-18T19:05:43Z",
        "specimen": {
          "reference": "urn:uuid:e16b3ce7-de8d-4c54-a669-8d5477445642"
        }
      }
    },
    {
      "fullUrl": "urn:uuid:197e6f27-52f0-4dcd-bce6-5fe6c06fb7db",
      "resource": {
        "resourceType": "Observation",
        "id": "197e6f27-52f0-4dcd-bce6-5fe6c06fb7db",
        "meta": {
          "profile": [
            "http://hl7.eu/fhir/laboratory/StructureDefinition/Observation-resultslab-eu-lab"
          ]
        },
        "performer": [
          {
            "display": "The Central European Lab"
          }
        ],
        "category": [
          {
            "coding": [
              {
                "system": "http://terminology.hl7.org/CodeSystem/observation-category",
                "code": "laboratory"
              }
            ]
          }
        ],
        "code": {
          "coding": [
            {
              "code": "34533-0",
              "system": "http://loinc.org",
              "display": "Odor of Urine"
            }
          ],
          "text": "Odor of Urine"
        },
        "text": {
          "status": "generated",
          "div": "<div xmlns=\"http://www.w3.org/1999/xhtml\"><table class=\"hl7__eu__lab__report\"><tr><th>Test</th><th>18-Jul-2024</th><th>Reference&#xA0;Range</th><th>Unit</th></tr><tr><td>Odor of Urine</td></tr></table></div>"
        },
        "status": "final",
        "subject": {
          "reference": "urn:uuid:7346cb44-1d34-469b-9ce7-a899fc81607a",
          "display": "Marthe Gallet"
        },
        "effectiveDateTime": "2024-07-18T19:05:43Z",
        "specimen": {
          "reference": "urn:uuid:e16b3ce7-de8d-4c54-a669-8d5477445642"
        }
      }
    },
    {
      "fullUrl": "urn:uuid:c7d6ea68-8956-47a9-a09b-a013cb003318",
      "resource": {
        "resourceType": "Observation",
        "id": "c7d6ea68-8956-47a9-a09b-a013cb003318",
        "meta": {
          "profile": [
            "http://hl7.eu/fhir/laboratory/StructureDefinition/Observation-resultslab-eu-lab"
          ]
        },
        "performer": [
          {
            "display": "The Central European Lab"
          }
        ],
        "category": [
          {
            "coding": [
              {
                "system": "http://terminology.hl7.org/CodeSystem/observation-category",
                "code": "laboratory"
              }
            ]
          }
        ],
        "code": {
          "coding": [
            {
              "code": "32167-9",
              "system": "http://loinc.org",
              "display": "Clarity of Urine"
            }
          ],
          "text": "Clarity of Urine"
        },
        "text": {
          "status": "generated",
          "div": "<div xmlns=\"http://www.w3.org/1999/xhtml\"><table class=\"hl7__eu__lab__report\"><tr><th>Test</th><th>18-Jul-2024</th><th>Reference&#xA0;Range</th><th>Unit</th></tr><tr><td>Clarity of Urine</td></tr></table></div>"
        },
        "status": "final",
        "subject": {
          "reference": "urn:uuid:7346cb44-1d34-469b-9ce7-a899fc81607a",
          "display": "Marthe Gallet"
        },
        "effectiveDateTime": "2024-07-18T19:05:43Z",
        "specimen": {
          "reference": "urn:uuid:e16b3ce7-de8d-4c54-a669-8d5477445642"
        }
      }
    },
    {
      "fullUrl": "urn:uuid:43c0b8aa-3bcf-40e8-bb14-c19d6835deea",
      "resource": {
        "resourceType": "Observation",
        "id": "43c0b8aa-3bcf-40e8-bb14-c19d6835deea",
        "meta": {
          "profile": [
            "http://hl7.eu/fhir/laboratory/StructureDefinition/Observation-resultslab-eu-lab"
          ]
        },
        "performer": [
          {
            "display": "The Central European Lab"
          }
        ],
        "category": [
          {
            "coding": [
              {
                "system": "http://terminology.hl7.org/CodeSystem/observation-category",
                "code": "laboratory"
              }
            ]
          }
        ],
        "code": {
          "coding": [
            {
              "code": "5778-6",
              "system": "http://loinc.org",
              "display": "Color of Urine"
            }
          ],
          "text": "Color of Urine"
        },
        "text": {
          "status": "generated",
          "div": "<div xmlns=\"http://www.w3.org/1999/xhtml\"><table class=\"hl7__eu__lab__report\"><tr><th>Test</th><th>18-Jul-2024</th><th>Reference&#xA0;Range</th><th>Unit</th></tr><tr><td>Color of Urine</td></tr></table></div>"
        },
        "status": "final",
        "subject": {
          "reference": "urn:uuid:7346cb44-1d34-469b-9ce7-a899fc81607a",
          "display": "Marthe Gallet"
        },
        "effectiveDateTime": "2024-07-18T19:05:43Z",
        "specimen": {
          "reference": "urn:uuid:e16b3ce7-de8d-4c54-a669-8d5477445642"
        }
      }
    },
    {
      "fullUrl": "urn:uuid:0bf5653e-2726-46b6-9bde-69205d5f48e2",
      "resource": {
        "resourceType": "Observation",
        "id": "0bf5653e-2726-46b6-9bde-69205d5f48e2",
        "meta": {
          "profile": [
            "http://hl7.eu/fhir/laboratory/StructureDefinition/Observation-resultslab-eu-lab"
          ]
        },
        "performer": [
          {
            "display": "The Central European Lab"
          }
        ],
        "category": [
          {
            "coding": [
              {
                "system": "http://terminology.hl7.org/CodeSystem/observation-category",
                "code": "laboratory"
              }
            ]
          }
        ],
        "code": {
          "coding": [
            {
              "code": "5792-7",
              "system": "http://loinc.org",
              "display": "Glucose [Mass/volume] in Urine by Test strip"
            }
          ],
          "text": "Glucose [Mass/volume] in Urine by Test strip"
        },
        "valueQuantity": {
          "system": "http://unitsofmeasure.org",
          "value": 1.9,
          "unit": "mg/dL",
          "code": "mg/dL"
        },
        "referenceRange": [
          {
            "low": {
              "value": 0.8,
              "code": "mg/dL",
              "system": "http://unitsofmeasure.org"
            }
          },
          {
            "high": {
              "value": 0,
              "code": "mg/dL",
              "system": "http://unitsofmeasure.org"
            }
          }
        ],
        "interpretation": [
          {
            "coding": [
              {
                "code": "H",
                "system": "http://terminology.hl7.org/CodeSystem/v3-ObservationInterpretation",
                "display": "High"
              }
            ]
          }
        ],
        "text": {
          "status": "generated",
          "div": "<div xmlns=\"http://www.w3.org/1999/xhtml\"><table class=\"hl7__eu__lab__report\"><tr><th>Test</th><th>18-Jul-2024</th><th>Reference&#xA0;Range</th><th>Unit</th></tr><tr><td>Glucose [Mass/volume] in Urine by Test strip</td><td>1.9</td><td>0.8 - 0</td><td>H</td><td>mg/dL</td></tr></table></div>"
        },
        "status": "final",
        "subject": {
          "reference": "urn:uuid:7346cb44-1d34-469b-9ce7-a899fc81607a",
          "display": "Marthe Gallet"
        },
        "effectiveDateTime": "2024-07-18T19:05:43Z",
        "specimen": {
          "reference": "urn:uuid:e16b3ce7-de8d-4c54-a669-8d5477445642"
        }
      }
    },
    {
      "fullUrl": "urn:uuid:b645d1a1-0bee-4daa-b224-f8f0b0cbda96",
      "resource": {
        "resourceType": "Observation",
        "id": "b645d1a1-0bee-4daa-b224-f8f0b0cbda96",
        "meta": {
          "profile": [
            "http://hl7.eu/fhir/laboratory/StructureDefinition/Observation-resultslab-eu-lab"
          ]
        },
        "performer": [
          {
            "display": "The Central European Lab"
          }
        ],
        "category": [
          {
            "coding": [
              {
                "system": "http://terminology.hl7.org/CodeSystem/observation-category",
                "code": "laboratory"
              }
            ]
          }
        ],
        "code": {
          "coding": [
            {
              "code": "25428-4",
              "system": "http://loinc.org",
              "display": "Glucose [Presence] in Urine by Test strip"
            }
          ],
          "text": "Glucose [Presence] in Urine by Test strip"
        },
        "text": {
          "status": "generated",
          "div": "<div xmlns=\"http://www.w3.org/1999/xhtml\"><table class=\"hl7__eu__lab__report\"><tr><th>Test</th><th>18-Jul-2024</th><th>Reference&#xA0;Range</th><th>Unit</th></tr><tr><td>Glucose [Presence] in Urine by Test strip</td></tr></table></div>"
        },
        "status": "final",
        "subject": {
          "reference": "urn:uuid:7346cb44-1d34-469b-9ce7-a899fc81607a",
          "display": "Marthe Gallet"
        },
        "effectiveDateTime": "2024-07-18T19:05:43Z",
        "specimen": {
          "reference": "urn:uuid:e16b3ce7-de8d-4c54-a669-8d5477445642"
        }
      }
    },
    {
      "fullUrl": "urn:uuid:51910a97-79ee-487f-91ea-a31389658c23",
      "resource": {
        "resourceType": "Observation",
        "id": "51910a97-79ee-487f-91ea-a31389658c23",
        "meta": {
          "profile": [
            "http://hl7.eu/fhir/laboratory/StructureDefinition/Observation-resultslab-eu-lab"
          ]
        },
        "performer": [
          {
            "display": "The Central European Lab"
          }
        ],
        "category": [
          {
            "coding": [
              {
                "system": "http://terminology.hl7.org/CodeSystem/observation-category",
                "code": "laboratory"
              }
            ]
          }
        ],
        "code": {
          "coding": [
            {
              "code": "20505-4",
              "system": "http://loinc.org",
              "display": "Bilirubin.total [Mass/volume] in Urine by Test strip"
            }
          ],
          "text": "Bilirubin.total [Mass/volume] in Urine by Test strip"
        },
        "valueQuantity": {
          "system": "http://unitsofmeasure.org",
          "value": 1.1,
          "unit": "mg/dL",
          "code": "mg/dL"
        },
        "referenceRange": [
          {
            "low": {
              "value": 0,
              "code": "mg/dL",
              "system": "http://unitsofmeasure.org"
            }
          },
          {
            "high": {
              "value": 1,
              "code": "mg/dL",
              "system": "http://unitsofmeasure.org"
            }
          }
        ],
        "interpretation": [
          {
            "coding": [
              {
                "code": "H",
                "system": "http://terminology.hl7.org/CodeSystem/v3-ObservationInterpretation",
                "display": "High"
              }
            ]
          }
        ],
        "text": {
          "status": "generated",
          "div": "<div xmlns=\"http://www.w3.org/1999/xhtml\"><table class=\"hl7__eu__lab__report\"><tr><th>Test</th><th>18-Jul-2024</th><th>Reference&#xA0;Range</th><th>Unit</th></tr><tr><td>Bilirubin.total [Mass/volume] in Urine by Test strip</td><td>1.1</td><td>0 - 1</td><td>H</td><td>mg/dL</td></tr></table></div>"
        },
        "status": "final",
        "subject": {
          "reference": "urn:uuid:7346cb44-1d34-469b-9ce7-a899fc81607a",
          "display": "Marthe Gallet"
        },
        "effectiveDateTime": "2024-07-18T19:05:43Z",
        "specimen": {
          "reference": "urn:uuid:e16b3ce7-de8d-4c54-a669-8d5477445642"
        }
      }
    },
    {
      "fullUrl": "urn:uuid:5c0912e8-c1f7-4e24-ac96-6f9b45bffc2f",
      "resource": {
        "resourceType": "Observation",
        "id": "5c0912e8-c1f7-4e24-ac96-6f9b45bffc2f",
        "meta": {
          "profile": [
            "http://hl7.eu/fhir/laboratory/StructureDefinition/Observation-resultslab-eu-lab"
          ]
        },
        "performer": [
          {
            "display": "The Central European Lab"
          }
        ],
        "category": [
          {
            "coding": [
              {
                "system": "http://terminology.hl7.org/CodeSystem/observation-category",
                "code": "laboratory"
              }
            ]
          }
        ],
        "code": {
          "coding": [
            {
              "code": "5770-3",
              "system": "http://loinc.org",
              "display": "Bilirubin.total [Presence] in Urine by Test strip"
            }
          ],
          "text": "Bilirubin.total [Presence] in Urine by Test strip"
        },
        "text": {
          "status": "generated",
          "div": "<div xmlns=\"http://www.w3.org/1999/xhtml\"><table class=\"hl7__eu__lab__report\"><tr><th>Test</th><th>18-Jul-2024</th><th>Reference&#xA0;Range</th><th>Unit</th></tr><tr><td>Bilirubin.total [Presence] in Urine by Test strip</td></tr></table></div>"
        },
        "status": "final",
        "subject": {
          "reference": "urn:uuid:7346cb44-1d34-469b-9ce7-a899fc81607a",
          "display": "Marthe Gallet"
        },
        "effectiveDateTime": "2024-07-18T19:05:43Z",
        "specimen": {
          "reference": "urn:uuid:e16b3ce7-de8d-4c54-a669-8d5477445642"
        }
      }
    },
    {
      "fullUrl": "urn:uuid:60de3a38-f4c5-4dfe-ac71-e1112243ad73",
      "resource": {
        "resourceType": "Observation",
        "id": "60de3a38-f4c5-4dfe-ac71-e1112243ad73",
        "meta": {
          "profile": [
            "http://hl7.eu/fhir/laboratory/StructureDefinition/Observation-resultslab-eu-lab"
          ]
        },
        "performer": [
          {
            "display": "The Central European Lab"
          }
        ],
        "category": [
          {
            "coding": [
              {
                "system": "http://terminology.hl7.org/CodeSystem/observation-category",
                "code": "laboratory"
              }
            ]
          }
        ],
        "code": {
          "coding": [
            {
              "code": "5797-6",
              "system": "http://loinc.org",
              "display": "Ketones [Mass/volume] in Urine by Test strip"
            }
          ],
          "text": "Ketones [Mass/volume] in Urine by Test strip"
        },
        "valueQuantity": {
          "system": "http://unitsofmeasure.org",
          "value": 7.4,
          "unit": "mg/dL",
          "code": "mg/dL"
        },
        "referenceRange": [
          {
            "low": {
              "value": 0,
              "code": "mg/dL",
              "system": "http://unitsofmeasure.org"
            }
          },
          {
            "high": {
              "value": 20,
              "code": "mg/dL",
              "system": "http://unitsofmeasure.org"
            }
          }
        ],
        "text": {
          "status": "generated",
          "div": "<div xmlns=\"http://www.w3.org/1999/xhtml\"><table class=\"hl7__eu__lab__report\"><tr><th>Test</th><th>18-Jul-2024</th><th>Reference&#xA0;Range</th><th>Unit</th></tr><tr><td>Ketones [Mass/volume] in Urine by Test strip</td><td>7.4</td><td>0 - 20</td><td></td><td>mg/dL</td></tr></table></div>"
        },
        "status": "final",
        "subject": {
          "reference": "urn:uuid:7346cb44-1d34-469b-9ce7-a899fc81607a",
          "display": "Marthe Gallet"
        },
        "effectiveDateTime": "2024-07-18T19:05:43Z",
        "specimen": {
          "reference": "urn:uuid:e16b3ce7-de8d-4c54-a669-8d5477445642"
        }
      }
    },
    {
      "fullUrl": "urn:uuid:8bd78cfd-3d3a-4557-9fe6-00c77d22c892",
      "resource": {
        "resourceType": "Observation",
        "id": "8bd78cfd-3d3a-4557-9fe6-00c77d22c892",
        "meta": {
          "profile": [
            "http://hl7.eu/fhir/laboratory/StructureDefinition/Observation-resultslab-eu-lab"
          ]
        },
        "performer": [
          {
            "display": "The Central European Lab"
          }
        ],
        "category": [
          {
            "coding": [
              {
                "system": "http://terminology.hl7.org/CodeSystem/observation-category",
                "code": "laboratory"
              }
            ]
          }
        ],
        "code": {
          "coding": [
            {
              "code": "2514-8",
              "system": "http://loinc.org",
              "display": "Ketones [Presence] in Urine by Test strip"
            }
          ],
          "text": "Ketones [Presence] in Urine by Test strip"
        },
        "text": {
          "status": "generated",
          "div": "<div xmlns=\"http://www.w3.org/1999/xhtml\"><table class=\"hl7__eu__lab__report\"><tr><th>Test</th><th>18-Jul-2024</th><th>Reference&#xA0;Range</th><th>Unit</th></tr><tr><td>Ketones [Presence] in Urine by Test strip</td></tr></table></div>"
        },
        "status": "final",
        "subject": {
          "reference": "urn:uuid:7346cb44-1d34-469b-9ce7-a899fc81607a",
          "display": "Marthe Gallet"
        },
        "effectiveDateTime": "2024-07-18T19:05:43Z",
        "specimen": {
          "reference": "urn:uuid:e16b3ce7-de8d-4c54-a669-8d5477445642"
        }
      }
    },
    {
      "fullUrl": "urn:uuid:fc4eadda-df1c-459a-8479-b89b65ee047a",
      "resource": {
        "resourceType": "Observation",
        "id": "fc4eadda-df1c-459a-8479-b89b65ee047a",
        "meta": {
          "profile": [
            "http://hl7.eu/fhir/laboratory/StructureDefinition/Observation-resultslab-eu-lab"
          ]
        },
        "performer": [
          {
            "display": "The Central European Lab"
          }
        ],
        "category": [
          {
            "coding": [
              {
                "system": "http://terminology.hl7.org/CodeSystem/observation-category",
                "code": "laboratory"
              }
            ]
          }
        ],
        "code": {
          "coding": [
            {
              "code": "5811-5",
              "system": "http://loinc.org",
              "display": "Specific gravity of Urine by Test strip"
            }
          ],
          "text": "Specific gravity of Urine by Test strip"
        },
        "valueQuantity": {
          "system": "http://unitsofmeasure.org",
          "value": 1,
          "unit": "{nominal}",
          "code": "{nominal}"
        },
        "referenceRange": [
          {
            "low": {
              "value": 1.01,
              "code": "g/mL",
              "system": "http://unitsofmeasure.org"
            }
          },
          {
            "high": {
              "value": 1.03,
              "code": "g/mL",
              "system": "http://unitsofmeasure.org"
            }
          }
        ],
        "interpretation": [
          {
            "coding": [
              {
                "code": "L",
                "system": "http://terminology.hl7.org/CodeSystem/v3-ObservationInterpretation",
                "display": "Low"
              }
            ]
          }
        ],
        "text": {
          "status": "generated",
          "div": "<div xmlns=\"http://www.w3.org/1999/xhtml\"><table class=\"hl7__eu__lab__report\"><tr><th>Test</th><th>18-Jul-2024</th><th>Reference&#xA0;Range</th><th>Unit</th></tr><tr><td>Specific gravity of Urine by Test strip</td><td>1.0</td><td>1.01 - 1.03</td><td>L</td><td>{nominal}</td></tr></table></div>"
        },
        "status": "final",
        "subject": {
          "reference": "urn:uuid:7346cb44-1d34-469b-9ce7-a899fc81607a",
          "display": "Marthe Gallet"
        },
        "effectiveDateTime": "2024-07-18T19:05:43Z",
        "specimen": {
          "reference": "urn:uuid:e16b3ce7-de8d-4c54-a669-8d5477445642"
        }
      }
    },
    {
      "fullUrl": "urn:uuid:f0eb655e-0dd2-4215-b27f-9ca8e24b8d81",
      "resource": {
        "resourceType": "Observation",
        "id": "f0eb655e-0dd2-4215-b27f-9ca8e24b8d81",
        "meta": {
          "profile": [
            "http://hl7.eu/fhir/laboratory/StructureDefinition/Observation-resultslab-eu-lab"
          ]
        },
        "performer": [
          {
            "display": "The Central European Lab"
          }
        ],
        "category": [
          {
            "coding": [
              {
                "system": "http://terminology.hl7.org/CodeSystem/observation-category",
                "code": "laboratory"
              }
            ]
          }
        ],
        "code": {
          "coding": [
            {
              "code": "5803-2",
              "system": "http://loinc.org",
              "display": "pH of Urine by Test strip"
            }
          ],
          "text": "pH of Urine by Test strip"
        },
        "valueQuantity": {
          "system": "http://unitsofmeasure.org",
          "value": 5.9,
          "unit": "pH",
          "code": "pH"
        },
        "referenceRange": [
          {
            "low": {
              "value": 4.6,
              "code": "pH",
              "system": "http://unitsofmeasure.org"
            }
          },
          {
            "high": {
              "value": 7,
              "code": "pH",
              "system": "http://unitsofmeasure.org"
            }
          }
        ],
        "text": {
          "status": "generated",
          "div": "<div xmlns=\"http://www.w3.org/1999/xhtml\"><table class=\"hl7__eu__lab__report\"><tr><th>Test</th><th>18-Jul-2024</th><th>Reference&#xA0;Range</th><th>Unit</th></tr><tr><td>pH of Urine by Test strip</td><td>5.9</td><td>4.6 - 7</td><td></td><td>pH</td></tr></table></div>"
        },
        "status": "final",
        "subject": {
          "reference": "urn:uuid:7346cb44-1d34-469b-9ce7-a899fc81607a",
          "display": "Marthe Gallet"
        },
        "effectiveDateTime": "2024-07-18T19:05:43Z",
        "specimen": {
          "reference": "urn:uuid:e16b3ce7-de8d-4c54-a669-8d5477445642"
        }
      }
    },
    {
      "fullUrl": "urn:uuid:6e789e53-1e14-4d10-a7cf-724e5c4de504",
      "resource": {
        "resourceType": "Observation",
        "id": "6e789e53-1e14-4d10-a7cf-724e5c4de504",
        "meta": {
          "profile": [
            "http://hl7.eu/fhir/laboratory/StructureDefinition/Observation-resultslab-eu-lab"
          ]
        },
        "performer": [
          {
            "display": "The Central European Lab"
          }
        ],
        "category": [
          {
            "coding": [
              {
                "system": "http://terminology.hl7.org/CodeSystem/observation-category",
                "code": "laboratory"
              }
            ]
          }
        ],
        "code": {
          "coding": [
            {
              "code": "5804-0",
              "system": "http://loinc.org",
              "display": "Protein [Mass/volume] in Urine by Test strip"
            }
          ],
          "text": "Protein [Mass/volume] in Urine by Test strip"
        },
        "valueQuantity": {
          "system": "http://unitsofmeasure.org",
          "value": 303.3,
          "unit": "mg/dL",
          "code": "mg/dL"
        },
        "referenceRange": [
          {
            "low": {
              "value": 0,
              "code": "mg/dL",
              "system": "http://unitsofmeasure.org"
            }
          },
          {
            "high": {
              "value": 15,
              "code": "mg/dL",
              "system": "http://unitsofmeasure.org"
            }
          }
        ],
        "interpretation": [
          {
            "coding": [
              {
                "code": "H",
                "system": "http://terminology.hl7.org/CodeSystem/v3-ObservationInterpretation",
                "display": "High"
              }
            ]
          }
        ],
        "text": {
          "status": "generated",
          "div": "<div xmlns=\"http://www.w3.org/1999/xhtml\"><table class=\"hl7__eu__lab__report\"><tr><th>Test</th><th>18-Jul-2024</th><th>Reference&#xA0;Range</th><th>Unit</th></tr><tr><td>Protein [Mass/volume] in Urine by Test strip</td><td>303.3</td><td>0 - 15</td><td>H</td><td>mg/dL</td></tr></table></div>"
        },
        "status": "final",
        "subject": {
          "reference": "urn:uuid:7346cb44-1d34-469b-9ce7-a899fc81607a",
          "display": "Marthe Gallet"
        },
        "effectiveDateTime": "2024-07-18T19:05:43Z",
        "specimen": {
          "reference": "urn:uuid:e16b3ce7-de8d-4c54-a669-8d5477445642"
        }
      }
    },
    {
      "fullUrl": "urn:uuid:17ec9ee9-87f7-4c15-a8bf-785d9953a6f7",
      "resource": {
        "resourceType": "Observation",
        "id": "17ec9ee9-87f7-4c15-a8bf-785d9953a6f7",
        "meta": {
          "profile": [
            "http://hl7.eu/fhir/laboratory/StructureDefinition/Observation-resultslab-eu-lab"
          ]
        },
        "performer": [
          {
            "display": "The Central European Lab"
          }
        ],
        "category": [
          {
            "coding": [
              {
                "system": "http://terminology.hl7.org/CodeSystem/observation-category",
                "code": "laboratory"
              }
            ]
          }
        ],
        "code": {
          "coding": [
            {
              "code": "20454-5",
              "system": "http://loinc.org",
              "display": "Protein [Presence] in Urine by Test strip"
            }
          ],
          "text": "Protein [Presence] in Urine by Test strip"
        },
        "text": {
          "status": "generated",
          "div": "<div xmlns=\"http://www.w3.org/1999/xhtml\"><table class=\"hl7__eu__lab__report\"><tr><th>Test</th><th>18-Jul-2024</th><th>Reference&#xA0;Range</th><th>Unit</th></tr><tr><td>Protein [Presence] in Urine by Test strip</td></tr></table></div>"
        },
        "status": "final",
        "subject": {
          "reference": "urn:uuid:7346cb44-1d34-469b-9ce7-a899fc81607a",
          "display": "Marthe Gallet"
        },
        "effectiveDateTime": "2024-07-18T19:05:43Z",
        "specimen": {
          "reference": "urn:uuid:e16b3ce7-de8d-4c54-a669-8d5477445642"
        }
      }
    },
    {
      "fullUrl": "urn:uuid:9dd073ef-89ff-4aba-a1ac-911039fac613",
      "resource": {
        "resourceType": "Observation",
        "id": "9dd073ef-89ff-4aba-a1ac-911039fac613",
        "meta": {
          "profile": [
            "http://hl7.eu/fhir/laboratory/StructureDefinition/Observation-resultslab-eu-lab"
          ]
        },
        "performer": [
          {
            "display": "The Central European Lab"
          }
        ],
        "category": [
          {
            "coding": [
              {
                "system": "http://terminology.hl7.org/CodeSystem/observation-category",
                "code": "laboratory"
              }
            ]
          }
        ],
        "code": {
          "coding": [
            {
              "code": "5802-4",
              "system": "http://loinc.org",
              "display": "Nitrite [Presence] in Urine by Test strip"
            }
          ],
          "text": "Nitrite [Presence] in Urine by Test strip"
        },
        "text": {
          "status": "generated",
          "div": "<div xmlns=\"http://www.w3.org/1999/xhtml\"><table class=\"hl7__eu__lab__report\"><tr><th>Test</th><th>18-Jul-2024</th><th>Reference&#xA0;Range</th><th>Unit</th></tr><tr><td>Nitrite [Presence] in Urine by Test strip</td></tr></table></div>"
        },
        "status": "final",
        "subject": {
          "reference": "urn:uuid:7346cb44-1d34-469b-9ce7-a899fc81607a",
          "display": "Marthe Gallet"
        },
        "effectiveDateTime": "2024-07-18T19:05:43Z",
        "specimen": {
          "reference": "urn:uuid:e16b3ce7-de8d-4c54-a669-8d5477445642"
        }
      }
    },
    {
      "fullUrl": "urn:uuid:d5346445-a166-4549-8210-746de86c320b",
      "resource": {
        "resourceType": "Observation",
        "id": "d5346445-a166-4549-8210-746de86c320b",
        "meta": {
          "profile": [
            "http://hl7.eu/fhir/laboratory/StructureDefinition/Observation-resultslab-eu-lab"
          ]
        },
        "performer": [
          {
            "display": "The Central European Lab"
          }
        ],
        "category": [
          {
            "coding": [
              {
                "system": "http://terminology.hl7.org/CodeSystem/observation-category",
                "code": "laboratory"
              }
            ]
          }
        ],
        "code": {
          "coding": [
            {
              "code": "5794-3",
              "system": "http://loinc.org",
              "display": "Hemoglobin [Presence] in Urine by Test strip"
            }
          ],
          "text": "Hemoglobin [Presence] in Urine by Test strip"
        },
        "text": {
          "status": "generated",
          "div": "<div xmlns=\"http://www.w3.org/1999/xhtml\"><table class=\"hl7__eu__lab__report\"><tr><th>Test</th><th>18-Jul-2024</th><th>Reference&#xA0;Range</th><th>Unit</th></tr><tr><td>Hemoglobin [Presence] in Urine by Test strip</td></tr></table></div>"
        },
        "status": "final",
        "subject": {
          "reference": "urn:uuid:7346cb44-1d34-469b-9ce7-a899fc81607a",
          "display": "Marthe Gallet"
        },
        "effectiveDateTime": "2024-07-18T19:05:43Z",
        "specimen": {
          "reference": "urn:uuid:e16b3ce7-de8d-4c54-a669-8d5477445642"
        }
      }
    },
    {
      "fullUrl": "urn:uuid:9bd2e8b0-1ff2-4028-995f-c849eafd010a",
      "resource": {
        "resourceType": "Observation",
        "id": "9bd2e8b0-1ff2-4028-995f-c849eafd010a",
        "meta": {
          "profile": [
            "http://hl7.eu/fhir/laboratory/StructureDefinition/Observation-resultslab-eu-lab"
          ]
        },
        "performer": [
          {
            "display": "The Central European Lab"
          }
        ],
        "category": [
          {
            "coding": [
              {
                "system": "http://terminology.hl7.org/CodeSystem/observation-category",
                "code": "laboratory"
              }
            ]
          }
        ],
        "code": {
          "coding": [
            {
              "code": "5799-2",
              "system": "http://loinc.org",
              "display": "Leukocyte esterase [Presence] in Urine by Test strip"
            }
          ],
          "text": "Leukocyte esterase [Presence] in Urine by Test strip"
        },
        "text": {
          "status": "generated",
          "div": "<div xmlns=\"http://www.w3.org/1999/xhtml\"><table class=\"hl7__eu__lab__report\"><tr><th>Test</th><th>18-Jul-2024</th><th>Reference&#xA0;Range</th><th>Unit</th></tr><tr><td>Leukocyte esterase [Presence] in Urine by Test strip</td></tr></table></div>"
        },
        "status": "final",
        "subject": {
          "reference": "urn:uuid:7346cb44-1d34-469b-9ce7-a899fc81607a",
          "display": "Marthe Gallet"
        },
        "effectiveDateTime": "2024-07-18T19:05:43Z",
        "specimen": {
          "reference": "urn:uuid:e16b3ce7-de8d-4c54-a669-8d5477445642"
        }
      }
    },
    {
      "fullUrl": "urn:uuid:e2510357-e4f6-4898-b151-5a1c45672157",
      "resource": {
        "resourceType": "Device",
        "id": "e2510357-e4f6-4898-b151-5a1c45672157",
        "deviceName": [
          {
            "name": "SYNDERAI Synthetic Generator",
            "type": "manufacturer-name"
          }
        ],
        "version": [
          {
            "value": "5.0"
          }
        ],
        "text": {
          "status": "generated",
          "div": "<div xmlns=\"http://www.w3.org/1999/xhtml\">SYNDERAI Synthetic Generator v5.0</div>"
        },
        "status": "active\"",
        "distinctIdentifier": "synderai-generator-50",
        "manufacturer": "SYNDERAI Project"
      }
    },
    {
      "fullUrl": "urn:uuid:9a1806f9-54aa-4b0b-80cb-709f257a132e",
      "resource": {
        "resourceType": "Provenance",
        "id": "9a1806f9-54aa-4b0b-80cb-709f257a132e",
        "target": [
          {
            "reference": "Patient/7346cb44-1d34-469b-9ce7-a899fc81607a"
          },
          {
            "reference": "Bundle/a1ca8d45-a44d-400f-92ab-b9554ab73169"
          },
          {
            "reference": "Composition/b14da2d4-4a22-47fe-ab90-90feaaaa23d7"
          },
          {
            "reference": "PractitionerRole/71a55bd2-d6df-49e8-a2b2-391fe823e961"
          },
          {
            "reference": "Practitioner/f72c7f11-5628-4fef-b388-0aefa867361a"
          },
          {
            "reference": "PractitionerRole/fc5482ee-256a-4f92-94e7-1d6a83eabbf2"
          },
          {
            "reference": "Organization/cfa293d2-6069-4a9d-ac1e-61e02a7bcf22"
          }
        ],
        "activity": {
          "text": "Synthetic Example Data Generation"
        },
        "policy": [
          "https://synderai.net/synderai-synthetic-data-policy"
        ],
        "agent": [
          {
            "type": {
              "text": "author"
            },
            "who": {
              "reference": "Device/e2510357-e4f6-4898-b151-5a1c45672157"
            }
          }
        ],
        "reason": [
          {
            "text": "Interoperability Testing and Training (non-clinical use)"
          }
        ],
        "text": {
          "status": "generated",
          "div": "<div xmlns=\"http://www.w3.org/1999/xhtml\">Provenance for SYNDERAI Synthetic Example Data Resource</div>"
        },
        "recorded": "2024-07-18T21:05:43Z"
      }
    },
    {
      "fullUrl": "urn:uuid:71a55bd2-d6df-49e8-a2b2-391fe823e961",
      "resource": {
        "resourceType": "PractitionerRole",
        "id": "71a55bd2-d6df-49e8-a2b2-391fe823e961",
        "meta": {
          "profile": [
            "http://hl7.eu/fhir/base/StructureDefinition/practitionerRole-eu"
          ]
        },
        "text": {
          "status": "generated",
          "div": "<div xmlns=\"http://www.w3.org/1999/xhtml\">Laboratory Role Id: 71a55bd2-d6df-49e8-a2b2-391fe823e961</div>"
        },
        "practitioner": {
          "reference": "urn:uuid:f72c7f11-5628-4fef-b388-0aefa867361a"
        }
      }
    },
    {
      "fullUrl": "urn:uuid:f72c7f11-5628-4fef-b388-0aefa867361a",
      "resource": {
        "resourceType": "Practitioner",
        "id": "f72c7f11-5628-4fef-b388-0aefa867361a",
        "meta": {
          "profile": [
            "http://hl7.eu/fhir/base/StructureDefinition/practitioner-eu"
          ]
        },
        "identifier": [
          {
            "assigner": {
              "display": "HL7 Europe"
            },
            "system": "urn:oid:2.16.840.1.113883.2.51.999",
            "value": "882ff895-8f2a-482b-b82c-1c0f0178c9e9"
          }
        ],
        "name": [
          {
            "prefix": [
              "dr"
            ],
            "given": [
              "Ex"
            ],
            "family": "Ample"
          }
        ],
        "address": [
          {
            "line": [
              "Laboratoire Central Européenne",
              "Boulevard du Jardin Botanique 32"
            ],
            "postalCode": "1000",
            "city": "Brussels",
            "country": "Belgium"
          }
        ],
        "text": {
          "status": "generated",
          "div": "<div xmlns=\"http://www.w3.org/1999/xhtml\">Laboratory: Laboratoire Central Européenne, 1000 Brussels, Belgium</div>"
        }
      }
    }
  ],
  "type": "document",
  "timestamp": "2024-07-18T21:05:43Z"
}
