{
  "resourceType": "Bundle",
  "id": "c321c559-f538-42a4-bc7c-82d086d5e419",
  "meta": {
    "profile": [
      "http://hl7.eu/fhir/laboratory/StructureDefinition/Bundle-eu-lab"
    ]
  },
  "identifier": {
    "assigner": {
      "display": "HL7 Europe"
    },
    "system": "urn:oid:2.16.840.1.113883.2.51.999",
    "value": "0bef4ff5-9d52-463a-919c-ad4d27970e03"
  },
  "entry": [
    {
      "fullUrl": "urn:uuid:68470c37-46ca-4a12-bd27-d5254ab5ac26",
      "resource": {
        "resourceType": "Composition",
        "id": "68470c37-46ca-4a12-bd27-d5254ab5ac26",
        "meta": {
          "profile": [
            "http://hl7.eu/fhir/laboratory/StructureDefinition/Composition-eu-lab"
          ]
        },
        "identifier": {
          "assigner": {
            "display": "HL7 Europe"
          },
          "system": "urn:oid:2.16.840.1.113883.2.51.999",
          "value": "739e826f-b252-4f77-909e-77522c02d6f3"
        },
        "author": [
          {
            "reference": "urn:uuid:40df978b-0699-48dd-b201-2be1b40f61cb"
          }
        ],
        "category": [
          {
            "coding": [
              {
                "code": "26436-6",
                "system": "http://loinc.org",
                "display": "Laboratory studies (set)"
              }
            ]
          }
        ],
        "type": {
          "coding": [
            {
              "code": "11502-2",
              "system": "http://loinc.org",
              "display": "Laboratory report"
            }
          ],
          "text": "Laboratory Report"
        },
        "section": [
          {
            "code": {
              "coding": [
                {
                  "code": "26436-6",
                  "system": "http://loinc.org",
                  "display": "Laboratory studies (set)"
                }
              ],
              "text": "Laboratory studies"
            },
            "section": [
              {
                "code": {
                  "coding": [
                    {
                      "code": "$18719-5",
                      "system": "http://loinc.org",
                      "display": "Chemistry studies (set)"
                    }
                  ],
                  "text": "Chemistry"
                },
                "entry": [
                  {
                    "reference": "urn:uuid:eecea750-61dc-4a04-a953-98af8acb91a3"
                  },
                  {
                    "reference": "urn:uuid:13ed3789-3fac-4631-b457-7b370dfd9b9c"
                  },
                  {
                    "reference": "urn:uuid:10b085c1-5705-4ff4-bba0-ba313cf02116"
                  },
                  {
                    "reference": "urn:uuid:2aedab96-f137-4259-b905-36b5933accc1"
                  },
                  {
                    "reference": "urn:uuid:23705f91-27f5-4e31-b3b2-21e59d0ec017"
                  },
                  {
                    "reference": "urn:uuid:d73dda76-8e28-4673-80b6-da8ed727917d"
                  },
                  {
                    "reference": "urn:uuid:64f65586-b0d8-4641-933c-07aa871cc1de"
                  },
                  {
                    "reference": "urn:uuid:004667d6-7f12-43ce-ba58-a4c67775e1e3"
                  },
                  {
                    "reference": "urn:uuid:02c3b021-5aef-4aff-9937-94baa8070f91"
                  },
                  {
                    "reference": "urn:uuid:079257dc-0f78-4376-9d5d-693bab5f8bea"
                  },
                  {
                    "reference": "urn:uuid:5dded677-7e2b-4f30-ac4c-b26b6015a424"
                  },
                  {
                    "reference": "urn:uuid:6be38938-799c-460d-8079-354acabde26a"
                  },
                  {
                    "reference": "urn:uuid:02e23ca0-11c1-4b55-8a1a-887322ec1e56"
                  },
                  {
                    "reference": "urn:uuid:e3a6423a-9c22-4061-b8ea-13d701ba0f4a"
                  },
                  {
                    "reference": "urn:uuid:b3881c6a-cb19-466a-af61-d996d124c9bc"
                  },
                  {
                    "reference": "urn:uuid:87a2a7d8-e6d8-4460-87d1-17ededc7e723"
                  }
                ],
                "text": {
                  "status": "generated",
                  "div": "<div xmlns=\"http://www.w3.org/1999/xhtml\"><h3>Chemistry</h3><table class=\"hl7__eu__lab__report\"><thead><tr><th>Test</th><th>13-NOV-2015</th><th>Reference&#xA0;Range</th><th>Unit</th></tr></thead><tbody><tr><td>Glucose [Mass/volume] in Blood</td><td>91.3</td><td>70 - 140</td><td>mg/dL</td></tr><tr><td>Urea nitrogen [Mass/volume] in Blood</td><td>11.8</td><td>7 - 25</td><td>mg/dL</td></tr><tr><td>Creatinine [Mass/volume] in Blood</td><td><strong>3.1 H</strong></td><td>0.6 - 1.1</td><td>mg/dL</td></tr><tr><td>Calcium [Mass/volume] in Blood</td><td>8.8</td><td>8.6 - 10.4</td><td>mg/dL</td></tr><tr><td>Sodium [Moles/volume] in Blood</td><td>144.0</td><td>135 - 145</td><td>mmol/L</td></tr><tr><td>Potassium [Moles/volume] in Blood</td><td>3.8</td><td>3.5 - 5.1</td><td>mmol/L</td></tr><tr><td>Chloride [Moles/volume] in Blood</td><td>101.9</td><td>98 - 110</td><td>mmol/L</td></tr><tr><td>Carbon dioxide, total [Moles/volume] in Blood</td><td>23.0</td><td>22 - 29</td><td>mmol/L</td></tr><tr><td>Protein [Mass/volume] in Serum or Plasma</td><td><strong>6.4 L</strong></td><td>6.6 - 8.3</td><td>g/dL</td></tr><tr><td>Albumin [Mass/volume] in Serum or Plasma</td><td>4.5</td><td>3.5 - 5</td><td>g/dL</td></tr><tr><td>Globulin [Mass/volume] in Serum by calculation</td><td>2.0</td><td>2 - 3.5</td><td>g/L</td></tr><tr><td>Bilirubin.total [Mass/volume] in Serum or Plasma</td><td><strong>0.2 L</strong></td><td>0.3 - 1.2</td><td>mg/dL</td></tr><tr><td>Alkaline phosphatase [Enzymatic activity/volume] in Serum or Plasma</td><td>72.1</td><td>39 - 141</td><td>U/L</td></tr><tr><td>Alanine aminotransferase [Enzymatic activity/volume] in Serum or Plasma</td><td>39.1</td><td>7 - 40</td><td>U/L</td></tr><tr><td>Aspartate aminotransferase [Enzymatic activity/volume] in Serum or Plasma</td><td>21.0</td><td>10 - 32</td><td>U/L</td></tr><tr><td>Ketones [Presence] in Urine by Test strip</td><td>Urine ketone test = +++</td><td></td><td></td></tr></tbody></table></div>"
                },
                "title": "Chemistry"
              },
              {
                "code": {
                  "coding": [
                    {
                      "code": "$18729-4",
                      "system": "http://loinc.org",
                      "display": "Urinalysis studies (set)"
                    }
                  ],
                  "text": "Urinalysis"
                },
                "entry": [
                  {
                    "reference": "urn:uuid:4893cc30-ec8f-46c7-807d-5c26f43fc749"
                  },
                  {
                    "reference": "urn:uuid:24ce05a0-b551-4261-9979-12a7e792b49f"
                  },
                  {
                    "reference": "urn:uuid:195b7045-8223-408f-b6a3-48df9e13b782"
                  },
                  {
                    "reference": "urn:uuid:1f7070bc-feba-4f15-b4b2-3c757f3ebc88"
                  },
                  {
                    "reference": "urn:uuid:bd617215-d1e8-49b1-aa4c-3829521e525d"
                  },
                  {
                    "reference": "urn:uuid:2d792ac9-a260-474c-b40f-5eced4784f1a"
                  },
                  {
                    "reference": "urn:uuid:7234f4a8-1bff-41bf-a171-d6e3a7b202ea"
                  },
                  {
                    "reference": "urn:uuid:e568cb81-9cc6-42d1-bc5f-407d6d254954"
                  },
                  {
                    "reference": "urn:uuid:e11eae8e-5d5e-4fc9-9f94-2278a4642511"
                  },
                  {
                    "reference": "urn:uuid:cbe6476b-42f7-4848-aeaf-d2608a0bb846"
                  },
                  {
                    "reference": "urn:uuid:90a4e71b-9340-4b40-a311-f2e72d3267e7"
                  },
                  {
                    "reference": "urn:uuid:bb3e4d92-6786-4264-93f8-f3f3d8053dce"
                  }
                ],
                "text": {
                  "status": "generated",
                  "div": "<div xmlns=\"http://www.w3.org/1999/xhtml\"><h3>Urinalysis</h3><table class=\"hl7__eu__lab__report\"><thead><tr><th>Test</th><th>13-NOV-2015</th><th>Reference&#xA0;Range</th><th>Unit</th></tr></thead><tbody><tr><td>Glucose [Mass/volume] in Urine by Test strip</td><td><strong>1.7 H</strong></td><td>0 - 0.8</td><td>mg/dL</td></tr><tr><td>Glucose [Presence] in Urine by Test strip</td><td>++</td><td></td><td></td></tr><tr><td>Bilirubin.total [Mass/volume] in Urine by Test strip</td><td>0.3</td><td>0 - 1</td><td>mg/dL</td></tr><tr><td>Bilirubin.total [Presence] in Urine by Test strip</td><td>Finding of bilirubin in urine</td><td></td><td></td></tr><tr><td>Ketones [Mass/volume] in Urine by Test strip</td><td><strong>19.2 H</strong></td><td>0 - 4</td><td>mg/dL</td></tr><tr><td>Specific gravity of Urine by Test strip</td><td><strong>1.0 L</strong></td><td>1.005 - 1.03</td><td>{nominal}</td></tr><tr><td>pH of Urine by Test strip</td><td>5.4</td><td>4.5 - 7</td><td>pH</td></tr><tr><td>Protein [Mass/volume] in Urine by Test strip</td><td><strong>272.7 H</strong></td><td>0 - 145</td><td>mg/dL</td></tr><tr><td>Protein [Presence] in Urine by Test strip</td><td>Urine protein test = +++</td><td></td><td></td></tr><tr><td>Nitrite [Presence] in Urine by Test strip</td><td>Urine nitrite negative</td><td></td><td></td></tr><tr><td>Hemoglobin [Presence] in Urine by Test strip</td><td>Urine blood test = negative</td><td></td><td></td></tr><tr><td>Leukocyte esterase [Presence] in Urine by Test strip</td><td>Urine leukocyte test negative</td><td></td><td></td></tr></tbody></table></div>"
                },
                "title": "Urinalysis"
              },
              {
                "code": {
                  "coding": [
                    {
                      "code": "$LP7846-1",
                      "system": "http://loinc.org",
                      "display": "Specimen information"
                    }
                  ],
                  "text": "Specimen information"
                },
                "entry": [
                  {
                    "reference": "urn:uuid:73f0eae6-447c-4713-8232-cd8caa4b5da0"
                  },
                  {
                    "reference": "urn:uuid:e26ecaa9-5731-41c5-8dd2-b934d76ba66d"
                  },
                  {
                    "reference": "urn:uuid:3f4640ab-1c47-4fba-837b-521f160264f7"
                  },
                  {
                    "reference": "urn:uuid:50de79a0-4f96-4f11-b160-09cb312bd38d"
                  }
                ],
                "text": {
                  "status": "generated",
                  "div": "<div xmlns=\"http://www.w3.org/1999/xhtml\"><h3>Specimen information</h3><table class=\"hl7__eu__lab__report\"><thead><tr><th>Test</th><th>13-NOV-2015</th><th>Specimen</th><th></th></tr></thead><tbody><tr><td>Appearance of Urine</td><td>Cloudy urine</td><td>Urine</td><td></td></tr><tr><td>Odor of Urine</td><td>Urine smell ammoniacal</td><td>Urine</td><td></td></tr><tr><td>Clarity of Urine</td><td>Translucent</td><td>Urine</td><td></td></tr><tr><td>Color of Urine</td><td>Brown color</td><td>Urine</td><td></td></tr></tbody></table></div>"
                },
                "title": "Specimen information"
              }
            ],
            "title": "Laboratory Report"
          },
          {
            "text": {
              "status": "generated",
              "div": "<div xmlns=\"http://www.w3.org/1999/xhtml\"><h3>Annotation</h3><table class=\"hl7__eu__lab__report\"><tr><th>Conclusion and Recommendations based on this report and previous findings known to us</th></tr><tr><td>The patient shows markedly elevated serum creatinine, indicating significant renal impairment, with low serum protein and abnormal urinalysis (proteinuria, glucosuria, ketonuria, low specific gravity, and abnormal urine appearance). These findings suggest acute or chronic kidney dysfunction, possibly with nephrotic features and impaired tubular function. No evidence of infection is seen in the urine. Further nephrological evaluation is strongly recommended.</td></tr></table></div>"
            },
            "code": {
              "coding": [
                {
                  "system": "http://loinc.org",
                  "code": "48767-8",
                  "display": "Annotation comment"
                }
              ]
            },
            "title": "Annotation comment"
          }
        ],
        "status": "final",
        "subject": {
          "reference": "urn:uuid:7eaa13df-a25f-430c-9b0e-a8861164b2ea",
          "display": "Iva Kratochvílová"
        },
        "date": "2015-11-13T07:31:29Z",
        "title": "Laboratory Report",
        "confidentiality": "N"
      }
    },
    {
      "fullUrl": "urn:uuid:16a1d84a-5a68-4f76-9f68-409f8a985ce1",
      "resource": {
        "resourceType": "DiagnosticReport",
        "id": "16a1d84a-5a68-4f76-9f68-409f8a985ce1",
        "meta": {
          "profile": [
            "http://hl7.eu/fhir/laboratory/StructureDefinition/DiagnosticReport-eu-lab"
          ]
        },
        "identifier": [
          {
            "assigner": {
              "display": "HL7 Europe"
            },
            "system": "urn:oid:2.16.840.1.113883.2.51.999",
            "value": "7d028ec6-84a8-498c-a570-828f9cf4a55d"
          }
        ],
        "extension": [
          {
            "url": "http://hl7.org/fhir/5.0/StructureDefinition/extension-DiagnosticReport.composition",
            "valueReference": {
              "reference": "urn:uuid:739e826f-b252-4f77-909e-77522c02d6f3"
            }
          }
        ],
        "category": [
          {
            "coding": [
              {
                "code": "26436-6",
                "system": "http://loinc.org",
                "display": "Laboratory studies (set)"
              }
            ]
          }
        ],
        "specimen": [
          {
            "reference": "urn:uuid:aef2d45c-85b7-4fe9-9134-d1b95d52aa76"
          },
          {
            "reference": "urn:uuid:f1162025-edb5-4789-bd84-e98a4e4913c2"
          },
          {
            "reference": "urn:uuid:256877db-c17e-4e90-9214-62134173d46f"
          },
          {
            "reference": "urn:uuid:b0f8656f-3f04-4a1f-89b9-3d39d09f705f"
          }
        ],
        "result": [
          {
            "reference": "urn:uuid:eecea750-61dc-4a04-a953-98af8acb91a3"
          },
          {
            "reference": "urn:uuid:13ed3789-3fac-4631-b457-7b370dfd9b9c"
          },
          {
            "reference": "urn:uuid:10b085c1-5705-4ff4-bba0-ba313cf02116"
          },
          {
            "reference": "urn:uuid:2aedab96-f137-4259-b905-36b5933accc1"
          },
          {
            "reference": "urn:uuid:23705f91-27f5-4e31-b3b2-21e59d0ec017"
          },
          {
            "reference": "urn:uuid:d73dda76-8e28-4673-80b6-da8ed727917d"
          },
          {
            "reference": "urn:uuid:64f65586-b0d8-4641-933c-07aa871cc1de"
          },
          {
            "reference": "urn:uuid:004667d6-7f12-43ce-ba58-a4c67775e1e3"
          },
          {
            "reference": "urn:uuid:02c3b021-5aef-4aff-9937-94baa8070f91"
          },
          {
            "reference": "urn:uuid:079257dc-0f78-4376-9d5d-693bab5f8bea"
          },
          {
            "reference": "urn:uuid:5dded677-7e2b-4f30-ac4c-b26b6015a424"
          },
          {
            "reference": "urn:uuid:6be38938-799c-460d-8079-354acabde26a"
          },
          {
            "reference": "urn:uuid:02e23ca0-11c1-4b55-8a1a-887322ec1e56"
          },
          {
            "reference": "urn:uuid:e3a6423a-9c22-4061-b8ea-13d701ba0f4a"
          },
          {
            "reference": "urn:uuid:b3881c6a-cb19-466a-af61-d996d124c9bc"
          },
          {
            "reference": "urn:uuid:73f0eae6-447c-4713-8232-cd8caa4b5da0"
          },
          {
            "reference": "urn:uuid:e26ecaa9-5731-41c5-8dd2-b934d76ba66d"
          },
          {
            "reference": "urn:uuid:3f4640ab-1c47-4fba-837b-521f160264f7"
          },
          {
            "reference": "urn:uuid:50de79a0-4f96-4f11-b160-09cb312bd38d"
          },
          {
            "reference": "urn:uuid:4893cc30-ec8f-46c7-807d-5c26f43fc749"
          },
          {
            "reference": "urn:uuid:24ce05a0-b551-4261-9979-12a7e792b49f"
          },
          {
            "reference": "urn:uuid:195b7045-8223-408f-b6a3-48df9e13b782"
          },
          {
            "reference": "urn:uuid:1f7070bc-feba-4f15-b4b2-3c757f3ebc88"
          },
          {
            "reference": "urn:uuid:bd617215-d1e8-49b1-aa4c-3829521e525d"
          },
          {
            "reference": "urn:uuid:87a2a7d8-e6d8-4460-87d1-17ededc7e723"
          },
          {
            "reference": "urn:uuid:2d792ac9-a260-474c-b40f-5eced4784f1a"
          },
          {
            "reference": "urn:uuid:7234f4a8-1bff-41bf-a171-d6e3a7b202ea"
          },
          {
            "reference": "urn:uuid:e568cb81-9cc6-42d1-bc5f-407d6d254954"
          },
          {
            "reference": "urn:uuid:e11eae8e-5d5e-4fc9-9f94-2278a4642511"
          },
          {
            "reference": "urn:uuid:cbe6476b-42f7-4848-aeaf-d2608a0bb846"
          },
          {
            "reference": "urn:uuid:90a4e71b-9340-4b40-a311-f2e72d3267e7"
          },
          {
            "reference": "urn:uuid:bb3e4d92-6786-4264-93f8-f3f3d8053dce"
          }
        ],
        "status": "registered",
        "code": {
          "coding": [
            {
              "code": "11502-2",
              "system": "http://loinc.org",
              "display": "Laboratory report"
            }
          ]
        },
        "subject": {
          "reference": "urn:uuid:7eaa13df-a25f-430c-9b0e-a8861164b2ea",
          "display": "Iva Kratochvílová"
        }
      }
    },
    {
      "fullUrl": "urn:uuid:7eaa13df-a25f-430c-9b0e-a8861164b2ea",
      "resource": {
        "resourceType": "Patient",
        "id": "7eaa13df-a25f-430c-9b0e-a8861164b2ea",
        "meta": {
          "security": [
            {
              "system": "http://terminology.hl7.org/CodeSystem/v3-ActReason",
              "code": "HTEST"
            },
            {
              "system": "http://terminology.hl7.org/CodeSystem/v3-ActReason",
              "code": "TRAIN"
            }
          ],
          "tag": [
            {
              "system": "https://synderai.net/fhir/CodeSystem/tags",
              "code": "synthetic",
              "display": "SYNDERAI Synthetic data"
            }
          ],
          "profile": [
            "http://hl7.eu/fhir/base/StructureDefinition/patient-eu-core"
          ]
        },
        "identifier": [
          {
            "type": {
              "coding": [
                {
                  "code": "PT",
                  "system": "http://terminology.hl7.org/CodeSystem/v2-0203"
                }
              ]
            },
            "system": "http://ec.europa.eu/identifier/eci",
            "value": "4380-389488-0"
          },
          {
            "type": {
              "coding": [
                {
                  "code": "MR",
                  "system": "http://terminology.hl7.org/CodeSystem/v2-0203"
                }
              ]
            },
            "system": "http://local.setting.eu/identifier",
            "value": "f8f9ebdc-03dd-2fc0-819c-affa4ffd7f67"
          }
        ],
        "name": [
          {
            "family": "Kratochvílová"
          },
          {
            "given": [
              "Iva"
            ]
          },
          {
            "text": "Iva Kratochvílová"
          }
        ],
        "address": [
          {
            "line": [
              "Žofie Podlipské 4"
            ],
            "use": "home",
            "type": "physical",
            "postalCode": "27324",
            "city": "Postoloprty",
            "country": "Czechia"
          }
        ],
        "telecom": [
          {
            "system": "phone",
            "value": "00420 607 985 072"
          }
        ],
        "extension": [
          {
            "url": "http://hl7.org/fhir/StructureDefinition/patient-nationality",
            "valueCodeableConcept": {
              "coding": [
                {
                  "code": "CZ",
                  "system": "http://hl7.org/fhir/ValueSet/country"
                }
              ]
            }
          }
        ],
        "text": {
          "status": "generated",
          "div": "<div xmlns=\"http://www.w3.org/1999/xhtml\"><table class=\"hl7__ips\"><tr><td>Iva Kratochvílová</td><td>female</td><td>17-Sep-1964</td></tr></table></div>"
        },
        "gender": "female",
        "birthDate": "1964-09-17"
      }
    },
    {
      "fullUrl": "urn:uuid:908a6ed4-2e9b-4b1f-a16c-44615ab35624",
      "resource": {
        "resourceType": "ServiceRequest",
        "id": "908a6ed4-2e9b-4b1f-a16c-44615ab35624",
        "meta": {
          "profile": [
            "http://hl7.eu/fhir/laboratory/StructureDefinition/ServiceRequest-eu-lab"
          ]
        },
        "identifier": [
          {
            "system": "http://example.org",
            "value": "6053ff4b-719c-494d-ac7b-ad47636443b6"
          }
        ],
        "specimen": [
          {
            "reference": "urn:uuid:aef2d45c-85b7-4fe9-9134-d1b95d52aa76"
          },
          {
            "reference": "urn:uuid:f1162025-edb5-4789-bd84-e98a4e4913c2"
          },
          {
            "reference": "urn:uuid:256877db-c17e-4e90-9214-62134173d46f"
          },
          {
            "reference": "urn:uuid:b0f8656f-3f04-4a1f-89b9-3d39d09f705f"
          }
        ],
        "reasonCode": [
          {
            "coding": [
              {
                "code": "431856006",
                "system": "http://snomed.info/sct",
                "display": "Chronic kidney disease stage 2"
              }
            ]
          },
          {
            "coding": [
              {
                "code": "431855005",
                "system": "http://snomed.info/sct",
                "display": "Chronic kidney disease stage 1"
              }
            ]
          },
          {
            "coding": [
              {
                "code": "237602007",
                "system": "http://snomed.info/sct",
                "display": "Metabolic syndrome X"
              }
            ]
          },
          {
            "coding": [
              {
                "code": "91302008",
                "system": "http://snomed.info/sct",
                "display": "Sepsis"
              }
            ]
          },
          {
            "coding": [
              {
                "code": "271737000",
                "system": "http://snomed.info/sct",
                "display": "Anemia"
              }
            ]
          },
          {
            "coding": [
              {
                "code": "15777000",
                "system": "http://snomed.info/sct",
                "display": "Prediabetes"
              }
            ]
          },
          {
            "coding": [
              {
                "code": "157141000119108",
                "system": "http://snomed.info/sct",
                "display": "Proteinuria due to type 2 diabetes mellitus"
              }
            ]
          },
          {
            "coding": [
              {
                "code": "90781000119102",
                "system": "http://snomed.info/sct",
                "display": "Microalbuminuria due to type 2 diabetes mellitus"
              }
            ]
          },
          {
            "coding": [
              {
                "code": "239872002",
                "system": "http://snomed.info/sct",
                "display": "Osteoarthritis of hip"
              }
            ]
          },
          {
            "coding": [
              {
                "code": "40055000",
                "system": "http://snomed.info/sct",
                "display": "Chronic sinusitis"
              }
            ]
          },
          {
            "coding": [
              {
                "code": "127013003",
                "system": "http://snomed.info/sct",
                "display": "Disorder of kidney due to diabetes mellitus"
              }
            ]
          },
          {
            "coding": [
              {
                "code": "59621000",
                "system": "http://snomed.info/sct",
                "display": "Essential hypertension"
              }
            ]
          }
        ],
        "status": "active",
        "intent": "order",
        "code": {
          "coding": [
            {
              "code": "108252007",
              "system": "http://snomed.info/sct",
              "display": "Laboratory procedure"
            }
          ]
        },
        "subject": {
          "reference": "urn:uuid:7eaa13df-a25f-430c-9b0e-a8861164b2ea",
          "display": "Iva Kratochvílová"
        },
        "requester": {
          "reference": "urn:uuid:cb58403e-7d7d-4ca8-9687-df2667068f97"
        }
      }
    },
    {
      "fullUrl": "urn:uuid:cb58403e-7d7d-4ca8-9687-df2667068f97",
      "resource": {
        "resourceType": "PractitionerRole",
        "id": "cb58403e-7d7d-4ca8-9687-df2667068f97",
        "meta": {
          "profile": [
            "http://hl7.eu/fhir/base/StructureDefinition/practitionerRole-eu"
          ]
        },
        "text": {
          "status": "generated",
          "div": "<div xmlns=\"http://www.w3.org/1999/xhtml\">Provider Role Id: cb58403e-7d7d-4ca8-9687-df2667068f97</div>"
        },
        "organization": {
          "reference": "urn:uuid:427d8a0c-9b70-4e06-81db-caa763d14f1f"
        }
      }
    },
    {
      "fullUrl": "urn:uuid:427d8a0c-9b70-4e06-81db-caa763d14f1f",
      "resource": {
        "resourceType": "Organization",
        "id": "427d8a0c-9b70-4e06-81db-caa763d14f1f",
        "meta": {
          "profile": [
            "http://hl7.eu/fhir/base/StructureDefinition/organization-eu"
          ]
        },
        "identifier": [
          {
            "assigner": {
              "display": "HL7 Europe"
            },
            "system": "urn:oid:2.16.840.1.113883.2.51.999",
            "value": "6939c258-3718-4d20-9561-710f59f3239a"
          }
        ],
        "address": [
          {
            "city": "Kadaň",
            "postalCode": "432 01",
            "country": "Czechia"
          }
        ],
        "text": {
          "status": "generated",
          "div": "<div xmlns=\"http://www.w3.org/1999/xhtml\">Provider Organization: Nemocnice s poliklinikou Kadaň</div>"
        },
        "name": "Nemocnice s poliklinikou Kadaň"
      }
    },
    {
      "fullUrl": "urn:uuid:aef2d45c-85b7-4fe9-9134-d1b95d52aa76",
      "resource": {
        "resourceType": "Specimen",
        "id": "aef2d45c-85b7-4fe9-9134-d1b95d52aa76",
        "meta": {
          "profile": [
            "http://hl7.eu/fhir/laboratory/StructureDefinition/Specimen-eu-lab"
          ]
        },
        "collection": {
          "collectedDateTime": "2015-11-13"
        },
        "text": {
          "status": "generated",
          "div": "<div xmlns=\"http://www.w3.org/1999/xhtml\"><table class=\"hl7__eu__lab__report\"><tr><th>Specimen</th><th>Collection Date</th></tr><tr><td>Whole blood specimen (specimen)</td><td><span class=\"nb\">13-Nov-2015</span></td></tr></table></div>"
        },
        "type": {
          "coding": [
            {
              "code": "258580003",
              "system": "http://snomed.info/sct",
              "display": "Whole blood specimen (specimen)"
            }
          ]
        }
      }
    },
    {
      "fullUrl": "urn:uuid:f1162025-edb5-4789-bd84-e98a4e4913c2",
      "resource": {
        "resourceType": "Specimen",
        "id": "f1162025-edb5-4789-bd84-e98a4e4913c2",
        "meta": {
          "profile": [
            "http://hl7.eu/fhir/laboratory/StructureDefinition/Specimen-eu-lab"
          ]
        },
        "collection": {
          "collectedDateTime": "2015-11-13"
        },
        "text": {
          "status": "generated",
          "div": "<div xmlns=\"http://www.w3.org/1999/xhtml\"><table class=\"hl7__eu__lab__report\"><tr><th>Specimen</th><th>Collection Date</th></tr><tr><td>Acellular blood (serum or plasma) specimen</td><td><span class=\"nb\">13-Nov-2015</span></td></tr></table></div>"
        },
        "type": {
          "coding": [
            {
              "code": "122592007",
              "system": "http://snomed.info/sct",
              "display": "Acellular blood (serum or plasma) specimen"
            }
          ]
        }
      }
    },
    {
      "fullUrl": "urn:uuid:256877db-c17e-4e90-9214-62134173d46f",
      "resource": {
        "resourceType": "Specimen",
        "id": "256877db-c17e-4e90-9214-62134173d46f",
        "meta": {
          "profile": [
            "http://hl7.eu/fhir/laboratory/StructureDefinition/Specimen-eu-lab"
          ]
        },
        "collection": {
          "collectedDateTime": "2015-11-13"
        },
        "text": {
          "status": "generated",
          "div": "<div xmlns=\"http://www.w3.org/1999/xhtml\"><table class=\"hl7__eu__lab__report\"><tr><th>Specimen</th><th>Collection Date</th></tr><tr><td>Serum specimen</td><td><span class=\"nb\">13-Nov-2015</span></td></tr></table></div>"
        },
        "type": {
          "coding": [
            {
              "code": "119364003",
              "system": "http://snomed.info/sct",
              "display": "Serum specimen"
            }
          ]
        }
      }
    },
    {
      "fullUrl": "urn:uuid:b0f8656f-3f04-4a1f-89b9-3d39d09f705f",
      "resource": {
        "resourceType": "Specimen",
        "id": "b0f8656f-3f04-4a1f-89b9-3d39d09f705f",
        "meta": {
          "profile": [
            "http://hl7.eu/fhir/laboratory/StructureDefinition/Specimen-eu-lab"
          ]
        },
        "collection": {
          "collectedDateTime": "2015-11-13"
        },
        "text": {
          "status": "generated",
          "div": "<div xmlns=\"http://www.w3.org/1999/xhtml\"><table class=\"hl7__eu__lab__report\"><tr><th>Specimen</th><th>Collection Date</th></tr><tr><td>Urine specimen</td><td><span class=\"nb\">13-Nov-2015</span></td></tr></table></div>"
        },
        "type": {
          "coding": [
            {
              "code": "122575003",
              "system": "http://snomed.info/sct",
              "display": "Urine specimen"
            }
          ]
        }
      }
    },
    {
      "fullUrl": "urn:uuid:eecea750-61dc-4a04-a953-98af8acb91a3",
      "resource": {
        "resourceType": "Observation",
        "id": "eecea750-61dc-4a04-a953-98af8acb91a3",
        "meta": {
          "profile": [
            "http://hl7.eu/fhir/laboratory/StructureDefinition/Observation-resultslab-eu-lab"
          ]
        },
        "performer": [
          {
            "display": "The Central European Lab"
          }
        ],
        "category": [
          {
            "coding": [
              {
                "system": "http://terminology.hl7.org/CodeSystem/observation-category",
                "code": "laboratory"
              }
            ]
          }
        ],
        "code": {
          "coding": [
            {
              "code": "2339-0",
              "system": "http://loinc.org",
              "display": "Glucose [Mass/volume] in Blood"
            }
          ],
          "text": "Glucose [Mass/volume] in Blood"
        },
        "valueQuantity": {
          "system": "http://unitsofmeasure.org",
          "value": 91.3,
          "unit": "mg/dL",
          "code": "mg/dL"
        },
        "referenceRange": [
          {
            "low": {
              "value": 70,
              "code": "mg/dL",
              "system": "http://unitsofmeasure.org"
            }
          },
          {
            "high": {
              "value": 140,
              "code": "mg/dL",
              "system": "http://unitsofmeasure.org"
            }
          }
        ],
        "text": {
          "status": "generated",
          "div": "<div xmlns=\"http://www.w3.org/1999/xhtml\"><table class=\"hl7__eu__lab__report\"><tr><th>Test</th><th>13-Nov-2015</th><th>Reference&#xA0;Range</th><th>Unit</th></tr><tr><td>Glucose [Mass/volume] in Blood</td><td>91.3</td><td>70 - 140</td><td></td><td>mg/dL</td></tr></table></div>"
        },
        "status": "final",
        "subject": {
          "reference": "urn:uuid:7eaa13df-a25f-430c-9b0e-a8861164b2ea",
          "display": "Iva Kratochvílová"
        },
        "effectiveDateTime": "2015-11-13T06:31:29Z",
        "specimen": {
          "reference": "urn:uuid:aef2d45c-85b7-4fe9-9134-d1b95d52aa76"
        }
      }
    },
    {
      "fullUrl": "urn:uuid:13ed3789-3fac-4631-b457-7b370dfd9b9c",
      "resource": {
        "resourceType": "Observation",
        "id": "13ed3789-3fac-4631-b457-7b370dfd9b9c",
        "meta": {
          "profile": [
            "http://hl7.eu/fhir/laboratory/StructureDefinition/Observation-resultslab-eu-lab"
          ]
        },
        "performer": [
          {
            "display": "The Central European Lab"
          }
        ],
        "category": [
          {
            "coding": [
              {
                "system": "http://terminology.hl7.org/CodeSystem/observation-category",
                "code": "laboratory"
              }
            ]
          }
        ],
        "code": {
          "coding": [
            {
              "code": "6299-2",
              "system": "http://loinc.org",
              "display": "Urea nitrogen [Mass/volume] in Blood"
            }
          ],
          "text": "Urea nitrogen [Mass/volume] in Blood"
        },
        "valueQuantity": {
          "system": "http://unitsofmeasure.org",
          "value": 11.8,
          "unit": "mg/dL",
          "code": "mg/dL"
        },
        "referenceRange": [
          {
            "low": {
              "value": 7,
              "code": "mg/dL",
              "system": "http://unitsofmeasure.org"
            }
          },
          {
            "high": {
              "value": 25,
              "code": "mg/dL",
              "system": "http://unitsofmeasure.org"
            }
          }
        ],
        "text": {
          "status": "generated",
          "div": "<div xmlns=\"http://www.w3.org/1999/xhtml\"><table class=\"hl7__eu__lab__report\"><tr><th>Test</th><th>13-Nov-2015</th><th>Reference&#xA0;Range</th><th>Unit</th></tr><tr><td>Urea nitrogen [Mass/volume] in Blood</td><td>11.8</td><td>7 - 25</td><td></td><td>mg/dL</td></tr></table></div>"
        },
        "status": "final",
        "subject": {
          "reference": "urn:uuid:7eaa13df-a25f-430c-9b0e-a8861164b2ea",
          "display": "Iva Kratochvílová"
        },
        "effectiveDateTime": "2015-11-13T06:31:29Z",
        "specimen": {
          "reference": "urn:uuid:aef2d45c-85b7-4fe9-9134-d1b95d52aa76"
        }
      }
    },
    {
      "fullUrl": "urn:uuid:10b085c1-5705-4ff4-bba0-ba313cf02116",
      "resource": {
        "resourceType": "Observation",
        "id": "10b085c1-5705-4ff4-bba0-ba313cf02116",
        "meta": {
          "profile": [
            "http://hl7.eu/fhir/laboratory/StructureDefinition/Observation-resultslab-eu-lab"
          ]
        },
        "performer": [
          {
            "display": "The Central European Lab"
          }
        ],
        "category": [
          {
            "coding": [
              {
                "system": "http://terminology.hl7.org/CodeSystem/observation-category",
                "code": "laboratory"
              }
            ]
          }
        ],
        "code": {
          "coding": [
            {
              "code": "38483-4",
              "system": "http://loinc.org",
              "display": "Creatinine [Mass/volume] in Blood"
            }
          ],
          "text": "Creatinine [Mass/volume] in Blood"
        },
        "valueQuantity": {
          "system": "http://unitsofmeasure.org",
          "value": 3.1,
          "unit": "mg/dL",
          "code": "mg/dL"
        },
        "referenceRange": [
          {
            "low": {
              "value": 0.6,
              "code": "mg/dL",
              "system": "http://unitsofmeasure.org"
            }
          },
          {
            "high": {
              "value": 1.1,
              "code": "mg/dL",
              "system": "http://unitsofmeasure.org"
            }
          }
        ],
        "interpretation": [
          {
            "coding": [
              {
                "code": "H",
                "system": "http://terminology.hl7.org/CodeSystem/v3-ObservationInterpretation",
                "display": "High"
              }
            ]
          }
        ],
        "text": {
          "status": "generated",
          "div": "<div xmlns=\"http://www.w3.org/1999/xhtml\"><table class=\"hl7__eu__lab__report\"><tr><th>Test</th><th>13-Nov-2015</th><th>Reference&#xA0;Range</th><th>Unit</th></tr><tr><td>Creatinine [Mass/volume] in Blood</td><td>3.1</td><td>0.6 - 1.1</td><td>H</td><td>mg/dL</td></tr></table></div>"
        },
        "status": "final",
        "subject": {
          "reference": "urn:uuid:7eaa13df-a25f-430c-9b0e-a8861164b2ea",
          "display": "Iva Kratochvílová"
        },
        "effectiveDateTime": "2015-11-13T06:31:29Z",
        "specimen": {
          "reference": "urn:uuid:aef2d45c-85b7-4fe9-9134-d1b95d52aa76"
        }
      }
    },
    {
      "fullUrl": "urn:uuid:2aedab96-f137-4259-b905-36b5933accc1",
      "resource": {
        "resourceType": "Observation",
        "id": "2aedab96-f137-4259-b905-36b5933accc1",
        "meta": {
          "profile": [
            "http://hl7.eu/fhir/laboratory/StructureDefinition/Observation-resultslab-eu-lab"
          ]
        },
        "performer": [
          {
            "display": "The Central European Lab"
          }
        ],
        "category": [
          {
            "coding": [
              {
                "system": "http://terminology.hl7.org/CodeSystem/observation-category",
                "code": "laboratory"
              }
            ]
          }
        ],
        "code": {
          "coding": [
            {
              "code": "49765-1",
              "system": "http://loinc.org",
              "display": "Calcium [Mass/volume] in Blood"
            }
          ],
          "text": "Calcium [Mass/volume] in Blood"
        },
        "valueQuantity": {
          "system": "http://unitsofmeasure.org",
          "value": 8.8,
          "unit": "mg/dL",
          "code": "mg/dL"
        },
        "referenceRange": [
          {
            "low": {
              "value": 8.6,
              "code": "mg/dL",
              "system": "http://unitsofmeasure.org"
            }
          },
          {
            "high": {
              "value": 10.4,
              "code": "mg/dL",
              "system": "http://unitsofmeasure.org"
            }
          }
        ],
        "text": {
          "status": "generated",
          "div": "<div xmlns=\"http://www.w3.org/1999/xhtml\"><table class=\"hl7__eu__lab__report\"><tr><th>Test</th><th>13-Nov-2015</th><th>Reference&#xA0;Range</th><th>Unit</th></tr><tr><td>Calcium [Mass/volume] in Blood</td><td>8.8</td><td>8.6 - 10.4</td><td></td><td>mg/dL</td></tr></table></div>"
        },
        "status": "final",
        "subject": {
          "reference": "urn:uuid:7eaa13df-a25f-430c-9b0e-a8861164b2ea",
          "display": "Iva Kratochvílová"
        },
        "effectiveDateTime": "2015-11-13T06:31:29Z",
        "specimen": {
          "reference": "urn:uuid:aef2d45c-85b7-4fe9-9134-d1b95d52aa76"
        }
      }
    },
    {
      "fullUrl": "urn:uuid:23705f91-27f5-4e31-b3b2-21e59d0ec017",
      "resource": {
        "resourceType": "Observation",
        "id": "23705f91-27f5-4e31-b3b2-21e59d0ec017",
        "meta": {
          "profile": [
            "http://hl7.eu/fhir/laboratory/StructureDefinition/Observation-resultslab-eu-lab"
          ]
        },
        "performer": [
          {
            "display": "The Central European Lab"
          }
        ],
        "category": [
          {
            "coding": [
              {
                "system": "http://terminology.hl7.org/CodeSystem/observation-category",
                "code": "laboratory"
              }
            ]
          }
        ],
        "code": {
          "coding": [
            {
              "code": "2947-0",
              "system": "http://loinc.org",
              "display": "Sodium [Moles/volume] in Blood"
            }
          ],
          "text": "Sodium [Moles/volume] in Blood"
        },
        "valueQuantity": {
          "system": "http://unitsofmeasure.org",
          "value": 144,
          "unit": "mmol/L",
          "code": "mmol/L"
        },
        "referenceRange": [
          {
            "low": {
              "value": 135,
              "code": "mmol/L",
              "system": "http://unitsofmeasure.org"
            }
          },
          {
            "high": {
              "value": 145,
              "code": "mmol/L",
              "system": "http://unitsofmeasure.org"
            }
          }
        ],
        "text": {
          "status": "generated",
          "div": "<div xmlns=\"http://www.w3.org/1999/xhtml\"><table class=\"hl7__eu__lab__report\"><tr><th>Test</th><th>13-Nov-2015</th><th>Reference&#xA0;Range</th><th>Unit</th></tr><tr><td>Sodium [Moles/volume] in Blood</td><td>144.0</td><td>135 - 145</td><td></td><td>mmol/L</td></tr></table></div>"
        },
        "status": "final",
        "subject": {
          "reference": "urn:uuid:7eaa13df-a25f-430c-9b0e-a8861164b2ea",
          "display": "Iva Kratochvílová"
        },
        "effectiveDateTime": "2015-11-13T06:31:29Z",
        "specimen": {
          "reference": "urn:uuid:aef2d45c-85b7-4fe9-9134-d1b95d52aa76"
        }
      }
    },
    {
      "fullUrl": "urn:uuid:d73dda76-8e28-4673-80b6-da8ed727917d",
      "resource": {
        "resourceType": "Observation",
        "id": "d73dda76-8e28-4673-80b6-da8ed727917d",
        "meta": {
          "profile": [
            "http://hl7.eu/fhir/laboratory/StructureDefinition/Observation-resultslab-eu-lab"
          ]
        },
        "performer": [
          {
            "display": "The Central European Lab"
          }
        ],
        "category": [
          {
            "coding": [
              {
                "system": "http://terminology.hl7.org/CodeSystem/observation-category",
                "code": "laboratory"
              }
            ]
          }
        ],
        "code": {
          "coding": [
            {
              "code": "6298-4",
              "system": "http://loinc.org",
              "display": "Potassium [Moles/volume] in Blood"
            }
          ],
          "text": "Potassium [Moles/volume] in Blood"
        },
        "valueQuantity": {
          "system": "http://unitsofmeasure.org",
          "value": 3.8,
          "unit": "mmol/L",
          "code": "mmol/L"
        },
        "referenceRange": [
          {
            "low": {
              "value": 3.5,
              "code": "mmol/L",
              "system": "http://unitsofmeasure.org"
            }
          },
          {
            "high": {
              "value": 5.1,
              "code": "mmol/L",
              "system": "http://unitsofmeasure.org"
            }
          }
        ],
        "text": {
          "status": "generated",
          "div": "<div xmlns=\"http://www.w3.org/1999/xhtml\"><table class=\"hl7__eu__lab__report\"><tr><th>Test</th><th>13-Nov-2015</th><th>Reference&#xA0;Range</th><th>Unit</th></tr><tr><td>Potassium [Moles/volume] in Blood</td><td>3.8</td><td>3.5 - 5.1</td><td></td><td>mmol/L</td></tr></table></div>"
        },
        "status": "final",
        "subject": {
          "reference": "urn:uuid:7eaa13df-a25f-430c-9b0e-a8861164b2ea",
          "display": "Iva Kratochvílová"
        },
        "effectiveDateTime": "2015-11-13T06:31:29Z",
        "specimen": {
          "reference": "urn:uuid:aef2d45c-85b7-4fe9-9134-d1b95d52aa76"
        }
      }
    },
    {
      "fullUrl": "urn:uuid:64f65586-b0d8-4641-933c-07aa871cc1de",
      "resource": {
        "resourceType": "Observation",
        "id": "64f65586-b0d8-4641-933c-07aa871cc1de",
        "meta": {
          "profile": [
            "http://hl7.eu/fhir/laboratory/StructureDefinition/Observation-resultslab-eu-lab"
          ]
        },
        "performer": [
          {
            "display": "The Central European Lab"
          }
        ],
        "category": [
          {
            "coding": [
              {
                "system": "http://terminology.hl7.org/CodeSystem/observation-category",
                "code": "laboratory"
              }
            ]
          }
        ],
        "code": {
          "coding": [
            {
              "code": "2069-3",
              "system": "http://loinc.org",
              "display": "Chloride [Moles/volume] in Blood"
            }
          ],
          "text": "Chloride [Moles/volume] in Blood"
        },
        "valueQuantity": {
          "system": "http://unitsofmeasure.org",
          "value": 101.9,
          "unit": "mmol/L",
          "code": "mmol/L"
        },
        "referenceRange": [
          {
            "low": {
              "value": 98,
              "code": "mmol/L",
              "system": "http://unitsofmeasure.org"
            }
          },
          {
            "high": {
              "value": 110,
              "code": "mmol/L",
              "system": "http://unitsofmeasure.org"
            }
          }
        ],
        "text": {
          "status": "generated",
          "div": "<div xmlns=\"http://www.w3.org/1999/xhtml\"><table class=\"hl7__eu__lab__report\"><tr><th>Test</th><th>13-Nov-2015</th><th>Reference&#xA0;Range</th><th>Unit</th></tr><tr><td>Chloride [Moles/volume] in Blood</td><td>101.9</td><td>98 - 110</td><td></td><td>mmol/L</td></tr></table></div>"
        },
        "status": "final",
        "subject": {
          "reference": "urn:uuid:7eaa13df-a25f-430c-9b0e-a8861164b2ea",
          "display": "Iva Kratochvílová"
        },
        "effectiveDateTime": "2015-11-13T06:31:29Z",
        "specimen": {
          "reference": "urn:uuid:aef2d45c-85b7-4fe9-9134-d1b95d52aa76"
        }
      }
    },
    {
      "fullUrl": "urn:uuid:004667d6-7f12-43ce-ba58-a4c67775e1e3",
      "resource": {
        "resourceType": "Observation",
        "id": "004667d6-7f12-43ce-ba58-a4c67775e1e3",
        "meta": {
          "profile": [
            "http://hl7.eu/fhir/laboratory/StructureDefinition/Observation-resultslab-eu-lab"
          ]
        },
        "performer": [
          {
            "display": "The Central European Lab"
          }
        ],
        "category": [
          {
            "coding": [
              {
                "system": "http://terminology.hl7.org/CodeSystem/observation-category",
                "code": "laboratory"
              }
            ]
          }
        ],
        "code": {
          "coding": [
            {
              "code": "20565-8",
              "system": "http://loinc.org",
              "display": "Carbon dioxide, total [Moles/volume] in Blood"
            }
          ],
          "text": "Carbon dioxide, total [Moles/volume] in Blood"
        },
        "valueQuantity": {
          "system": "http://unitsofmeasure.org",
          "value": 23,
          "unit": "mmol/L",
          "code": "mmol/L"
        },
        "referenceRange": [
          {
            "low": {
              "value": 22,
              "code": "mmol/L",
              "system": "http://unitsofmeasure.org"
            }
          },
          {
            "high": {
              "value": 29,
              "code": "mmol/L",
              "system": "http://unitsofmeasure.org"
            }
          }
        ],
        "text": {
          "status": "generated",
          "div": "<div xmlns=\"http://www.w3.org/1999/xhtml\"><table class=\"hl7__eu__lab__report\"><tr><th>Test</th><th>13-Nov-2015</th><th>Reference&#xA0;Range</th><th>Unit</th></tr><tr><td>Carbon dioxide, total [Moles/volume] in Blood</td><td>23.0</td><td>22 - 29</td><td></td><td>mmol/L</td></tr></table></div>"
        },
        "status": "final",
        "subject": {
          "reference": "urn:uuid:7eaa13df-a25f-430c-9b0e-a8861164b2ea",
          "display": "Iva Kratochvílová"
        },
        "effectiveDateTime": "2015-11-13T06:31:29Z",
        "specimen": {
          "reference": "urn:uuid:aef2d45c-85b7-4fe9-9134-d1b95d52aa76"
        }
      }
    },
    {
      "fullUrl": "urn:uuid:02c3b021-5aef-4aff-9937-94baa8070f91",
      "resource": {
        "resourceType": "Observation",
        "id": "02c3b021-5aef-4aff-9937-94baa8070f91",
        "meta": {
          "profile": [
            "http://hl7.eu/fhir/laboratory/StructureDefinition/Observation-resultslab-eu-lab"
          ]
        },
        "performer": [
          {
            "display": "The Central European Lab"
          }
        ],
        "category": [
          {
            "coding": [
              {
                "system": "http://terminology.hl7.org/CodeSystem/observation-category",
                "code": "laboratory"
              }
            ]
          }
        ],
        "code": {
          "coding": [
            {
              "code": "2885-2",
              "system": "http://loinc.org",
              "display": "Protein [Mass/volume] in Serum or Plasma"
            }
          ],
          "text": "Protein [Mass/volume] in Serum or Plasma"
        },
        "valueQuantity": {
          "system": "http://unitsofmeasure.org",
          "value": 6.4,
          "unit": "g/dL",
          "code": "g/dL"
        },
        "referenceRange": [
          {
            "low": {
              "value": 6.6,
              "code": "g/dL",
              "system": "http://unitsofmeasure.org"
            }
          },
          {
            "high": {
              "value": 8.3,
              "code": "g/dL",
              "system": "http://unitsofmeasure.org"
            }
          }
        ],
        "interpretation": [
          {
            "coding": [
              {
                "code": "L",
                "system": "http://terminology.hl7.org/CodeSystem/v3-ObservationInterpretation",
                "display": "Low"
              }
            ]
          }
        ],
        "text": {
          "status": "generated",
          "div": "<div xmlns=\"http://www.w3.org/1999/xhtml\"><table class=\"hl7__eu__lab__report\"><tr><th>Test</th><th>13-Nov-2015</th><th>Reference&#xA0;Range</th><th>Unit</th></tr><tr><td>Protein [Mass/volume] in Serum or Plasma</td><td>6.4</td><td>6.6 - 8.3</td><td>L</td><td>g/dL</td></tr></table></div>"
        },
        "status": "final",
        "subject": {
          "reference": "urn:uuid:7eaa13df-a25f-430c-9b0e-a8861164b2ea",
          "display": "Iva Kratochvílová"
        },
        "effectiveDateTime": "2015-11-13T06:31:29Z",
        "specimen": {
          "reference": "urn:uuid:f1162025-edb5-4789-bd84-e98a4e4913c2"
        }
      }
    },
    {
      "fullUrl": "urn:uuid:079257dc-0f78-4376-9d5d-693bab5f8bea",
      "resource": {
        "resourceType": "Observation",
        "id": "079257dc-0f78-4376-9d5d-693bab5f8bea",
        "meta": {
          "profile": [
            "http://hl7.eu/fhir/laboratory/StructureDefinition/Observation-resultslab-eu-lab"
          ]
        },
        "performer": [
          {
            "display": "The Central European Lab"
          }
        ],
        "category": [
          {
            "coding": [
              {
                "system": "http://terminology.hl7.org/CodeSystem/observation-category",
                "code": "laboratory"
              }
            ]
          }
        ],
        "code": {
          "coding": [
            {
              "code": "1751-7",
              "system": "http://loinc.org",
              "display": "Albumin [Mass/volume] in Serum or Plasma"
            }
          ],
          "text": "Albumin [Mass/volume] in Serum or Plasma"
        },
        "valueQuantity": {
          "system": "http://unitsofmeasure.org",
          "value": 4.5,
          "unit": "g/dL",
          "code": "g/dL"
        },
        "referenceRange": [
          {
            "low": {
              "value": 3.5,
              "code": "g/dL",
              "system": "http://unitsofmeasure.org"
            }
          },
          {
            "high": {
              "value": 5,
              "code": "g/dL",
              "system": "http://unitsofmeasure.org"
            }
          }
        ],
        "text": {
          "status": "generated",
          "div": "<div xmlns=\"http://www.w3.org/1999/xhtml\"><table class=\"hl7__eu__lab__report\"><tr><th>Test</th><th>13-Nov-2015</th><th>Reference&#xA0;Range</th><th>Unit</th></tr><tr><td>Albumin [Mass/volume] in Serum or Plasma</td><td>4.5</td><td>3.5 - 5</td><td></td><td>g/dL</td></tr></table></div>"
        },
        "status": "final",
        "subject": {
          "reference": "urn:uuid:7eaa13df-a25f-430c-9b0e-a8861164b2ea",
          "display": "Iva Kratochvílová"
        },
        "effectiveDateTime": "2015-11-13T06:31:29Z",
        "specimen": {
          "reference": "urn:uuid:f1162025-edb5-4789-bd84-e98a4e4913c2"
        }
      }
    },
    {
      "fullUrl": "urn:uuid:5dded677-7e2b-4f30-ac4c-b26b6015a424",
      "resource": {
        "resourceType": "Observation",
        "id": "5dded677-7e2b-4f30-ac4c-b26b6015a424",
        "meta": {
          "profile": [
            "http://hl7.eu/fhir/laboratory/StructureDefinition/Observation-resultslab-eu-lab"
          ]
        },
        "performer": [
          {
            "display": "The Central European Lab"
          }
        ],
        "category": [
          {
            "coding": [
              {
                "system": "http://terminology.hl7.org/CodeSystem/observation-category",
                "code": "laboratory"
              }
            ]
          }
        ],
        "code": {
          "coding": [
            {
              "code": "10834-0",
              "system": "http://loinc.org",
              "display": "Globulin [Mass/volume] in Serum by calculation"
            }
          ],
          "text": "Globulin [Mass/volume] in Serum by calculation"
        },
        "valueQuantity": {
          "system": "http://unitsofmeasure.org",
          "value": 2,
          "unit": "g/L",
          "code": "g/L"
        },
        "referenceRange": [
          {
            "low": {
              "value": 2,
              "code": "g/L",
              "system": "http://unitsofmeasure.org"
            }
          },
          {
            "high": {
              "value": 3.5,
              "code": "g/L",
              "system": "http://unitsofmeasure.org"
            }
          }
        ],
        "text": {
          "status": "generated",
          "div": "<div xmlns=\"http://www.w3.org/1999/xhtml\"><table class=\"hl7__eu__lab__report\"><tr><th>Test</th><th>13-Nov-2015</th><th>Reference&#xA0;Range</th><th>Unit</th></tr><tr><td>Globulin [Mass/volume] in Serum by calculation</td><td>2.0</td><td>2 - 3.5</td><td></td><td>g/L</td></tr></table></div>"
        },
        "status": "final",
        "subject": {
          "reference": "urn:uuid:7eaa13df-a25f-430c-9b0e-a8861164b2ea",
          "display": "Iva Kratochvílová"
        },
        "effectiveDateTime": "2015-11-13T06:31:29Z",
        "specimen": {
          "reference": "urn:uuid:256877db-c17e-4e90-9214-62134173d46f"
        }
      }
    },
    {
      "fullUrl": "urn:uuid:6be38938-799c-460d-8079-354acabde26a",
      "resource": {
        "resourceType": "Observation",
        "id": "6be38938-799c-460d-8079-354acabde26a",
        "meta": {
          "profile": [
            "http://hl7.eu/fhir/laboratory/StructureDefinition/Observation-resultslab-eu-lab"
          ]
        },
        "performer": [
          {
            "display": "The Central European Lab"
          }
        ],
        "category": [
          {
            "coding": [
              {
                "system": "http://terminology.hl7.org/CodeSystem/observation-category",
                "code": "laboratory"
              }
            ]
          }
        ],
        "code": {
          "coding": [
            {
              "code": "1975-2",
              "system": "http://loinc.org",
              "display": "Bilirubin.total [Mass/volume] in Serum or Plasma"
            }
          ],
          "text": "Bilirubin.total [Mass/volume] in Serum or Plasma"
        },
        "valueQuantity": {
          "system": "http://unitsofmeasure.org",
          "value": 0.2,
          "unit": "mg/dL",
          "code": "mg/dL"
        },
        "referenceRange": [
          {
            "low": {
              "value": 0.3,
              "code": "mg/dL",
              "system": "http://unitsofmeasure.org"
            }
          },
          {
            "high": {
              "value": 1.2,
              "code": "mg/dL",
              "system": "http://unitsofmeasure.org"
            }
          }
        ],
        "interpretation": [
          {
            "coding": [
              {
                "code": "L",
                "system": "http://terminology.hl7.org/CodeSystem/v3-ObservationInterpretation",
                "display": "Low"
              }
            ]
          }
        ],
        "text": {
          "status": "generated",
          "div": "<div xmlns=\"http://www.w3.org/1999/xhtml\"><table class=\"hl7__eu__lab__report\"><tr><th>Test</th><th>13-Nov-2015</th><th>Reference&#xA0;Range</th><th>Unit</th></tr><tr><td>Bilirubin.total [Mass/volume] in Serum or Plasma</td><td>0.2</td><td>0.3 - 1.2</td><td>L</td><td>mg/dL</td></tr></table></div>"
        },
        "status": "final",
        "subject": {
          "reference": "urn:uuid:7eaa13df-a25f-430c-9b0e-a8861164b2ea",
          "display": "Iva Kratochvílová"
        },
        "effectiveDateTime": "2015-11-13T06:31:29Z",
        "specimen": {
          "reference": "urn:uuid:f1162025-edb5-4789-bd84-e98a4e4913c2"
        }
      }
    },
    {
      "fullUrl": "urn:uuid:02e23ca0-11c1-4b55-8a1a-887322ec1e56",
      "resource": {
        "resourceType": "Observation",
        "id": "02e23ca0-11c1-4b55-8a1a-887322ec1e56",
        "meta": {
          "profile": [
            "http://hl7.eu/fhir/laboratory/StructureDefinition/Observation-resultslab-eu-lab"
          ]
        },
        "performer": [
          {
            "display": "The Central European Lab"
          }
        ],
        "category": [
          {
            "coding": [
              {
                "system": "http://terminology.hl7.org/CodeSystem/observation-category",
                "code": "laboratory"
              }
            ]
          }
        ],
        "code": {
          "coding": [
            {
              "code": "6768-6",
              "system": "http://loinc.org",
              "display": "Alkaline phosphatase [Enzymatic activity/volume] in Serum or Plasma"
            }
          ],
          "text": "Alkaline phosphatase [Enzymatic activity/volume] in Serum or Plasma"
        },
        "valueQuantity": {
          "system": "http://unitsofmeasure.org",
          "value": 72.1,
          "unit": "U/L",
          "code": "U/L"
        },
        "referenceRange": [
          {
            "low": {
              "value": 39,
              "code": "U/L",
              "system": "http://unitsofmeasure.org"
            }
          },
          {
            "high": {
              "value": 141,
              "code": "U/L",
              "system": "http://unitsofmeasure.org"
            }
          }
        ],
        "text": {
          "status": "generated",
          "div": "<div xmlns=\"http://www.w3.org/1999/xhtml\"><table class=\"hl7__eu__lab__report\"><tr><th>Test</th><th>13-Nov-2015</th><th>Reference&#xA0;Range</th><th>Unit</th></tr><tr><td>Alkaline phosphatase [Enzymatic activity/volume] in Serum or Plasma</td><td>72.1</td><td>39 - 141</td><td></td><td>U/L</td></tr></table></div>"
        },
        "status": "final",
        "subject": {
          "reference": "urn:uuid:7eaa13df-a25f-430c-9b0e-a8861164b2ea",
          "display": "Iva Kratochvílová"
        },
        "effectiveDateTime": "2015-11-13T06:31:29Z",
        "specimen": {
          "reference": "urn:uuid:f1162025-edb5-4789-bd84-e98a4e4913c2"
        }
      }
    },
    {
      "fullUrl": "urn:uuid:e3a6423a-9c22-4061-b8ea-13d701ba0f4a",
      "resource": {
        "resourceType": "Observation",
        "id": "e3a6423a-9c22-4061-b8ea-13d701ba0f4a",
        "meta": {
          "profile": [
            "http://hl7.eu/fhir/laboratory/StructureDefinition/Observation-resultslab-eu-lab"
          ]
        },
        "performer": [
          {
            "display": "The Central European Lab"
          }
        ],
        "category": [
          {
            "coding": [
              {
                "system": "http://terminology.hl7.org/CodeSystem/observation-category",
                "code": "laboratory"
              }
            ]
          }
        ],
        "code": {
          "coding": [
            {
              "code": "1742-6",
              "system": "http://loinc.org",
              "display": "Alanine aminotransferase [Enzymatic activity/volume] in Serum or Plasma"
            }
          ],
          "text": "Alanine aminotransferase [Enzymatic activity/volume] in Serum or Plasma"
        },
        "valueQuantity": {
          "system": "http://unitsofmeasure.org",
          "value": 39.1,
          "unit": "U/L",
          "code": "U/L"
        },
        "referenceRange": [
          {
            "low": {
              "value": 7,
              "code": "U/L",
              "system": "http://unitsofmeasure.org"
            }
          },
          {
            "high": {
              "value": 40,
              "code": "U/L",
              "system": "http://unitsofmeasure.org"
            }
          }
        ],
        "text": {
          "status": "generated",
          "div": "<div xmlns=\"http://www.w3.org/1999/xhtml\"><table class=\"hl7__eu__lab__report\"><tr><th>Test</th><th>13-Nov-2015</th><th>Reference&#xA0;Range</th><th>Unit</th></tr><tr><td>Alanine aminotransferase [Enzymatic activity/volume] in Serum or Plasma</td><td>39.1</td><td>7 - 40</td><td></td><td>U/L</td></tr></table></div>"
        },
        "status": "final",
        "subject": {
          "reference": "urn:uuid:7eaa13df-a25f-430c-9b0e-a8861164b2ea",
          "display": "Iva Kratochvílová"
        },
        "effectiveDateTime": "2015-11-13T06:31:29Z",
        "specimen": {
          "reference": "urn:uuid:f1162025-edb5-4789-bd84-e98a4e4913c2"
        }
      }
    },
    {
      "fullUrl": "urn:uuid:b3881c6a-cb19-466a-af61-d996d124c9bc",
      "resource": {
        "resourceType": "Observation",
        "id": "b3881c6a-cb19-466a-af61-d996d124c9bc",
        "meta": {
          "profile": [
            "http://hl7.eu/fhir/laboratory/StructureDefinition/Observation-resultslab-eu-lab"
          ]
        },
        "performer": [
          {
            "display": "The Central European Lab"
          }
        ],
        "category": [
          {
            "coding": [
              {
                "system": "http://terminology.hl7.org/CodeSystem/observation-category",
                "code": "laboratory"
              }
            ]
          }
        ],
        "code": {
          "coding": [
            {
              "code": "1920-8",
              "system": "http://loinc.org",
              "display": "Aspartate aminotransferase [Enzymatic activity/volume] in Serum or Plasma"
            }
          ],
          "text": "Aspartate aminotransferase [Enzymatic activity/volume] in Serum or Plasma"
        },
        "valueQuantity": {
          "system": "http://unitsofmeasure.org",
          "value": 21,
          "unit": "U/L",
          "code": "U/L"
        },
        "referenceRange": [
          {
            "low": {
              "value": 10,
              "code": "U/L",
              "system": "http://unitsofmeasure.org"
            }
          },
          {
            "high": {
              "value": 32,
              "code": "U/L",
              "system": "http://unitsofmeasure.org"
            }
          }
        ],
        "text": {
          "status": "generated",
          "div": "<div xmlns=\"http://www.w3.org/1999/xhtml\"><table class=\"hl7__eu__lab__report\"><tr><th>Test</th><th>13-Nov-2015</th><th>Reference&#xA0;Range</th><th>Unit</th></tr><tr><td>Aspartate aminotransferase [Enzymatic activity/volume] in Serum or Plasma</td><td>21.0</td><td>10 - 32</td><td></td><td>U/L</td></tr></table></div>"
        },
        "status": "final",
        "subject": {
          "reference": "urn:uuid:7eaa13df-a25f-430c-9b0e-a8861164b2ea",
          "display": "Iva Kratochvílová"
        },
        "effectiveDateTime": "2015-11-13T06:31:29Z",
        "specimen": {
          "reference": "urn:uuid:f1162025-edb5-4789-bd84-e98a4e4913c2"
        }
      }
    },
    {
      "fullUrl": "urn:uuid:73f0eae6-447c-4713-8232-cd8caa4b5da0",
      "resource": {
        "resourceType": "Observation",
        "id": "73f0eae6-447c-4713-8232-cd8caa4b5da0",
        "meta": {
          "profile": [
            "http://hl7.eu/fhir/laboratory/StructureDefinition/Observation-resultslab-eu-lab"
          ]
        },
        "performer": [
          {
            "display": "The Central European Lab"
          }
        ],
        "category": [
          {
            "coding": [
              {
                "system": "http://terminology.hl7.org/CodeSystem/observation-category",
                "code": "laboratory"
              }
            ]
          }
        ],
        "code": {
          "coding": [
            {
              "code": "5767-9",
              "system": "http://loinc.org",
              "display": "Appearance of Urine"
            }
          ],
          "text": "Appearance of Urine"
        },
        "text": {
          "status": "generated",
          "div": "<div xmlns=\"http://www.w3.org/1999/xhtml\"><table class=\"hl7__eu__lab__report\"><tr><th>Test</th><th>13-Nov-2015</th><th>Reference&#xA0;Range</th><th>Unit</th></tr><tr><td>Appearance of Urine</td></tr></table></div>"
        },
        "status": "final",
        "subject": {
          "reference": "urn:uuid:7eaa13df-a25f-430c-9b0e-a8861164b2ea",
          "display": "Iva Kratochvílová"
        },
        "effectiveDateTime": "2015-11-13T06:31:29Z",
        "specimen": {
          "reference": "urn:uuid:b0f8656f-3f04-4a1f-89b9-3d39d09f705f"
        }
      }
    },
    {
      "fullUrl": "urn:uuid:e26ecaa9-5731-41c5-8dd2-b934d76ba66d",
      "resource": {
        "resourceType": "Observation",
        "id": "e26ecaa9-5731-41c5-8dd2-b934d76ba66d",
        "meta": {
          "profile": [
            "http://hl7.eu/fhir/laboratory/StructureDefinition/Observation-resultslab-eu-lab"
          ]
        },
        "performer": [
          {
            "display": "The Central European Lab"
          }
        ],
        "category": [
          {
            "coding": [
              {
                "system": "http://terminology.hl7.org/CodeSystem/observation-category",
                "code": "laboratory"
              }
            ]
          }
        ],
        "code": {
          "coding": [
            {
              "code": "34533-0",
              "system": "http://loinc.org",
              "display": "Odor of Urine"
            }
          ],
          "text": "Odor of Urine"
        },
        "text": {
          "status": "generated",
          "div": "<div xmlns=\"http://www.w3.org/1999/xhtml\"><table class=\"hl7__eu__lab__report\"><tr><th>Test</th><th>13-Nov-2015</th><th>Reference&#xA0;Range</th><th>Unit</th></tr><tr><td>Odor of Urine</td></tr></table></div>"
        },
        "status": "final",
        "subject": {
          "reference": "urn:uuid:7eaa13df-a25f-430c-9b0e-a8861164b2ea",
          "display": "Iva Kratochvílová"
        },
        "effectiveDateTime": "2015-11-13T06:31:29Z",
        "specimen": {
          "reference": "urn:uuid:b0f8656f-3f04-4a1f-89b9-3d39d09f705f"
        }
      }
    },
    {
      "fullUrl": "urn:uuid:3f4640ab-1c47-4fba-837b-521f160264f7",
      "resource": {
        "resourceType": "Observation",
        "id": "3f4640ab-1c47-4fba-837b-521f160264f7",
        "meta": {
          "profile": [
            "http://hl7.eu/fhir/laboratory/StructureDefinition/Observation-resultslab-eu-lab"
          ]
        },
        "performer": [
          {
            "display": "The Central European Lab"
          }
        ],
        "category": [
          {
            "coding": [
              {
                "system": "http://terminology.hl7.org/CodeSystem/observation-category",
                "code": "laboratory"
              }
            ]
          }
        ],
        "code": {
          "coding": [
            {
              "code": "32167-9",
              "system": "http://loinc.org",
              "display": "Clarity of Urine"
            }
          ],
          "text": "Clarity of Urine"
        },
        "text": {
          "status": "generated",
          "div": "<div xmlns=\"http://www.w3.org/1999/xhtml\"><table class=\"hl7__eu__lab__report\"><tr><th>Test</th><th>13-Nov-2015</th><th>Reference&#xA0;Range</th><th>Unit</th></tr><tr><td>Clarity of Urine</td></tr></table></div>"
        },
        "status": "final",
        "subject": {
          "reference": "urn:uuid:7eaa13df-a25f-430c-9b0e-a8861164b2ea",
          "display": "Iva Kratochvílová"
        },
        "effectiveDateTime": "2015-11-13T06:31:29Z",
        "specimen": {
          "reference": "urn:uuid:b0f8656f-3f04-4a1f-89b9-3d39d09f705f"
        }
      }
    },
    {
      "fullUrl": "urn:uuid:50de79a0-4f96-4f11-b160-09cb312bd38d",
      "resource": {
        "resourceType": "Observation",
        "id": "50de79a0-4f96-4f11-b160-09cb312bd38d",
        "meta": {
          "profile": [
            "http://hl7.eu/fhir/laboratory/StructureDefinition/Observation-resultslab-eu-lab"
          ]
        },
        "performer": [
          {
            "display": "The Central European Lab"
          }
        ],
        "category": [
          {
            "coding": [
              {
                "system": "http://terminology.hl7.org/CodeSystem/observation-category",
                "code": "laboratory"
              }
            ]
          }
        ],
        "code": {
          "coding": [
            {
              "code": "5778-6",
              "system": "http://loinc.org",
              "display": "Color of Urine"
            }
          ],
          "text": "Color of Urine"
        },
        "text": {
          "status": "generated",
          "div": "<div xmlns=\"http://www.w3.org/1999/xhtml\"><table class=\"hl7__eu__lab__report\"><tr><th>Test</th><th>13-Nov-2015</th><th>Reference&#xA0;Range</th><th>Unit</th></tr><tr><td>Color of Urine</td></tr></table></div>"
        },
        "status": "final",
        "subject": {
          "reference": "urn:uuid:7eaa13df-a25f-430c-9b0e-a8861164b2ea",
          "display": "Iva Kratochvílová"
        },
        "effectiveDateTime": "2015-11-13T06:31:29Z",
        "specimen": {
          "reference": "urn:uuid:b0f8656f-3f04-4a1f-89b9-3d39d09f705f"
        }
      }
    },
    {
      "fullUrl": "urn:uuid:4893cc30-ec8f-46c7-807d-5c26f43fc749",
      "resource": {
        "resourceType": "Observation",
        "id": "4893cc30-ec8f-46c7-807d-5c26f43fc749",
        "meta": {
          "profile": [
            "http://hl7.eu/fhir/laboratory/StructureDefinition/Observation-resultslab-eu-lab"
          ]
        },
        "performer": [
          {
            "display": "The Central European Lab"
          }
        ],
        "category": [
          {
            "coding": [
              {
                "system": "http://terminology.hl7.org/CodeSystem/observation-category",
                "code": "laboratory"
              }
            ]
          }
        ],
        "code": {
          "coding": [
            {
              "code": "5792-7",
              "system": "http://loinc.org",
              "display": "Glucose [Mass/volume] in Urine by Test strip"
            }
          ],
          "text": "Glucose [Mass/volume] in Urine by Test strip"
        },
        "valueQuantity": {
          "system": "http://unitsofmeasure.org",
          "value": 1.7,
          "unit": "mg/dL",
          "code": "mg/dL"
        },
        "referenceRange": [
          {
            "low": {
              "value": 0,
              "code": "mg/dL",
              "system": "http://unitsofmeasure.org"
            }
          },
          {
            "high": {
              "value": 0.8,
              "code": "mg/dL",
              "system": "http://unitsofmeasure.org"
            }
          }
        ],
        "interpretation": [
          {
            "coding": [
              {
                "code": "H",
                "system": "http://terminology.hl7.org/CodeSystem/v3-ObservationInterpretation",
                "display": "High"
              }
            ]
          }
        ],
        "text": {
          "status": "generated",
          "div": "<div xmlns=\"http://www.w3.org/1999/xhtml\"><table class=\"hl7__eu__lab__report\"><tr><th>Test</th><th>13-Nov-2015</th><th>Reference&#xA0;Range</th><th>Unit</th></tr><tr><td>Glucose [Mass/volume] in Urine by Test strip</td><td>1.7</td><td>0 - 0.8</td><td>H</td><td>mg/dL</td></tr></table></div>"
        },
        "status": "final",
        "subject": {
          "reference": "urn:uuid:7eaa13df-a25f-430c-9b0e-a8861164b2ea",
          "display": "Iva Kratochvílová"
        },
        "effectiveDateTime": "2015-11-13T06:31:29Z",
        "specimen": {
          "reference": "urn:uuid:b0f8656f-3f04-4a1f-89b9-3d39d09f705f"
        }
      }
    },
    {
      "fullUrl": "urn:uuid:24ce05a0-b551-4261-9979-12a7e792b49f",
      "resource": {
        "resourceType": "Observation",
        "id": "24ce05a0-b551-4261-9979-12a7e792b49f",
        "meta": {
          "profile": [
            "http://hl7.eu/fhir/laboratory/StructureDefinition/Observation-resultslab-eu-lab"
          ]
        },
        "performer": [
          {
            "display": "The Central European Lab"
          }
        ],
        "category": [
          {
            "coding": [
              {
                "system": "http://terminology.hl7.org/CodeSystem/observation-category",
                "code": "laboratory"
              }
            ]
          }
        ],
        "code": {
          "coding": [
            {
              "code": "25428-4",
              "system": "http://loinc.org",
              "display": "Glucose [Presence] in Urine by Test strip"
            }
          ],
          "text": "Glucose [Presence] in Urine by Test strip"
        },
        "text": {
          "status": "generated",
          "div": "<div xmlns=\"http://www.w3.org/1999/xhtml\"><table class=\"hl7__eu__lab__report\"><tr><th>Test</th><th>13-Nov-2015</th><th>Reference&#xA0;Range</th><th>Unit</th></tr><tr><td>Glucose [Presence] in Urine by Test strip</td></tr></table></div>"
        },
        "status": "final",
        "subject": {
          "reference": "urn:uuid:7eaa13df-a25f-430c-9b0e-a8861164b2ea",
          "display": "Iva Kratochvílová"
        },
        "effectiveDateTime": "2015-11-13T06:31:29Z",
        "specimen": {
          "reference": "urn:uuid:b0f8656f-3f04-4a1f-89b9-3d39d09f705f"
        }
      }
    },
    {
      "fullUrl": "urn:uuid:195b7045-8223-408f-b6a3-48df9e13b782",
      "resource": {
        "resourceType": "Observation",
        "id": "195b7045-8223-408f-b6a3-48df9e13b782",
        "meta": {
          "profile": [
            "http://hl7.eu/fhir/laboratory/StructureDefinition/Observation-resultslab-eu-lab"
          ]
        },
        "performer": [
          {
            "display": "The Central European Lab"
          }
        ],
        "category": [
          {
            "coding": [
              {
                "system": "http://terminology.hl7.org/CodeSystem/observation-category",
                "code": "laboratory"
              }
            ]
          }
        ],
        "code": {
          "coding": [
            {
              "code": "20505-4",
              "system": "http://loinc.org",
              "display": "Bilirubin.total [Mass/volume] in Urine by Test strip"
            }
          ],
          "text": "Bilirubin.total [Mass/volume] in Urine by Test strip"
        },
        "valueQuantity": {
          "system": "http://unitsofmeasure.org",
          "value": 0.3,
          "unit": "mg/dL",
          "code": "mg/dL"
        },
        "referenceRange": [
          {
            "low": {
              "value": 0,
              "code": "mg/dL",
              "system": "http://unitsofmeasure.org"
            }
          },
          {
            "high": {
              "value": 1,
              "code": "mg/dL",
              "system": "http://unitsofmeasure.org"
            }
          }
        ],
        "text": {
          "status": "generated",
          "div": "<div xmlns=\"http://www.w3.org/1999/xhtml\"><table class=\"hl7__eu__lab__report\"><tr><th>Test</th><th>13-Nov-2015</th><th>Reference&#xA0;Range</th><th>Unit</th></tr><tr><td>Bilirubin.total [Mass/volume] in Urine by Test strip</td><td>0.3</td><td>0 - 1</td><td></td><td>mg/dL</td></tr></table></div>"
        },
        "status": "final",
        "subject": {
          "reference": "urn:uuid:7eaa13df-a25f-430c-9b0e-a8861164b2ea",
          "display": "Iva Kratochvílová"
        },
        "effectiveDateTime": "2015-11-13T06:31:29Z",
        "specimen": {
          "reference": "urn:uuid:b0f8656f-3f04-4a1f-89b9-3d39d09f705f"
        }
      }
    },
    {
      "fullUrl": "urn:uuid:1f7070bc-feba-4f15-b4b2-3c757f3ebc88",
      "resource": {
        "resourceType": "Observation",
        "id": "1f7070bc-feba-4f15-b4b2-3c757f3ebc88",
        "meta": {
          "profile": [
            "http://hl7.eu/fhir/laboratory/StructureDefinition/Observation-resultslab-eu-lab"
          ]
        },
        "performer": [
          {
            "display": "The Central European Lab"
          }
        ],
        "category": [
          {
            "coding": [
              {
                "system": "http://terminology.hl7.org/CodeSystem/observation-category",
                "code": "laboratory"
              }
            ]
          }
        ],
        "code": {
          "coding": [
            {
              "code": "5770-3",
              "system": "http://loinc.org",
              "display": "Bilirubin.total [Presence] in Urine by Test strip"
            }
          ],
          "text": "Bilirubin.total [Presence] in Urine by Test strip"
        },
        "text": {
          "status": "generated",
          "div": "<div xmlns=\"http://www.w3.org/1999/xhtml\"><table class=\"hl7__eu__lab__report\"><tr><th>Test</th><th>13-Nov-2015</th><th>Reference&#xA0;Range</th><th>Unit</th></tr><tr><td>Bilirubin.total [Presence] in Urine by Test strip</td></tr></table></div>"
        },
        "status": "final",
        "subject": {
          "reference": "urn:uuid:7eaa13df-a25f-430c-9b0e-a8861164b2ea",
          "display": "Iva Kratochvílová"
        },
        "effectiveDateTime": "2015-11-13T06:31:29Z",
        "specimen": {
          "reference": "urn:uuid:b0f8656f-3f04-4a1f-89b9-3d39d09f705f"
        }
      }
    },
    {
      "fullUrl": "urn:uuid:bd617215-d1e8-49b1-aa4c-3829521e525d",
      "resource": {
        "resourceType": "Observation",
        "id": "bd617215-d1e8-49b1-aa4c-3829521e525d",
        "meta": {
          "profile": [
            "http://hl7.eu/fhir/laboratory/StructureDefinition/Observation-resultslab-eu-lab"
          ]
        },
        "performer": [
          {
            "display": "The Central European Lab"
          }
        ],
        "category": [
          {
            "coding": [
              {
                "system": "http://terminology.hl7.org/CodeSystem/observation-category",
                "code": "laboratory"
              }
            ]
          }
        ],
        "code": {
          "coding": [
            {
              "code": "5797-6",
              "system": "http://loinc.org",
              "display": "Ketones [Mass/volume] in Urine by Test strip"
            }
          ],
          "text": "Ketones [Mass/volume] in Urine by Test strip"
        },
        "valueQuantity": {
          "system": "http://unitsofmeasure.org",
          "value": 19.2,
          "unit": "mg/dL",
          "code": "mg/dL"
        },
        "referenceRange": [
          {
            "low": {
              "value": 0,
              "code": "mg/dL",
              "system": "http://unitsofmeasure.org"
            }
          },
          {
            "high": {
              "value": 4,
              "code": "mg/dL",
              "system": "http://unitsofmeasure.org"
            }
          }
        ],
        "interpretation": [
          {
            "coding": [
              {
                "code": "H",
                "system": "http://terminology.hl7.org/CodeSystem/v3-ObservationInterpretation",
                "display": "High"
              }
            ]
          }
        ],
        "text": {
          "status": "generated",
          "div": "<div xmlns=\"http://www.w3.org/1999/xhtml\"><table class=\"hl7__eu__lab__report\"><tr><th>Test</th><th>13-Nov-2015</th><th>Reference&#xA0;Range</th><th>Unit</th></tr><tr><td>Ketones [Mass/volume] in Urine by Test strip</td><td>19.2</td><td>0 - 4</td><td>H</td><td>mg/dL</td></tr></table></div>"
        },
        "status": "final",
        "subject": {
          "reference": "urn:uuid:7eaa13df-a25f-430c-9b0e-a8861164b2ea",
          "display": "Iva Kratochvílová"
        },
        "effectiveDateTime": "2015-11-13T06:31:29Z",
        "specimen": {
          "reference": "urn:uuid:b0f8656f-3f04-4a1f-89b9-3d39d09f705f"
        }
      }
    },
    {
      "fullUrl": "urn:uuid:87a2a7d8-e6d8-4460-87d1-17ededc7e723",
      "resource": {
        "resourceType": "Observation",
        "id": "87a2a7d8-e6d8-4460-87d1-17ededc7e723",
        "meta": {
          "profile": [
            "http://hl7.eu/fhir/laboratory/StructureDefinition/Observation-resultslab-eu-lab"
          ]
        },
        "performer": [
          {
            "display": "The Central European Lab"
          }
        ],
        "category": [
          {
            "coding": [
              {
                "system": "http://terminology.hl7.org/CodeSystem/observation-category",
                "code": "laboratory"
              }
            ]
          }
        ],
        "code": {
          "coding": [
            {
              "code": "2514-8",
              "system": "http://loinc.org",
              "display": "Ketones [Presence] in Urine by Test strip"
            }
          ],
          "text": "Ketones [Presence] in Urine by Test strip"
        },
        "text": {
          "status": "generated",
          "div": "<div xmlns=\"http://www.w3.org/1999/xhtml\"><table class=\"hl7__eu__lab__report\"><tr><th>Test</th><th>13-Nov-2015</th><th>Reference&#xA0;Range</th><th>Unit</th></tr><tr><td>Ketones [Presence] in Urine by Test strip</td></tr></table></div>"
        },
        "status": "final",
        "subject": {
          "reference": "urn:uuid:7eaa13df-a25f-430c-9b0e-a8861164b2ea",
          "display": "Iva Kratochvílová"
        },
        "effectiveDateTime": "2015-11-13T06:31:29Z",
        "specimen": {
          "reference": "urn:uuid:b0f8656f-3f04-4a1f-89b9-3d39d09f705f"
        }
      }
    },
    {
      "fullUrl": "urn:uuid:2d792ac9-a260-474c-b40f-5eced4784f1a",
      "resource": {
        "resourceType": "Observation",
        "id": "2d792ac9-a260-474c-b40f-5eced4784f1a",
        "meta": {
          "profile": [
            "http://hl7.eu/fhir/laboratory/StructureDefinition/Observation-resultslab-eu-lab"
          ]
        },
        "performer": [
          {
            "display": "The Central European Lab"
          }
        ],
        "category": [
          {
            "coding": [
              {
                "system": "http://terminology.hl7.org/CodeSystem/observation-category",
                "code": "laboratory"
              }
            ]
          }
        ],
        "code": {
          "coding": [
            {
              "code": "5811-5",
              "system": "http://loinc.org",
              "display": "Specific gravity of Urine by Test strip"
            }
          ],
          "text": "Specific gravity of Urine by Test strip"
        },
        "valueQuantity": {
          "system": "http://unitsofmeasure.org",
          "value": 1,
          "unit": "{nominal}",
          "code": "{nominal}"
        },
        "referenceRange": [
          {
            "low": {
              "value": 1.005,
              "code": "g/mL",
              "system": "http://unitsofmeasure.org"
            }
          },
          {
            "high": {
              "value": 1.03,
              "code": "g/mL",
              "system": "http://unitsofmeasure.org"
            }
          }
        ],
        "interpretation": [
          {
            "coding": [
              {
                "code": "L",
                "system": "http://terminology.hl7.org/CodeSystem/v3-ObservationInterpretation",
                "display": "Low"
              }
            ]
          }
        ],
        "text": {
          "status": "generated",
          "div": "<div xmlns=\"http://www.w3.org/1999/xhtml\"><table class=\"hl7__eu__lab__report\"><tr><th>Test</th><th>13-Nov-2015</th><th>Reference&#xA0;Range</th><th>Unit</th></tr><tr><td>Specific gravity of Urine by Test strip</td><td>1.0</td><td>1.005 - 1.03</td><td>L</td><td>{nominal}</td></tr></table></div>"
        },
        "status": "final",
        "subject": {
          "reference": "urn:uuid:7eaa13df-a25f-430c-9b0e-a8861164b2ea",
          "display": "Iva Kratochvílová"
        },
        "effectiveDateTime": "2015-11-13T06:31:29Z",
        "specimen": {
          "reference": "urn:uuid:b0f8656f-3f04-4a1f-89b9-3d39d09f705f"
        }
      }
    },
    {
      "fullUrl": "urn:uuid:7234f4a8-1bff-41bf-a171-d6e3a7b202ea",
      "resource": {
        "resourceType": "Observation",
        "id": "7234f4a8-1bff-41bf-a171-d6e3a7b202ea",
        "meta": {
          "profile": [
            "http://hl7.eu/fhir/laboratory/StructureDefinition/Observation-resultslab-eu-lab"
          ]
        },
        "performer": [
          {
            "display": "The Central European Lab"
          }
        ],
        "category": [
          {
            "coding": [
              {
                "system": "http://terminology.hl7.org/CodeSystem/observation-category",
                "code": "laboratory"
              }
            ]
          }
        ],
        "code": {
          "coding": [
            {
              "code": "5803-2",
              "system": "http://loinc.org",
              "display": "pH of Urine by Test strip"
            }
          ],
          "text": "pH of Urine by Test strip"
        },
        "valueQuantity": {
          "system": "http://unitsofmeasure.org",
          "value": 5.4,
          "unit": "pH",
          "code": "pH"
        },
        "referenceRange": [
          {
            "low": {
              "value": 4.5,
              "code": "pH",
              "system": "http://unitsofmeasure.org"
            }
          },
          {
            "high": {
              "value": 7,
              "code": "pH",
              "system": "http://unitsofmeasure.org"
            }
          }
        ],
        "text": {
          "status": "generated",
          "div": "<div xmlns=\"http://www.w3.org/1999/xhtml\"><table class=\"hl7__eu__lab__report\"><tr><th>Test</th><th>13-Nov-2015</th><th>Reference&#xA0;Range</th><th>Unit</th></tr><tr><td>pH of Urine by Test strip</td><td>5.4</td><td>4.5 - 7</td><td></td><td>pH</td></tr></table></div>"
        },
        "status": "final",
        "subject": {
          "reference": "urn:uuid:7eaa13df-a25f-430c-9b0e-a8861164b2ea",
          "display": "Iva Kratochvílová"
        },
        "effectiveDateTime": "2015-11-13T06:31:29Z",
        "specimen": {
          "reference": "urn:uuid:b0f8656f-3f04-4a1f-89b9-3d39d09f705f"
        }
      }
    },
    {
      "fullUrl": "urn:uuid:e568cb81-9cc6-42d1-bc5f-407d6d254954",
      "resource": {
        "resourceType": "Observation",
        "id": "e568cb81-9cc6-42d1-bc5f-407d6d254954",
        "meta": {
          "profile": [
            "http://hl7.eu/fhir/laboratory/StructureDefinition/Observation-resultslab-eu-lab"
          ]
        },
        "performer": [
          {
            "display": "The Central European Lab"
          }
        ],
        "category": [
          {
            "coding": [
              {
                "system": "http://terminology.hl7.org/CodeSystem/observation-category",
                "code": "laboratory"
              }
            ]
          }
        ],
        "code": {
          "coding": [
            {
              "code": "5804-0",
              "system": "http://loinc.org",
              "display": "Protein [Mass/volume] in Urine by Test strip"
            }
          ],
          "text": "Protein [Mass/volume] in Urine by Test strip"
        },
        "valueQuantity": {
          "system": "http://unitsofmeasure.org",
          "value": 272.7,
          "unit": "mg/dL",
          "code": "mg/dL"
        },
        "referenceRange": [
          {
            "low": {
              "value": 0,
              "code": "mg/dL",
              "system": "http://unitsofmeasure.org"
            }
          },
          {
            "high": {
              "value": 145,
              "code": "mg/dL",
              "system": "http://unitsofmeasure.org"
            }
          }
        ],
        "interpretation": [
          {
            "coding": [
              {
                "code": "H",
                "system": "http://terminology.hl7.org/CodeSystem/v3-ObservationInterpretation",
                "display": "High"
              }
            ]
          }
        ],
        "text": {
          "status": "generated",
          "div": "<div xmlns=\"http://www.w3.org/1999/xhtml\"><table class=\"hl7__eu__lab__report\"><tr><th>Test</th><th>13-Nov-2015</th><th>Reference&#xA0;Range</th><th>Unit</th></tr><tr><td>Protein [Mass/volume] in Urine by Test strip</td><td>272.7</td><td>0 - 145</td><td>H</td><td>mg/dL</td></tr></table></div>"
        },
        "status": "final",
        "subject": {
          "reference": "urn:uuid:7eaa13df-a25f-430c-9b0e-a8861164b2ea",
          "display": "Iva Kratochvílová"
        },
        "effectiveDateTime": "2015-11-13T06:31:29Z",
        "specimen": {
          "reference": "urn:uuid:b0f8656f-3f04-4a1f-89b9-3d39d09f705f"
        }
      }
    },
    {
      "fullUrl": "urn:uuid:e11eae8e-5d5e-4fc9-9f94-2278a4642511",
      "resource": {
        "resourceType": "Observation",
        "id": "e11eae8e-5d5e-4fc9-9f94-2278a4642511",
        "meta": {
          "profile": [
            "http://hl7.eu/fhir/laboratory/StructureDefinition/Observation-resultslab-eu-lab"
          ]
        },
        "performer": [
          {
            "display": "The Central European Lab"
          }
        ],
        "category": [
          {
            "coding": [
              {
                "system": "http://terminology.hl7.org/CodeSystem/observation-category",
                "code": "laboratory"
              }
            ]
          }
        ],
        "code": {
          "coding": [
            {
              "code": "20454-5",
              "system": "http://loinc.org",
              "display": "Protein [Presence] in Urine by Test strip"
            }
          ],
          "text": "Protein [Presence] in Urine by Test strip"
        },
        "text": {
          "status": "generated",
          "div": "<div xmlns=\"http://www.w3.org/1999/xhtml\"><table class=\"hl7__eu__lab__report\"><tr><th>Test</th><th>13-Nov-2015</th><th>Reference&#xA0;Range</th><th>Unit</th></tr><tr><td>Protein [Presence] in Urine by Test strip</td></tr></table></div>"
        },
        "status": "final",
        "subject": {
          "reference": "urn:uuid:7eaa13df-a25f-430c-9b0e-a8861164b2ea",
          "display": "Iva Kratochvílová"
        },
        "effectiveDateTime": "2015-11-13T06:31:29Z",
        "specimen": {
          "reference": "urn:uuid:b0f8656f-3f04-4a1f-89b9-3d39d09f705f"
        }
      }
    },
    {
      "fullUrl": "urn:uuid:cbe6476b-42f7-4848-aeaf-d2608a0bb846",
      "resource": {
        "resourceType": "Observation",
        "id": "cbe6476b-42f7-4848-aeaf-d2608a0bb846",
        "meta": {
          "profile": [
            "http://hl7.eu/fhir/laboratory/StructureDefinition/Observation-resultslab-eu-lab"
          ]
        },
        "performer": [
          {
            "display": "The Central European Lab"
          }
        ],
        "category": [
          {
            "coding": [
              {
                "system": "http://terminology.hl7.org/CodeSystem/observation-category",
                "code": "laboratory"
              }
            ]
          }
        ],
        "code": {
          "coding": [
            {
              "code": "5802-4",
              "system": "http://loinc.org",
              "display": "Nitrite [Presence] in Urine by Test strip"
            }
          ],
          "text": "Nitrite [Presence] in Urine by Test strip"
        },
        "text": {
          "status": "generated",
          "div": "<div xmlns=\"http://www.w3.org/1999/xhtml\"><table class=\"hl7__eu__lab__report\"><tr><th>Test</th><th>13-Nov-2015</th><th>Reference&#xA0;Range</th><th>Unit</th></tr><tr><td>Nitrite [Presence] in Urine by Test strip</td></tr></table></div>"
        },
        "status": "final",
        "subject": {
          "reference": "urn:uuid:7eaa13df-a25f-430c-9b0e-a8861164b2ea",
          "display": "Iva Kratochvílová"
        },
        "effectiveDateTime": "2015-11-13T06:31:29Z",
        "specimen": {
          "reference": "urn:uuid:b0f8656f-3f04-4a1f-89b9-3d39d09f705f"
        }
      }
    },
    {
      "fullUrl": "urn:uuid:90a4e71b-9340-4b40-a311-f2e72d3267e7",
      "resource": {
        "resourceType": "Observation",
        "id": "90a4e71b-9340-4b40-a311-f2e72d3267e7",
        "meta": {
          "profile": [
            "http://hl7.eu/fhir/laboratory/StructureDefinition/Observation-resultslab-eu-lab"
          ]
        },
        "performer": [
          {
            "display": "The Central European Lab"
          }
        ],
        "category": [
          {
            "coding": [
              {
                "system": "http://terminology.hl7.org/CodeSystem/observation-category",
                "code": "laboratory"
              }
            ]
          }
        ],
        "code": {
          "coding": [
            {
              "code": "5794-3",
              "system": "http://loinc.org",
              "display": "Hemoglobin [Presence] in Urine by Test strip"
            }
          ],
          "text": "Hemoglobin [Presence] in Urine by Test strip"
        },
        "text": {
          "status": "generated",
          "div": "<div xmlns=\"http://www.w3.org/1999/xhtml\"><table class=\"hl7__eu__lab__report\"><tr><th>Test</th><th>13-Nov-2015</th><th>Reference&#xA0;Range</th><th>Unit</th></tr><tr><td>Hemoglobin [Presence] in Urine by Test strip</td></tr></table></div>"
        },
        "status": "final",
        "subject": {
          "reference": "urn:uuid:7eaa13df-a25f-430c-9b0e-a8861164b2ea",
          "display": "Iva Kratochvílová"
        },
        "effectiveDateTime": "2015-11-13T06:31:29Z",
        "specimen": {
          "reference": "urn:uuid:b0f8656f-3f04-4a1f-89b9-3d39d09f705f"
        }
      }
    },
    {
      "fullUrl": "urn:uuid:bb3e4d92-6786-4264-93f8-f3f3d8053dce",
      "resource": {
        "resourceType": "Observation",
        "id": "bb3e4d92-6786-4264-93f8-f3f3d8053dce",
        "meta": {
          "profile": [
            "http://hl7.eu/fhir/laboratory/StructureDefinition/Observation-resultslab-eu-lab"
          ]
        },
        "performer": [
          {
            "display": "The Central European Lab"
          }
        ],
        "category": [
          {
            "coding": [
              {
                "system": "http://terminology.hl7.org/CodeSystem/observation-category",
                "code": "laboratory"
              }
            ]
          }
        ],
        "code": {
          "coding": [
            {
              "code": "5799-2",
              "system": "http://loinc.org",
              "display": "Leukocyte esterase [Presence] in Urine by Test strip"
            }
          ],
          "text": "Leukocyte esterase [Presence] in Urine by Test strip"
        },
        "text": {
          "status": "generated",
          "div": "<div xmlns=\"http://www.w3.org/1999/xhtml\"><table class=\"hl7__eu__lab__report\"><tr><th>Test</th><th>13-Nov-2015</th><th>Reference&#xA0;Range</th><th>Unit</th></tr><tr><td>Leukocyte esterase [Presence] in Urine by Test strip</td></tr></table></div>"
        },
        "status": "final",
        "subject": {
          "reference": "urn:uuid:7eaa13df-a25f-430c-9b0e-a8861164b2ea",
          "display": "Iva Kratochvílová"
        },
        "effectiveDateTime": "2015-11-13T06:31:29Z",
        "specimen": {
          "reference": "urn:uuid:b0f8656f-3f04-4a1f-89b9-3d39d09f705f"
        }
      }
    },
    {
      "fullUrl": "urn:uuid:e0584258-875e-45bd-b02e-d5d1b452d0fa",
      "resource": {
        "resourceType": "Device",
        "id": "e0584258-875e-45bd-b02e-d5d1b452d0fa",
        "deviceName": [
          {
            "name": "SYNDERAI Synthetic Generator",
            "type": "manufacturer-name"
          }
        ],
        "version": [
          {
            "value": "5.0"
          }
        ],
        "text": {
          "status": "generated",
          "div": "<div xmlns=\"http://www.w3.org/1999/xhtml\">SYNDERAI Synthetic Generator v5.0</div>"
        },
        "status": "active\"",
        "distinctIdentifier": "synderai-generator-50",
        "manufacturer": "SYNDERAI Project"
      }
    },
    {
      "fullUrl": "urn:uuid:e0c2943f-285f-49d6-b165-c3ec2a463c04",
      "resource": {
        "resourceType": "Provenance",
        "id": "e0c2943f-285f-49d6-b165-c3ec2a463c04",
        "target": [
          {
            "reference": "Patient/7eaa13df-a25f-430c-9b0e-a8861164b2ea"
          },
          {
            "reference": "Bundle/c321c559-f538-42a4-bc7c-82d086d5e419"
          },
          {
            "reference": "Composition/68470c37-46ca-4a12-bd27-d5254ab5ac26"
          },
          {
            "reference": "PractitionerRole/40df978b-0699-48dd-b201-2be1b40f61cb"
          },
          {
            "reference": "Practitioner/29d0a399-106e-47c9-a670-fff510e4733a"
          },
          {
            "reference": "PractitionerRole/cb58403e-7d7d-4ca8-9687-df2667068f97"
          },
          {
            "reference": "Organization/427d8a0c-9b70-4e06-81db-caa763d14f1f"
          }
        ],
        "activity": {
          "text": "Synthetic Example Data Generation"
        },
        "policy": [
          "https://synderai.net/synderai-synthetic-data-policy"
        ],
        "agent": [
          {
            "type": {
              "text": "author"
            },
            "who": {
              "reference": "Device/e0584258-875e-45bd-b02e-d5d1b452d0fa"
            }
          }
        ],
        "reason": [
          {
            "text": "Interoperability Testing and Training (non-clinical use)"
          }
        ],
        "text": {
          "status": "generated",
          "div": "<div xmlns=\"http://www.w3.org/1999/xhtml\">Provenance for SYNDERAI Synthetic Example Data Resource</div>"
        },
        "recorded": "2015-11-13T07:31:29Z"
      }
    },
    {
      "fullUrl": "urn:uuid:40df978b-0699-48dd-b201-2be1b40f61cb",
      "resource": {
        "resourceType": "PractitionerRole",
        "id": "40df978b-0699-48dd-b201-2be1b40f61cb",
        "meta": {
          "profile": [
            "http://hl7.eu/fhir/base/StructureDefinition/practitionerRole-eu"
          ]
        },
        "text": {
          "status": "generated",
          "div": "<div xmlns=\"http://www.w3.org/1999/xhtml\">Laboratory Role Id: 40df978b-0699-48dd-b201-2be1b40f61cb</div>"
        },
        "practitioner": {
          "reference": "urn:uuid:29d0a399-106e-47c9-a670-fff510e4733a"
        }
      }
    },
    {
      "fullUrl": "urn:uuid:29d0a399-106e-47c9-a670-fff510e4733a",
      "resource": {
        "resourceType": "Practitioner",
        "id": "29d0a399-106e-47c9-a670-fff510e4733a",
        "meta": {
          "profile": [
            "http://hl7.eu/fhir/base/StructureDefinition/practitioner-eu"
          ]
        },
        "identifier": [
          {
            "assigner": {
              "display": "HL7 Europe"
            },
            "system": "urn:oid:2.16.840.1.113883.2.51.999",
            "value": "343a1622-1cbc-48a0-8b1e-a6295cb84af0"
          }
        ],
        "name": [
          {
            "prefix": [
              "dr"
            ],
            "given": [
              "Ex"
            ],
            "family": "Ample"
          }
        ],
        "address": [
          {
            "line": [
              "Laboratoire Central Européenne",
              "Boulevard du Jardin Botanique 32"
            ],
            "postalCode": "1000",
            "city": "Brussels",
            "country": "Belgium"
          }
        ],
        "text": {
          "status": "generated",
          "div": "<div xmlns=\"http://www.w3.org/1999/xhtml\">Laboratory: Laboratoire Central Européenne, 1000 Brussels, Belgium</div>"
        }
      }
    }
  ],
  "type": "document",
  "timestamp": "2015-11-13T07:31:29Z"
}
