{
  "resourceType": "Bundle",
  "id": "28dc05cd-ee56-4ab6-9bc7-d3f8bbdf4c99",
  "meta": {
    "profile": [
      "http://hl7.eu/fhir/laboratory/StructureDefinition/Bundle-eu-lab"
    ]
  },
  "identifier": {
    "assigner": {
      "display": "HL7 Europe"
    },
    "system": "urn:oid:2.16.840.1.113883.2.51.999",
    "value": "14d95e3b-d99a-437f-bba4-4982cc571e62"
  },
  "entry": [
    {
      "fullUrl": "urn:uuid:29fd031e-2c54-434a-a6be-a80b3d73b4f7",
      "resource": {
        "resourceType": "Composition",
        "id": "29fd031e-2c54-434a-a6be-a80b3d73b4f7",
        "meta": {
          "profile": [
            "http://hl7.eu/fhir/laboratory/StructureDefinition/Composition-eu-lab"
          ]
        },
        "identifier": {
          "assigner": {
            "display": "HL7 Europe"
          },
          "system": "urn:oid:2.16.840.1.113883.2.51.999",
          "value": "8f4ab0d1-b2de-4508-befd-bc48dc4216ec"
        },
        "author": [
          {
            "reference": "urn:uuid:325b6a4c-4b52-4144-b907-8cfe404632d0"
          }
        ],
        "category": [
          {
            "coding": [
              {
                "code": "26436-6",
                "system": "http://loinc.org",
                "display": "Laboratory studies (set)"
              }
            ]
          }
        ],
        "type": {
          "coding": [
            {
              "code": "11502-2",
              "system": "http://loinc.org",
              "display": "Laboratory report"
            }
          ],
          "text": "Laboratory Report"
        },
        "section": [
          {
            "code": {
              "coding": [
                {
                  "code": "26436-6",
                  "system": "http://loinc.org",
                  "display": "Laboratory studies (set)"
                }
              ],
              "text": "Laboratory studies"
            },
            "section": [
              {
                "code": {
                  "coding": [
                    {
                      "code": "$18719-5",
                      "system": "http://loinc.org",
                      "display": "Chemistry studies (set)"
                    }
                  ],
                  "text": "Chemistry"
                },
                "entry": [
                  {
                    "reference": "urn:uuid:687a3a06-5ae2-4ddd-a9b5-22838c698ee4"
                  },
                  {
                    "reference": "urn:uuid:864fbc90-195a-42bd-aa45-e13c8be2f1ed"
                  },
                  {
                    "reference": "urn:uuid:450ef569-2246-4cb7-98d5-1601c13a3452"
                  },
                  {
                    "reference": "urn:uuid:4832d3cc-6e37-4791-aa6c-c6c5f8e2ee4e"
                  },
                  {
                    "reference": "urn:uuid:49557740-0da5-4772-baee-40819c0a67c4"
                  },
                  {
                    "reference": "urn:uuid:d331ec11-1bab-46f2-9f51-99d873a17d4f"
                  },
                  {
                    "reference": "urn:uuid:5998fdbd-186c-493a-a8e3-1934a77ccc8f"
                  },
                  {
                    "reference": "urn:uuid:2917115d-4ec2-4515-84c4-471593f2c5a6"
                  },
                  {
                    "reference": "urn:uuid:d2164ae9-dfe0-4fef-b147-0d79d2931d9b"
                  },
                  {
                    "reference": "urn:uuid:2fb1175c-6169-43e9-8244-6b63dd3b8371"
                  },
                  {
                    "reference": "urn:uuid:a9e8e0e5-a240-4d78-8980-b7b12fa6e44a"
                  },
                  {
                    "reference": "urn:uuid:bc1d2d0c-c2d6-435e-b86f-c48a522b4651"
                  },
                  {
                    "reference": "urn:uuid:176ab432-9dc7-4523-80d1-902e0f0ead11"
                  },
                  {
                    "reference": "urn:uuid:f2355c95-a6b5-4ed9-97cc-47365b93d100"
                  },
                  {
                    "reference": "urn:uuid:d15c4a28-9291-4905-8c31-8f1acde30f48"
                  },
                  {
                    "reference": "urn:uuid:d439b1cb-1e18-4cd4-9ce9-fa4fe2358e36"
                  },
                  {
                    "reference": "urn:uuid:c2f008c0-60a0-4524-9b29-f96d793c0921"
                  },
                  {
                    "reference": "urn:uuid:4ae8225a-6253-470b-8078-f0ae880fadc7"
                  }
                ],
                "text": {
                  "status": "generated",
                  "div": "<div xmlns=\"http://www.w3.org/1999/xhtml\"><h3>Chemistry</h3><table class=\"hl7__eu__lab__report\"><thead><tr><th>Test</th><th>03-MAY-2024</th><th>Reference&#xA0;Range</th><th>Unit</th></tr></thead><tbody><tr><td>Glucose [Mass/volume] in Serum or Plasma</td><td>85.7</td><td>70 - 140</td><td>mg/dL</td></tr><tr><td>Urea nitrogen [Mass/volume] in Serum or Plasma</td><td>18.0</td><td>7 - 20</td><td>mg/dL</td></tr><tr><td>Creatinine [Mass/volume] in Serum or Plasma</td><td><strong>2.0 H</strong></td><td>0.9 - 1.3</td><td>mg/dL</td></tr><tr><td>Calcium [Mass/volume] in Serum or Plasma</td><td>9.1</td><td>8.5 - 10.5</td><td>mg/dL</td></tr><tr><td>Sodium [Moles/volume] in Serum or Plasma</td><td>141.2</td><td>135 - 145</td><td>mmol/L</td></tr><tr><td>Potassium [Moles/volume] in Serum or Plasma</td><td>4.1</td><td>3.5 - 5.3</td><td>mmol/L</td></tr><tr><td>Chloride [Moles/volume] in Serum or Plasma</td><td><strong>109.9 H</strong></td><td>98 - 107</td><td>mmol/L</td></tr><tr><td>Carbon dioxide, total [Moles/volume] in Serum or Plasma</td><td>23.8</td><td>22 - 33</td><td>mmol/L</td></tr><tr><td>Ketones [Presence] in Urine by Test strip</td><td>Urine ketone test = ++</td><td></td><td></td></tr><tr><td>Hemoglobin A1c/Hemoglobin.total in Blood</td><td><strong>3.2 L</strong></td><td>4.3 - 6</td><td>%</td></tr><tr><td>Glucose [Mass/volume] in Blood</td><td>85.7</td><td>70 - 140</td><td>mg/dL</td></tr><tr><td>Urea nitrogen [Mass/volume] in Blood</td><td>18.0</td><td>7 - 20</td><td>mg/dL</td></tr><tr><td>Creatinine [Mass/volume] in Blood</td><td><strong>2.7 H</strong></td><td>0.9 - 1.3</td><td>mg/dL</td></tr><tr><td>Calcium [Mass/volume] in Blood</td><td>9.1</td><td>8.5 - 10.5</td><td>mg/dL</td></tr><tr><td>Sodium [Moles/volume] in Blood</td><td>141.2</td><td>135 - 145</td><td>mmol/L</td></tr><tr><td>Potassium [Moles/volume] in Blood</td><td>4.1</td><td>3.5 - 5.1</td><td>mmol/L</td></tr><tr><td>Chloride [Moles/volume] in Blood</td><td><strong>109.9 H</strong></td><td>98 - 108</td><td>mmol/L</td></tr><tr><td>Carbon dioxide, total [Moles/volume] in Blood</td><td>23.8</td><td>22 - 29</td><td>mmol/L</td></tr></tbody></table></div>"
                },
                "title": "Chemistry"
              },
              {
                "code": {
                  "coding": [
                    {
                      "code": "$18729-4",
                      "system": "http://loinc.org",
                      "display": "Urinalysis studies (set)"
                    }
                  ],
                  "text": "Urinalysis"
                },
                "entry": [
                  {
                    "reference": "urn:uuid:dbe40dae-f707-493b-8553-c2fa0e022271"
                  },
                  {
                    "reference": "urn:uuid:e03f1049-e7fe-4e41-80a2-35f28e472783"
                  },
                  {
                    "reference": "urn:uuid:ab61c856-8531-4909-8387-6859a0a2b91b"
                  },
                  {
                    "reference": "urn:uuid:adcfa247-d10b-4073-aa57-acb50ade3ba3"
                  },
                  {
                    "reference": "urn:uuid:75a37a24-52e6-4936-a956-77c2a0fa6b30"
                  },
                  {
                    "reference": "urn:uuid:07a189e4-2f28-4a0a-8291-93729f0e0557"
                  },
                  {
                    "reference": "urn:uuid:c902f257-f727-41b1-99c8-3968d102824d"
                  },
                  {
                    "reference": "urn:uuid:03071607-0c5c-4562-a7b7-b243cbac464f"
                  },
                  {
                    "reference": "urn:uuid:e4c3dc04-ea13-400d-9503-d8f50306a85f"
                  },
                  {
                    "reference": "urn:uuid:9a453624-1534-41f6-9d68-dbfed63fd5b5"
                  },
                  {
                    "reference": "urn:uuid:2f5df89f-9bbe-4597-a073-993e72b2933e"
                  },
                  {
                    "reference": "urn:uuid:b9db7b43-11e0-40ef-9dc3-0392f23e49c0"
                  }
                ],
                "text": {
                  "status": "generated",
                  "div": "<div xmlns=\"http://www.w3.org/1999/xhtml\"><h3>Urinalysis</h3><table class=\"hl7__eu__lab__report\"><thead><tr><th>Test</th><th>03-MAY-2024</th><th>Reference&#xA0;Range</th><th>Unit</th></tr></thead><tbody><tr><td>Glucose [Mass/volume] in Urine by Test strip</td><td>0.7</td><td>0 - 0.8</td><td>mg/dL</td></tr><tr><td>Glucose [Presence] in Urine by Test strip</td><td>++</td><td></td><td></td></tr><tr><td>Bilirubin.total [Mass/volume] in Urine by Test strip</td><td>0.7</td><td>0 - 1.9</td><td>mg/dL</td></tr><tr><td>Bilirubin.total [Presence] in Urine by Test strip</td><td>Finding of bilirubin in urine</td><td></td><td></td></tr><tr><td>Ketones [Mass/volume] in Urine by Test strip</td><td><strong>7.1 H</strong></td><td>0 - 3</td><td>mg/dL</td></tr><tr><td>Specific gravity of Urine by Test strip</td><td><strong>1.0 L</strong></td><td>1.01 - 1.03</td><td>{nominal}</td></tr><tr><td>pH of Urine by Test strip</td><td>5.2</td><td>4.5 - 7.5</td><td>pH</td></tr><tr><td>Protein [Mass/volume] in Urine by Test strip</td><td><strong>380.0 H</strong></td><td>0 - 149</td><td>mg/dL</td></tr><tr><td>Protein [Presence] in Urine by Test strip</td><td>Urine protein test = ++</td><td></td><td></td></tr><tr><td>Nitrite [Presence] in Urine by Test strip</td><td>Urine nitrite negative</td><td></td><td></td></tr><tr><td>Hemoglobin [Presence] in Urine by Test strip</td><td>Urine blood test = negative</td><td></td><td></td></tr><tr><td>Leukocyte esterase [Presence] in Urine by Test strip</td><td>Urine leukocyte test negative</td><td></td><td></td></tr></tbody></table></div>"
                },
                "title": "Urinalysis"
              },
              {
                "code": {
                  "coding": [
                    {
                      "code": "$LP7846-1",
                      "system": "http://loinc.org",
                      "display": "Specimen information"
                    }
                  ],
                  "text": "Specimen information"
                },
                "entry": [
                  {
                    "reference": "urn:uuid:2077d73a-8a87-4958-ae33-356c2ef6cc1d"
                  },
                  {
                    "reference": "urn:uuid:7e1a6423-281c-448f-8df6-2704828a0492"
                  },
                  {
                    "reference": "urn:uuid:7d769bea-2702-4bf1-beb8-ef39b7e454a8"
                  },
                  {
                    "reference": "urn:uuid:19912ef8-034d-48b6-a167-325962aa64b1"
                  }
                ],
                "text": {
                  "status": "generated",
                  "div": "<div xmlns=\"http://www.w3.org/1999/xhtml\"><h3>Specimen information</h3><table class=\"hl7__eu__lab__report\"><thead><tr><th>Test</th><th>03-MAY-2024</th><th>Specimen</th><th></th></tr></thead><tbody><tr><td>Appearance of Urine</td><td>Cloudy urine</td><td>Urine</td><td></td></tr><tr><td>Odor of Urine</td><td>Urine smell ammoniacal</td><td>Urine</td><td></td></tr><tr><td>Clarity of Urine</td><td>Translucent</td><td>Urine</td><td></td></tr><tr><td>Color of Urine</td><td>Brown color</td><td>Urine</td><td></td></tr></tbody></table></div>"
                },
                "title": "Specimen information"
              }
            ],
            "title": "Laboratory Report"
          },
          {
            "text": {
              "status": "generated",
              "div": "<div xmlns=\"http://www.w3.org/1999/xhtml\"><h3>Annotation</h3><table class=\"hl7__eu__lab__report\"><tr><th>Conclusion and Recommendations based on this report and previous findings known to us</th></tr><tr><td>The patient shows elevated creatinine, suggesting impaired renal function, and high chloride. Urinalysis reveals significant proteinuria, ketonuria, glucosuria, low specific gravity, and abnormal urine appearance, indicating possible nephrotic syndrome or diabetic nephropathy, though HbA1c is low. No evidence of urinary infection. Further nephrological evaluation is recommended.</td></tr></table></div>"
            },
            "code": {
              "coding": [
                {
                  "system": "http://loinc.org",
                  "code": "48767-8",
                  "display": "Annotation comment"
                }
              ]
            },
            "title": "Annotation comment"
          }
        ],
        "status": "final",
        "subject": {
          "reference": "urn:uuid:ca40e124-c415-4846-bffd-24093db8f692",
          "display": "Victor Lagarde"
        },
        "date": "2024-05-03T06:48:18Z",
        "title": "Laboratory Report",
        "confidentiality": "N"
      }
    },
    {
      "fullUrl": "urn:uuid:a3cf0b61-4da9-4ad9-b8d6-f0e161ec4e23",
      "resource": {
        "resourceType": "DiagnosticReport",
        "id": "a3cf0b61-4da9-4ad9-b8d6-f0e161ec4e23",
        "meta": {
          "profile": [
            "http://hl7.eu/fhir/laboratory/StructureDefinition/DiagnosticReport-eu-lab"
          ]
        },
        "identifier": [
          {
            "assigner": {
              "display": "HL7 Europe"
            },
            "system": "urn:oid:2.16.840.1.113883.2.51.999",
            "value": "5ba1b42e-d4e6-4080-9c16-5b19519f81e5"
          }
        ],
        "extension": [
          {
            "url": "http://hl7.org/fhir/5.0/StructureDefinition/extension-DiagnosticReport.composition",
            "valueReference": {
              "reference": "urn:uuid:8f4ab0d1-b2de-4508-befd-bc48dc4216ec"
            }
          }
        ],
        "category": [
          {
            "coding": [
              {
                "code": "26436-6",
                "system": "http://loinc.org",
                "display": "Laboratory studies (set)"
              }
            ]
          }
        ],
        "specimen": [
          {
            "reference": "urn:uuid:f15e3366-e2c9-42bb-b54d-8d86f5908c6a"
          },
          {
            "reference": "urn:uuid:4c88f7d3-b58f-45db-beba-51c7669f2553"
          },
          {
            "reference": "urn:uuid:b72f97fb-9b36-4cd4-b9fd-97c4e6a2377d"
          }
        ],
        "result": [
          {
            "reference": "urn:uuid:687a3a06-5ae2-4ddd-a9b5-22838c698ee4"
          },
          {
            "reference": "urn:uuid:864fbc90-195a-42bd-aa45-e13c8be2f1ed"
          },
          {
            "reference": "urn:uuid:450ef569-2246-4cb7-98d5-1601c13a3452"
          },
          {
            "reference": "urn:uuid:4832d3cc-6e37-4791-aa6c-c6c5f8e2ee4e"
          },
          {
            "reference": "urn:uuid:49557740-0da5-4772-baee-40819c0a67c4"
          },
          {
            "reference": "urn:uuid:d331ec11-1bab-46f2-9f51-99d873a17d4f"
          },
          {
            "reference": "urn:uuid:5998fdbd-186c-493a-a8e3-1934a77ccc8f"
          },
          {
            "reference": "urn:uuid:2917115d-4ec2-4515-84c4-471593f2c5a6"
          },
          {
            "reference": "urn:uuid:2077d73a-8a87-4958-ae33-356c2ef6cc1d"
          },
          {
            "reference": "urn:uuid:7e1a6423-281c-448f-8df6-2704828a0492"
          },
          {
            "reference": "urn:uuid:7d769bea-2702-4bf1-beb8-ef39b7e454a8"
          },
          {
            "reference": "urn:uuid:19912ef8-034d-48b6-a167-325962aa64b1"
          },
          {
            "reference": "urn:uuid:dbe40dae-f707-493b-8553-c2fa0e022271"
          },
          {
            "reference": "urn:uuid:e03f1049-e7fe-4e41-80a2-35f28e472783"
          },
          {
            "reference": "urn:uuid:ab61c856-8531-4909-8387-6859a0a2b91b"
          },
          {
            "reference": "urn:uuid:adcfa247-d10b-4073-aa57-acb50ade3ba3"
          },
          {
            "reference": "urn:uuid:75a37a24-52e6-4936-a956-77c2a0fa6b30"
          },
          {
            "reference": "urn:uuid:d2164ae9-dfe0-4fef-b147-0d79d2931d9b"
          },
          {
            "reference": "urn:uuid:07a189e4-2f28-4a0a-8291-93729f0e0557"
          },
          {
            "reference": "urn:uuid:c902f257-f727-41b1-99c8-3968d102824d"
          },
          {
            "reference": "urn:uuid:03071607-0c5c-4562-a7b7-b243cbac464f"
          },
          {
            "reference": "urn:uuid:e4c3dc04-ea13-400d-9503-d8f50306a85f"
          },
          {
            "reference": "urn:uuid:9a453624-1534-41f6-9d68-dbfed63fd5b5"
          },
          {
            "reference": "urn:uuid:2f5df89f-9bbe-4597-a073-993e72b2933e"
          },
          {
            "reference": "urn:uuid:b9db7b43-11e0-40ef-9dc3-0392f23e49c0"
          },
          {
            "reference": "urn:uuid:2fb1175c-6169-43e9-8244-6b63dd3b8371"
          },
          {
            "reference": "urn:uuid:a9e8e0e5-a240-4d78-8980-b7b12fa6e44a"
          },
          {
            "reference": "urn:uuid:bc1d2d0c-c2d6-435e-b86f-c48a522b4651"
          },
          {
            "reference": "urn:uuid:176ab432-9dc7-4523-80d1-902e0f0ead11"
          },
          {
            "reference": "urn:uuid:f2355c95-a6b5-4ed9-97cc-47365b93d100"
          },
          {
            "reference": "urn:uuid:d15c4a28-9291-4905-8c31-8f1acde30f48"
          },
          {
            "reference": "urn:uuid:d439b1cb-1e18-4cd4-9ce9-fa4fe2358e36"
          },
          {
            "reference": "urn:uuid:c2f008c0-60a0-4524-9b29-f96d793c0921"
          },
          {
            "reference": "urn:uuid:4ae8225a-6253-470b-8078-f0ae880fadc7"
          }
        ],
        "status": "registered",
        "code": {
          "coding": [
            {
              "code": "11502-2",
              "system": "http://loinc.org",
              "display": "Laboratory report"
            }
          ]
        },
        "subject": {
          "reference": "urn:uuid:ca40e124-c415-4846-bffd-24093db8f692",
          "display": "Victor Lagarde"
        }
      }
    },
    {
      "fullUrl": "urn:uuid:ca40e124-c415-4846-bffd-24093db8f692",
      "resource": {
        "resourceType": "Patient",
        "id": "ca40e124-c415-4846-bffd-24093db8f692",
        "meta": {
          "security": [
            {
              "system": "http://terminology.hl7.org/CodeSystem/v3-ActReason",
              "code": "HTEST"
            },
            {
              "system": "http://terminology.hl7.org/CodeSystem/v3-ActReason",
              "code": "TRAIN"
            }
          ],
          "tag": [
            {
              "system": "https://synderai.net/fhir/CodeSystem/tags",
              "code": "synthetic",
              "display": "SYNDERAI Synthetic data"
            }
          ],
          "profile": [
            "http://hl7.eu/fhir/base/StructureDefinition/patient-eu-core"
          ]
        },
        "identifier": [
          {
            "type": {
              "coding": [
                {
                  "code": "PT",
                  "system": "http://terminology.hl7.org/CodeSystem/v2-0203"
                }
              ]
            },
            "system": "http://ec.europa.eu/identifier/eci",
            "value": "9925-001801-9"
          },
          {
            "type": {
              "coding": [
                {
                  "code": "MR",
                  "system": "http://terminology.hl7.org/CodeSystem/v2-0203"
                }
              ]
            },
            "system": "http://local.setting.eu/identifier",
            "value": "22c2dfd0-ac57-8833-2532-848f180896a4"
          }
        ],
        "name": [
          {
            "family": "Lagarde"
          },
          {
            "given": [
              "Victor"
            ]
          },
          {
            "text": "Victor Lagarde"
          }
        ],
        "address": [
          {
            "line": [
              "avenue Robert"
            ],
            "use": "home",
            "type": "physical",
            "postalCode": "80300",
            "city": "Albert",
            "country": "France"
          }
        ],
        "telecom": [
          {
            "system": "phone",
            "value": "0177941801"
          }
        ],
        "extension": [
          {
            "url": "http://hl7.org/fhir/StructureDefinition/patient-nationality",
            "valueCodeableConcept": {
              "coding": [
                {
                  "code": "FR",
                  "system": "http://hl7.org/fhir/ValueSet/country"
                }
              ]
            }
          }
        ],
        "text": {
          "status": "generated",
          "div": "<div xmlns=\"http://www.w3.org/1999/xhtml\"><table class=\"hl7__ips\"><tr><td>Victor Lagarde</td><td>male</td><td>31-Aug-1939</td></tr></table></div>"
        },
        "gender": "male",
        "birthDate": "1939-08-31"
      }
    },
    {
      "fullUrl": "urn:uuid:342bd07d-220d-4ca2-b413-01e2605416bc",
      "resource": {
        "resourceType": "ServiceRequest",
        "id": "342bd07d-220d-4ca2-b413-01e2605416bc",
        "meta": {
          "profile": [
            "http://hl7.eu/fhir/laboratory/StructureDefinition/ServiceRequest-eu-lab"
          ]
        },
        "identifier": [
          {
            "system": "http://example.org",
            "value": "69a45b6e-3008-4e76-b29b-381a2ae7de9c"
          }
        ],
        "specimen": [
          {
            "reference": "urn:uuid:f15e3366-e2c9-42bb-b54d-8d86f5908c6a"
          },
          {
            "reference": "urn:uuid:4c88f7d3-b58f-45db-beba-51c7669f2553"
          },
          {
            "reference": "urn:uuid:b72f97fb-9b36-4cd4-b9fd-97c4e6a2377d"
          }
        ],
        "reasonCode": [
          {
            "coding": [
              {
                "code": "433144002",
                "system": "http://snomed.info/sct",
                "display": "Chronic kidney disease stage 3"
              }
            ]
          },
          {
            "coding": [
              {
                "code": "157141000119108",
                "system": "http://snomed.info/sct",
                "display": "Proteinuria due to type 2 diabetes mellitus"
              }
            ]
          },
          {
            "coding": [
              {
                "code": "431856006",
                "system": "http://snomed.info/sct",
                "display": "Chronic kidney disease stage 2"
              }
            ]
          },
          {
            "coding": [
              {
                "code": "90781000119102",
                "system": "http://snomed.info/sct",
                "display": "Microalbuminuria due to type 2 diabetes mellitus"
              }
            ]
          },
          {
            "coding": [
              {
                "code": "127013003",
                "system": "http://snomed.info/sct",
                "display": "Disorder of kidney due to diabetes mellitus"
              }
            ]
          },
          {
            "coding": [
              {
                "code": "431855005",
                "system": "http://snomed.info/sct",
                "display": "Chronic kidney disease stage 1"
              }
            ]
          },
          {
            "coding": [
              {
                "code": "55822004",
                "system": "http://snomed.info/sct",
                "display": "Hyperlipidemia"
              }
            ]
          },
          {
            "coding": [
              {
                "code": "59621000",
                "system": "http://snomed.info/sct",
                "display": "Essential hypertension"
              }
            ]
          },
          {
            "coding": [
              {
                "code": "237602007",
                "system": "http://snomed.info/sct",
                "display": "Metabolic syndrome X"
              }
            ]
          },
          {
            "coding": [
              {
                "code": "414545008",
                "system": "http://snomed.info/sct",
                "display": "Ischemic heart disease"
              }
            ]
          },
          {
            "coding": [
              {
                "code": "40055000",
                "system": "http://snomed.info/sct",
                "display": "Chronic sinusitis"
              }
            ]
          },
          {
            "coding": [
              {
                "code": "15777000",
                "system": "http://snomed.info/sct",
                "display": "Prediabetes"
              }
            ]
          },
          {
            "coding": [
              {
                "code": "271737000",
                "system": "http://snomed.info/sct",
                "display": "Anemia"
              }
            ]
          }
        ],
        "status": "active",
        "intent": "order",
        "code": {
          "coding": [
            {
              "code": "108252007",
              "system": "http://snomed.info/sct",
              "display": "Laboratory procedure"
            }
          ]
        },
        "subject": {
          "reference": "urn:uuid:ca40e124-c415-4846-bffd-24093db8f692",
          "display": "Victor Lagarde"
        },
        "requester": {
          "reference": "urn:uuid:84e4ff28-1d80-4380-bdee-04fa5d644131"
        }
      }
    },
    {
      "fullUrl": "urn:uuid:84e4ff28-1d80-4380-bdee-04fa5d644131",
      "resource": {
        "resourceType": "PractitionerRole",
        "id": "84e4ff28-1d80-4380-bdee-04fa5d644131",
        "meta": {
          "profile": [
            "http://hl7.eu/fhir/base/StructureDefinition/practitionerRole-eu"
          ]
        },
        "text": {
          "status": "generated",
          "div": "<div xmlns=\"http://www.w3.org/1999/xhtml\">Provider Role Id: 84e4ff28-1d80-4380-bdee-04fa5d644131</div>"
        },
        "organization": {
          "reference": "urn:uuid:19d249dd-8269-48d3-8dfb-5ecd3e2e8e39"
        }
      }
    },
    {
      "fullUrl": "urn:uuid:19d249dd-8269-48d3-8dfb-5ecd3e2e8e39",
      "resource": {
        "resourceType": "Organization",
        "id": "19d249dd-8269-48d3-8dfb-5ecd3e2e8e39",
        "meta": {
          "profile": [
            "http://hl7.eu/fhir/base/StructureDefinition/organization-eu"
          ]
        },
        "identifier": [
          {
            "assigner": {
              "display": "HL7 Europe"
            },
            "system": "urn:oid:2.16.840.1.113883.2.51.999",
            "value": "e524e0c3-d85b-4471-be84-ddf6af40e005"
          }
        ],
        "address": [
          {
            "city": "Auxerre",
            "postalCode": "89000",
            "country": "France"
          }
        ],
        "text": {
          "status": "generated",
          "div": "<div xmlns=\"http://www.w3.org/1999/xhtml\">Provider Organization: Thiriot Didier (Cardiologie)</div>"
        },
        "name": "Thiriot Didier (Cardiologie)"
      }
    },
    {
      "fullUrl": "urn:uuid:f15e3366-e2c9-42bb-b54d-8d86f5908c6a",
      "resource": {
        "resourceType": "Specimen",
        "id": "f15e3366-e2c9-42bb-b54d-8d86f5908c6a",
        "meta": {
          "profile": [
            "http://hl7.eu/fhir/laboratory/StructureDefinition/Specimen-eu-lab"
          ]
        },
        "collection": {
          "collectedDateTime": "2024-05-03"
        },
        "text": {
          "status": "generated",
          "div": "<div xmlns=\"http://www.w3.org/1999/xhtml\"><table class=\"hl7__eu__lab__report\"><tr><th>Specimen</th><th>Collection Date</th></tr><tr><td>Acellular blood (serum or plasma) specimen</td><td><span class=\"nb\">03-May-2024</span></td></tr></table></div>"
        },
        "type": {
          "coding": [
            {
              "code": "122592007",
              "system": "http://snomed.info/sct",
              "display": "Acellular blood (serum or plasma) specimen"
            }
          ]
        }
      }
    },
    {
      "fullUrl": "urn:uuid:4c88f7d3-b58f-45db-beba-51c7669f2553",
      "resource": {
        "resourceType": "Specimen",
        "id": "4c88f7d3-b58f-45db-beba-51c7669f2553",
        "meta": {
          "profile": [
            "http://hl7.eu/fhir/laboratory/StructureDefinition/Specimen-eu-lab"
          ]
        },
        "collection": {
          "collectedDateTime": "2024-05-03"
        },
        "text": {
          "status": "generated",
          "div": "<div xmlns=\"http://www.w3.org/1999/xhtml\"><table class=\"hl7__eu__lab__report\"><tr><th>Specimen</th><th>Collection Date</th></tr><tr><td>Urine specimen</td><td><span class=\"nb\">03-May-2024</span></td></tr></table></div>"
        },
        "type": {
          "coding": [
            {
              "code": "122575003",
              "system": "http://snomed.info/sct",
              "display": "Urine specimen"
            }
          ]
        }
      }
    },
    {
      "fullUrl": "urn:uuid:b72f97fb-9b36-4cd4-b9fd-97c4e6a2377d",
      "resource": {
        "resourceType": "Specimen",
        "id": "b72f97fb-9b36-4cd4-b9fd-97c4e6a2377d",
        "meta": {
          "profile": [
            "http://hl7.eu/fhir/laboratory/StructureDefinition/Specimen-eu-lab"
          ]
        },
        "collection": {
          "collectedDateTime": "2024-05-03"
        },
        "text": {
          "status": "generated",
          "div": "<div xmlns=\"http://www.w3.org/1999/xhtml\"><table class=\"hl7__eu__lab__report\"><tr><th>Specimen</th><th>Collection Date</th></tr><tr><td>Whole blood specimen (specimen)</td><td><span class=\"nb\">03-May-2024</span></td></tr></table></div>"
        },
        "type": {
          "coding": [
            {
              "code": "258580003",
              "system": "http://snomed.info/sct",
              "display": "Whole blood specimen (specimen)"
            }
          ]
        }
      }
    },
    {
      "fullUrl": "urn:uuid:687a3a06-5ae2-4ddd-a9b5-22838c698ee4",
      "resource": {
        "resourceType": "Observation",
        "id": "687a3a06-5ae2-4ddd-a9b5-22838c698ee4",
        "meta": {
          "profile": [
            "http://hl7.eu/fhir/laboratory/StructureDefinition/Observation-resultslab-eu-lab"
          ]
        },
        "performer": [
          {
            "display": "The Central European Lab"
          }
        ],
        "category": [
          {
            "coding": [
              {
                "system": "http://terminology.hl7.org/CodeSystem/observation-category",
                "code": "laboratory"
              }
            ]
          }
        ],
        "code": {
          "coding": [
            {
              "code": "2345-7",
              "system": "http://loinc.org",
              "display": "Glucose [Mass/volume] in Serum or Plasma"
            }
          ],
          "text": "Glucose [Mass/volume] in Serum or Plasma"
        },
        "valueQuantity": {
          "system": "http://unitsofmeasure.org",
          "value": 85.7,
          "unit": "mg/dL",
          "code": "mg/dL"
        },
        "referenceRange": [
          {
            "low": {
              "value": 70,
              "code": "mg/dL",
              "system": "http://unitsofmeasure.org"
            }
          },
          {
            "high": {
              "value": 140,
              "code": "mg/dL",
              "system": "http://unitsofmeasure.org"
            }
          }
        ],
        "text": {
          "status": "generated",
          "div": "<div xmlns=\"http://www.w3.org/1999/xhtml\"><table class=\"hl7__eu__lab__report\"><tr><th>Test</th><th>03-May-2024</th><th>Reference&#xA0;Range</th><th>Unit</th></tr><tr><td>Glucose [Mass/volume] in Serum or Plasma</td><td>85.7</td><td>70 - 140</td><td></td><td>mg/dL</td></tr></table></div>"
        },
        "status": "final",
        "subject": {
          "reference": "urn:uuid:ca40e124-c415-4846-bffd-24093db8f692",
          "display": "Victor Lagarde"
        },
        "effectiveDateTime": "2024-05-03T04:48:18Z",
        "specimen": {
          "reference": "urn:uuid:f15e3366-e2c9-42bb-b54d-8d86f5908c6a"
        }
      }
    },
    {
      "fullUrl": "urn:uuid:864fbc90-195a-42bd-aa45-e13c8be2f1ed",
      "resource": {
        "resourceType": "Observation",
        "id": "864fbc90-195a-42bd-aa45-e13c8be2f1ed",
        "meta": {
          "profile": [
            "http://hl7.eu/fhir/laboratory/StructureDefinition/Observation-resultslab-eu-lab"
          ]
        },
        "performer": [
          {
            "display": "The Central European Lab"
          }
        ],
        "category": [
          {
            "coding": [
              {
                "system": "http://terminology.hl7.org/CodeSystem/observation-category",
                "code": "laboratory"
              }
            ]
          }
        ],
        "code": {
          "coding": [
            {
              "code": "3094-0",
              "system": "http://loinc.org",
              "display": "Urea nitrogen [Mass/volume] in Serum or Plasma"
            }
          ],
          "text": "Urea nitrogen [Mass/volume] in Serum or Plasma"
        },
        "valueQuantity": {
          "system": "http://unitsofmeasure.org",
          "value": 18,
          "unit": "mg/dL",
          "code": "mg/dL"
        },
        "referenceRange": [
          {
            "low": {
              "value": 7,
              "code": "mg/dL",
              "system": "http://unitsofmeasure.org"
            }
          },
          {
            "high": {
              "value": 20,
              "code": "mg/dL",
              "system": "http://unitsofmeasure.org"
            }
          }
        ],
        "text": {
          "status": "generated",
          "div": "<div xmlns=\"http://www.w3.org/1999/xhtml\"><table class=\"hl7__eu__lab__report\"><tr><th>Test</th><th>03-May-2024</th><th>Reference&#xA0;Range</th><th>Unit</th></tr><tr><td>Urea nitrogen [Mass/volume] in Serum or Plasma</td><td>18.0</td><td>7 - 20</td><td></td><td>mg/dL</td></tr></table></div>"
        },
        "status": "final",
        "subject": {
          "reference": "urn:uuid:ca40e124-c415-4846-bffd-24093db8f692",
          "display": "Victor Lagarde"
        },
        "effectiveDateTime": "2024-05-03T04:48:18Z",
        "specimen": {
          "reference": "urn:uuid:f15e3366-e2c9-42bb-b54d-8d86f5908c6a"
        }
      }
    },
    {
      "fullUrl": "urn:uuid:450ef569-2246-4cb7-98d5-1601c13a3452",
      "resource": {
        "resourceType": "Observation",
        "id": "450ef569-2246-4cb7-98d5-1601c13a3452",
        "meta": {
          "profile": [
            "http://hl7.eu/fhir/laboratory/StructureDefinition/Observation-resultslab-eu-lab"
          ]
        },
        "performer": [
          {
            "display": "The Central European Lab"
          }
        ],
        "category": [
          {
            "coding": [
              {
                "system": "http://terminology.hl7.org/CodeSystem/observation-category",
                "code": "laboratory"
              }
            ]
          }
        ],
        "code": {
          "coding": [
            {
              "code": "2160-0",
              "system": "http://loinc.org",
              "display": "Creatinine [Mass/volume] in Serum or Plasma"
            }
          ],
          "text": "Creatinine [Mass/volume] in Serum or Plasma"
        },
        "valueQuantity": {
          "system": "http://unitsofmeasure.org",
          "value": 2,
          "unit": "mg/dL",
          "code": "mg/dL"
        },
        "referenceRange": [
          {
            "low": {
              "value": 0.9,
              "code": "mg/dL",
              "system": "http://unitsofmeasure.org"
            }
          },
          {
            "high": {
              "value": 1.3,
              "code": "mg/dL",
              "system": "http://unitsofmeasure.org"
            }
          }
        ],
        "interpretation": [
          {
            "coding": [
              {
                "code": "H",
                "system": "http://terminology.hl7.org/CodeSystem/v3-ObservationInterpretation",
                "display": "High"
              }
            ]
          }
        ],
        "text": {
          "status": "generated",
          "div": "<div xmlns=\"http://www.w3.org/1999/xhtml\"><table class=\"hl7__eu__lab__report\"><tr><th>Test</th><th>03-May-2024</th><th>Reference&#xA0;Range</th><th>Unit</th></tr><tr><td>Creatinine [Mass/volume] in Serum or Plasma</td><td>2.0</td><td>0.9 - 1.3</td><td>H</td><td>mg/dL</td></tr></table></div>"
        },
        "status": "final",
        "subject": {
          "reference": "urn:uuid:ca40e124-c415-4846-bffd-24093db8f692",
          "display": "Victor Lagarde"
        },
        "effectiveDateTime": "2024-05-03T04:48:18Z",
        "specimen": {
          "reference": "urn:uuid:f15e3366-e2c9-42bb-b54d-8d86f5908c6a"
        }
      }
    },
    {
      "fullUrl": "urn:uuid:4832d3cc-6e37-4791-aa6c-c6c5f8e2ee4e",
      "resource": {
        "resourceType": "Observation",
        "id": "4832d3cc-6e37-4791-aa6c-c6c5f8e2ee4e",
        "meta": {
          "profile": [
            "http://hl7.eu/fhir/laboratory/StructureDefinition/Observation-resultslab-eu-lab"
          ]
        },
        "performer": [
          {
            "display": "The Central European Lab"
          }
        ],
        "category": [
          {
            "coding": [
              {
                "system": "http://terminology.hl7.org/CodeSystem/observation-category",
                "code": "laboratory"
              }
            ]
          }
        ],
        "code": {
          "coding": [
            {
              "code": "17861-6",
              "system": "http://loinc.org",
              "display": "Calcium [Mass/volume] in Serum or Plasma"
            }
          ],
          "text": "Calcium [Mass/volume] in Serum or Plasma"
        },
        "valueQuantity": {
          "system": "http://unitsofmeasure.org",
          "value": 9.1,
          "unit": "mg/dL",
          "code": "mg/dL"
        },
        "referenceRange": [
          {
            "low": {
              "value": 8.5,
              "code": "mg/dL",
              "system": "http://unitsofmeasure.org"
            }
          },
          {
            "high": {
              "value": 10.5,
              "code": "mg/dL",
              "system": "http://unitsofmeasure.org"
            }
          }
        ],
        "text": {
          "status": "generated",
          "div": "<div xmlns=\"http://www.w3.org/1999/xhtml\"><table class=\"hl7__eu__lab__report\"><tr><th>Test</th><th>03-May-2024</th><th>Reference&#xA0;Range</th><th>Unit</th></tr><tr><td>Calcium [Mass/volume] in Serum or Plasma</td><td>9.1</td><td>8.5 - 10.5</td><td></td><td>mg/dL</td></tr></table></div>"
        },
        "status": "final",
        "subject": {
          "reference": "urn:uuid:ca40e124-c415-4846-bffd-24093db8f692",
          "display": "Victor Lagarde"
        },
        "effectiveDateTime": "2024-05-03T04:48:18Z",
        "specimen": {
          "reference": "urn:uuid:f15e3366-e2c9-42bb-b54d-8d86f5908c6a"
        }
      }
    },
    {
      "fullUrl": "urn:uuid:49557740-0da5-4772-baee-40819c0a67c4",
      "resource": {
        "resourceType": "Observation",
        "id": "49557740-0da5-4772-baee-40819c0a67c4",
        "meta": {
          "profile": [
            "http://hl7.eu/fhir/laboratory/StructureDefinition/Observation-resultslab-eu-lab"
          ]
        },
        "performer": [
          {
            "display": "The Central European Lab"
          }
        ],
        "category": [
          {
            "coding": [
              {
                "system": "http://terminology.hl7.org/CodeSystem/observation-category",
                "code": "laboratory"
              }
            ]
          }
        ],
        "code": {
          "coding": [
            {
              "code": "2951-2",
              "system": "http://loinc.org",
              "display": "Sodium [Moles/volume] in Serum or Plasma"
            }
          ],
          "text": "Sodium [Moles/volume] in Serum or Plasma"
        },
        "valueQuantity": {
          "system": "http://unitsofmeasure.org",
          "value": 141.2,
          "unit": "mmol/L",
          "code": "mmol/L"
        },
        "referenceRange": [
          {
            "low": {
              "value": 135,
              "code": "mmol/L",
              "system": "http://unitsofmeasure.org"
            }
          },
          {
            "high": {
              "value": 145,
              "code": "mmol/L",
              "system": "http://unitsofmeasure.org"
            }
          }
        ],
        "text": {
          "status": "generated",
          "div": "<div xmlns=\"http://www.w3.org/1999/xhtml\"><table class=\"hl7__eu__lab__report\"><tr><th>Test</th><th>03-May-2024</th><th>Reference&#xA0;Range</th><th>Unit</th></tr><tr><td>Sodium [Moles/volume] in Serum or Plasma</td><td>141.2</td><td>135 - 145</td><td></td><td>mmol/L</td></tr></table></div>"
        },
        "status": "final",
        "subject": {
          "reference": "urn:uuid:ca40e124-c415-4846-bffd-24093db8f692",
          "display": "Victor Lagarde"
        },
        "effectiveDateTime": "2024-05-03T04:48:18Z",
        "specimen": {
          "reference": "urn:uuid:f15e3366-e2c9-42bb-b54d-8d86f5908c6a"
        }
      }
    },
    {
      "fullUrl": "urn:uuid:d331ec11-1bab-46f2-9f51-99d873a17d4f",
      "resource": {
        "resourceType": "Observation",
        "id": "d331ec11-1bab-46f2-9f51-99d873a17d4f",
        "meta": {
          "profile": [
            "http://hl7.eu/fhir/laboratory/StructureDefinition/Observation-resultslab-eu-lab"
          ]
        },
        "performer": [
          {
            "display": "The Central European Lab"
          }
        ],
        "category": [
          {
            "coding": [
              {
                "system": "http://terminology.hl7.org/CodeSystem/observation-category",
                "code": "laboratory"
              }
            ]
          }
        ],
        "code": {
          "coding": [
            {
              "code": "2823-3",
              "system": "http://loinc.org",
              "display": "Potassium [Moles/volume] in Serum or Plasma"
            }
          ],
          "text": "Potassium [Moles/volume] in Serum or Plasma"
        },
        "valueQuantity": {
          "system": "http://unitsofmeasure.org",
          "value": 4.1,
          "unit": "mmol/L",
          "code": "mmol/L"
        },
        "referenceRange": [
          {
            "low": {
              "value": 3.5,
              "code": "mmol/L",
              "system": "http://unitsofmeasure.org"
            }
          },
          {
            "high": {
              "value": 5.3,
              "code": "mmol/L",
              "system": "http://unitsofmeasure.org"
            }
          }
        ],
        "text": {
          "status": "generated",
          "div": "<div xmlns=\"http://www.w3.org/1999/xhtml\"><table class=\"hl7__eu__lab__report\"><tr><th>Test</th><th>03-May-2024</th><th>Reference&#xA0;Range</th><th>Unit</th></tr><tr><td>Potassium [Moles/volume] in Serum or Plasma</td><td>4.1</td><td>3.5 - 5.3</td><td></td><td>mmol/L</td></tr></table></div>"
        },
        "status": "final",
        "subject": {
          "reference": "urn:uuid:ca40e124-c415-4846-bffd-24093db8f692",
          "display": "Victor Lagarde"
        },
        "effectiveDateTime": "2024-05-03T04:48:18Z",
        "specimen": {
          "reference": "urn:uuid:f15e3366-e2c9-42bb-b54d-8d86f5908c6a"
        }
      }
    },
    {
      "fullUrl": "urn:uuid:5998fdbd-186c-493a-a8e3-1934a77ccc8f",
      "resource": {
        "resourceType": "Observation",
        "id": "5998fdbd-186c-493a-a8e3-1934a77ccc8f",
        "meta": {
          "profile": [
            "http://hl7.eu/fhir/laboratory/StructureDefinition/Observation-resultslab-eu-lab"
          ]
        },
        "performer": [
          {
            "display": "The Central European Lab"
          }
        ],
        "category": [
          {
            "coding": [
              {
                "system": "http://terminology.hl7.org/CodeSystem/observation-category",
                "code": "laboratory"
              }
            ]
          }
        ],
        "code": {
          "coding": [
            {
              "code": "2075-0",
              "system": "http://loinc.org",
              "display": "Chloride [Moles/volume] in Serum or Plasma"
            }
          ],
          "text": "Chloride [Moles/volume] in Serum or Plasma"
        },
        "valueQuantity": {
          "system": "http://unitsofmeasure.org",
          "value": 109.9,
          "unit": "mmol/L",
          "code": "mmol/L"
        },
        "referenceRange": [
          {
            "low": {
              "value": 98,
              "code": "mmol/L",
              "system": "http://unitsofmeasure.org"
            }
          },
          {
            "high": {
              "value": 107,
              "code": "mmol/L",
              "system": "http://unitsofmeasure.org"
            }
          }
        ],
        "interpretation": [
          {
            "coding": [
              {
                "code": "H",
                "system": "http://terminology.hl7.org/CodeSystem/v3-ObservationInterpretation",
                "display": "High"
              }
            ]
          }
        ],
        "text": {
          "status": "generated",
          "div": "<div xmlns=\"http://www.w3.org/1999/xhtml\"><table class=\"hl7__eu__lab__report\"><tr><th>Test</th><th>03-May-2024</th><th>Reference&#xA0;Range</th><th>Unit</th></tr><tr><td>Chloride [Moles/volume] in Serum or Plasma</td><td>109.9</td><td>98 - 107</td><td>H</td><td>mmol/L</td></tr></table></div>"
        },
        "status": "final",
        "subject": {
          "reference": "urn:uuid:ca40e124-c415-4846-bffd-24093db8f692",
          "display": "Victor Lagarde"
        },
        "effectiveDateTime": "2024-05-03T04:48:18Z",
        "specimen": {
          "reference": "urn:uuid:f15e3366-e2c9-42bb-b54d-8d86f5908c6a"
        }
      }
    },
    {
      "fullUrl": "urn:uuid:2917115d-4ec2-4515-84c4-471593f2c5a6",
      "resource": {
        "resourceType": "Observation",
        "id": "2917115d-4ec2-4515-84c4-471593f2c5a6",
        "meta": {
          "profile": [
            "http://hl7.eu/fhir/laboratory/StructureDefinition/Observation-resultslab-eu-lab"
          ]
        },
        "performer": [
          {
            "display": "The Central European Lab"
          }
        ],
        "category": [
          {
            "coding": [
              {
                "system": "http://terminology.hl7.org/CodeSystem/observation-category",
                "code": "laboratory"
              }
            ]
          }
        ],
        "code": {
          "coding": [
            {
              "code": "2028-9",
              "system": "http://loinc.org",
              "display": "Carbon dioxide, total [Moles/volume] in Serum or Plasma"
            }
          ],
          "text": "Carbon dioxide, total [Moles/volume] in Serum or Plasma"
        },
        "valueQuantity": {
          "system": "http://unitsofmeasure.org",
          "value": 23.8,
          "unit": "mmol/L",
          "code": "mmol/L"
        },
        "referenceRange": [
          {
            "low": {
              "value": 22,
              "code": "mmol/L",
              "system": "http://unitsofmeasure.org"
            }
          },
          {
            "high": {
              "value": 33,
              "code": "mmol/L",
              "system": "http://unitsofmeasure.org"
            }
          }
        ],
        "text": {
          "status": "generated",
          "div": "<div xmlns=\"http://www.w3.org/1999/xhtml\"><table class=\"hl7__eu__lab__report\"><tr><th>Test</th><th>03-May-2024</th><th>Reference&#xA0;Range</th><th>Unit</th></tr><tr><td>Carbon dioxide, total [Moles/volume] in Serum or Plasma</td><td>23.8</td><td>22 - 33</td><td></td><td>mmol/L</td></tr></table></div>"
        },
        "status": "final",
        "subject": {
          "reference": "urn:uuid:ca40e124-c415-4846-bffd-24093db8f692",
          "display": "Victor Lagarde"
        },
        "effectiveDateTime": "2024-05-03T04:48:18Z",
        "specimen": {
          "reference": "urn:uuid:f15e3366-e2c9-42bb-b54d-8d86f5908c6a"
        }
      }
    },
    {
      "fullUrl": "urn:uuid:2077d73a-8a87-4958-ae33-356c2ef6cc1d",
      "resource": {
        "resourceType": "Observation",
        "id": "2077d73a-8a87-4958-ae33-356c2ef6cc1d",
        "meta": {
          "profile": [
            "http://hl7.eu/fhir/laboratory/StructureDefinition/Observation-resultslab-eu-lab"
          ]
        },
        "performer": [
          {
            "display": "The Central European Lab"
          }
        ],
        "category": [
          {
            "coding": [
              {
                "system": "http://terminology.hl7.org/CodeSystem/observation-category",
                "code": "laboratory"
              }
            ]
          }
        ],
        "code": {
          "coding": [
            {
              "code": "5767-9",
              "system": "http://loinc.org",
              "display": "Appearance of Urine"
            }
          ],
          "text": "Appearance of Urine"
        },
        "text": {
          "status": "generated",
          "div": "<div xmlns=\"http://www.w3.org/1999/xhtml\"><table class=\"hl7__eu__lab__report\"><tr><th>Test</th><th>03-May-2024</th><th>Reference&#xA0;Range</th><th>Unit</th></tr><tr><td>Appearance of Urine</td></tr></table></div>"
        },
        "status": "final",
        "subject": {
          "reference": "urn:uuid:ca40e124-c415-4846-bffd-24093db8f692",
          "display": "Victor Lagarde"
        },
        "effectiveDateTime": "2024-05-03T04:48:18Z",
        "specimen": {
          "reference": "urn:uuid:4c88f7d3-b58f-45db-beba-51c7669f2553"
        }
      }
    },
    {
      "fullUrl": "urn:uuid:7e1a6423-281c-448f-8df6-2704828a0492",
      "resource": {
        "resourceType": "Observation",
        "id": "7e1a6423-281c-448f-8df6-2704828a0492",
        "meta": {
          "profile": [
            "http://hl7.eu/fhir/laboratory/StructureDefinition/Observation-resultslab-eu-lab"
          ]
        },
        "performer": [
          {
            "display": "The Central European Lab"
          }
        ],
        "category": [
          {
            "coding": [
              {
                "system": "http://terminology.hl7.org/CodeSystem/observation-category",
                "code": "laboratory"
              }
            ]
          }
        ],
        "code": {
          "coding": [
            {
              "code": "34533-0",
              "system": "http://loinc.org",
              "display": "Odor of Urine"
            }
          ],
          "text": "Odor of Urine"
        },
        "text": {
          "status": "generated",
          "div": "<div xmlns=\"http://www.w3.org/1999/xhtml\"><table class=\"hl7__eu__lab__report\"><tr><th>Test</th><th>03-May-2024</th><th>Reference&#xA0;Range</th><th>Unit</th></tr><tr><td>Odor of Urine</td></tr></table></div>"
        },
        "status": "final",
        "subject": {
          "reference": "urn:uuid:ca40e124-c415-4846-bffd-24093db8f692",
          "display": "Victor Lagarde"
        },
        "effectiveDateTime": "2024-05-03T04:48:18Z",
        "specimen": {
          "reference": "urn:uuid:4c88f7d3-b58f-45db-beba-51c7669f2553"
        }
      }
    },
    {
      "fullUrl": "urn:uuid:7d769bea-2702-4bf1-beb8-ef39b7e454a8",
      "resource": {
        "resourceType": "Observation",
        "id": "7d769bea-2702-4bf1-beb8-ef39b7e454a8",
        "meta": {
          "profile": [
            "http://hl7.eu/fhir/laboratory/StructureDefinition/Observation-resultslab-eu-lab"
          ]
        },
        "performer": [
          {
            "display": "The Central European Lab"
          }
        ],
        "category": [
          {
            "coding": [
              {
                "system": "http://terminology.hl7.org/CodeSystem/observation-category",
                "code": "laboratory"
              }
            ]
          }
        ],
        "code": {
          "coding": [
            {
              "code": "32167-9",
              "system": "http://loinc.org",
              "display": "Clarity of Urine"
            }
          ],
          "text": "Clarity of Urine"
        },
        "text": {
          "status": "generated",
          "div": "<div xmlns=\"http://www.w3.org/1999/xhtml\"><table class=\"hl7__eu__lab__report\"><tr><th>Test</th><th>03-May-2024</th><th>Reference&#xA0;Range</th><th>Unit</th></tr><tr><td>Clarity of Urine</td></tr></table></div>"
        },
        "status": "final",
        "subject": {
          "reference": "urn:uuid:ca40e124-c415-4846-bffd-24093db8f692",
          "display": "Victor Lagarde"
        },
        "effectiveDateTime": "2024-05-03T04:48:18Z",
        "specimen": {
          "reference": "urn:uuid:4c88f7d3-b58f-45db-beba-51c7669f2553"
        }
      }
    },
    {
      "fullUrl": "urn:uuid:19912ef8-034d-48b6-a167-325962aa64b1",
      "resource": {
        "resourceType": "Observation",
        "id": "19912ef8-034d-48b6-a167-325962aa64b1",
        "meta": {
          "profile": [
            "http://hl7.eu/fhir/laboratory/StructureDefinition/Observation-resultslab-eu-lab"
          ]
        },
        "performer": [
          {
            "display": "The Central European Lab"
          }
        ],
        "category": [
          {
            "coding": [
              {
                "system": "http://terminology.hl7.org/CodeSystem/observation-category",
                "code": "laboratory"
              }
            ]
          }
        ],
        "code": {
          "coding": [
            {
              "code": "5778-6",
              "system": "http://loinc.org",
              "display": "Color of Urine"
            }
          ],
          "text": "Color of Urine"
        },
        "text": {
          "status": "generated",
          "div": "<div xmlns=\"http://www.w3.org/1999/xhtml\"><table class=\"hl7__eu__lab__report\"><tr><th>Test</th><th>03-May-2024</th><th>Reference&#xA0;Range</th><th>Unit</th></tr><tr><td>Color of Urine</td></tr></table></div>"
        },
        "status": "final",
        "subject": {
          "reference": "urn:uuid:ca40e124-c415-4846-bffd-24093db8f692",
          "display": "Victor Lagarde"
        },
        "effectiveDateTime": "2024-05-03T04:48:18Z",
        "specimen": {
          "reference": "urn:uuid:4c88f7d3-b58f-45db-beba-51c7669f2553"
        }
      }
    },
    {
      "fullUrl": "urn:uuid:dbe40dae-f707-493b-8553-c2fa0e022271",
      "resource": {
        "resourceType": "Observation",
        "id": "dbe40dae-f707-493b-8553-c2fa0e022271",
        "meta": {
          "profile": [
            "http://hl7.eu/fhir/laboratory/StructureDefinition/Observation-resultslab-eu-lab"
          ]
        },
        "performer": [
          {
            "display": "The Central European Lab"
          }
        ],
        "category": [
          {
            "coding": [
              {
                "system": "http://terminology.hl7.org/CodeSystem/observation-category",
                "code": "laboratory"
              }
            ]
          }
        ],
        "code": {
          "coding": [
            {
              "code": "5792-7",
              "system": "http://loinc.org",
              "display": "Glucose [Mass/volume] in Urine by Test strip"
            }
          ],
          "text": "Glucose [Mass/volume] in Urine by Test strip"
        },
        "valueQuantity": {
          "system": "http://unitsofmeasure.org",
          "value": 0.7,
          "unit": "mg/dL",
          "code": "mg/dL"
        },
        "referenceRange": [
          {
            "low": {
              "value": 0,
              "code": "mg/dL",
              "system": "http://unitsofmeasure.org"
            }
          },
          {
            "high": {
              "value": 0.8,
              "code": "mg/dL",
              "system": "http://unitsofmeasure.org"
            }
          }
        ],
        "text": {
          "status": "generated",
          "div": "<div xmlns=\"http://www.w3.org/1999/xhtml\"><table class=\"hl7__eu__lab__report\"><tr><th>Test</th><th>03-May-2024</th><th>Reference&#xA0;Range</th><th>Unit</th></tr><tr><td>Glucose [Mass/volume] in Urine by Test strip</td><td>0.7</td><td>0 - 0.8</td><td></td><td>mg/dL</td></tr></table></div>"
        },
        "status": "final",
        "subject": {
          "reference": "urn:uuid:ca40e124-c415-4846-bffd-24093db8f692",
          "display": "Victor Lagarde"
        },
        "effectiveDateTime": "2024-05-03T04:48:18Z",
        "specimen": {
          "reference": "urn:uuid:4c88f7d3-b58f-45db-beba-51c7669f2553"
        }
      }
    },
    {
      "fullUrl": "urn:uuid:e03f1049-e7fe-4e41-80a2-35f28e472783",
      "resource": {
        "resourceType": "Observation",
        "id": "e03f1049-e7fe-4e41-80a2-35f28e472783",
        "meta": {
          "profile": [
            "http://hl7.eu/fhir/laboratory/StructureDefinition/Observation-resultslab-eu-lab"
          ]
        },
        "performer": [
          {
            "display": "The Central European Lab"
          }
        ],
        "category": [
          {
            "coding": [
              {
                "system": "http://terminology.hl7.org/CodeSystem/observation-category",
                "code": "laboratory"
              }
            ]
          }
        ],
        "code": {
          "coding": [
            {
              "code": "25428-4",
              "system": "http://loinc.org",
              "display": "Glucose [Presence] in Urine by Test strip"
            }
          ],
          "text": "Glucose [Presence] in Urine by Test strip"
        },
        "text": {
          "status": "generated",
          "div": "<div xmlns=\"http://www.w3.org/1999/xhtml\"><table class=\"hl7__eu__lab__report\"><tr><th>Test</th><th>03-May-2024</th><th>Reference&#xA0;Range</th><th>Unit</th></tr><tr><td>Glucose [Presence] in Urine by Test strip</td></tr></table></div>"
        },
        "status": "final",
        "subject": {
          "reference": "urn:uuid:ca40e124-c415-4846-bffd-24093db8f692",
          "display": "Victor Lagarde"
        },
        "effectiveDateTime": "2024-05-03T04:48:18Z",
        "specimen": {
          "reference": "urn:uuid:4c88f7d3-b58f-45db-beba-51c7669f2553"
        }
      }
    },
    {
      "fullUrl": "urn:uuid:ab61c856-8531-4909-8387-6859a0a2b91b",
      "resource": {
        "resourceType": "Observation",
        "id": "ab61c856-8531-4909-8387-6859a0a2b91b",
        "meta": {
          "profile": [
            "http://hl7.eu/fhir/laboratory/StructureDefinition/Observation-resultslab-eu-lab"
          ]
        },
        "performer": [
          {
            "display": "The Central European Lab"
          }
        ],
        "category": [
          {
            "coding": [
              {
                "system": "http://terminology.hl7.org/CodeSystem/observation-category",
                "code": "laboratory"
              }
            ]
          }
        ],
        "code": {
          "coding": [
            {
              "code": "20505-4",
              "system": "http://loinc.org",
              "display": "Bilirubin.total [Mass/volume] in Urine by Test strip"
            }
          ],
          "text": "Bilirubin.total [Mass/volume] in Urine by Test strip"
        },
        "valueQuantity": {
          "system": "http://unitsofmeasure.org",
          "value": 0.7,
          "unit": "mg/dL",
          "code": "mg/dL"
        },
        "referenceRange": [
          {
            "low": {
              "value": 0,
              "code": "mg/dL",
              "system": "http://unitsofmeasure.org"
            }
          },
          {
            "high": {
              "value": 1.9,
              "code": "mg/dL",
              "system": "http://unitsofmeasure.org"
            }
          }
        ],
        "text": {
          "status": "generated",
          "div": "<div xmlns=\"http://www.w3.org/1999/xhtml\"><table class=\"hl7__eu__lab__report\"><tr><th>Test</th><th>03-May-2024</th><th>Reference&#xA0;Range</th><th>Unit</th></tr><tr><td>Bilirubin.total [Mass/volume] in Urine by Test strip</td><td>0.7</td><td>0 - 1.9</td><td></td><td>mg/dL</td></tr></table></div>"
        },
        "status": "final",
        "subject": {
          "reference": "urn:uuid:ca40e124-c415-4846-bffd-24093db8f692",
          "display": "Victor Lagarde"
        },
        "effectiveDateTime": "2024-05-03T04:48:18Z",
        "specimen": {
          "reference": "urn:uuid:4c88f7d3-b58f-45db-beba-51c7669f2553"
        }
      }
    },
    {
      "fullUrl": "urn:uuid:adcfa247-d10b-4073-aa57-acb50ade3ba3",
      "resource": {
        "resourceType": "Observation",
        "id": "adcfa247-d10b-4073-aa57-acb50ade3ba3",
        "meta": {
          "profile": [
            "http://hl7.eu/fhir/laboratory/StructureDefinition/Observation-resultslab-eu-lab"
          ]
        },
        "performer": [
          {
            "display": "The Central European Lab"
          }
        ],
        "category": [
          {
            "coding": [
              {
                "system": "http://terminology.hl7.org/CodeSystem/observation-category",
                "code": "laboratory"
              }
            ]
          }
        ],
        "code": {
          "coding": [
            {
              "code": "5770-3",
              "system": "http://loinc.org",
              "display": "Bilirubin.total [Presence] in Urine by Test strip"
            }
          ],
          "text": "Bilirubin.total [Presence] in Urine by Test strip"
        },
        "text": {
          "status": "generated",
          "div": "<div xmlns=\"http://www.w3.org/1999/xhtml\"><table class=\"hl7__eu__lab__report\"><tr><th>Test</th><th>03-May-2024</th><th>Reference&#xA0;Range</th><th>Unit</th></tr><tr><td>Bilirubin.total [Presence] in Urine by Test strip</td></tr></table></div>"
        },
        "status": "final",
        "subject": {
          "reference": "urn:uuid:ca40e124-c415-4846-bffd-24093db8f692",
          "display": "Victor Lagarde"
        },
        "effectiveDateTime": "2024-05-03T04:48:18Z",
        "specimen": {
          "reference": "urn:uuid:4c88f7d3-b58f-45db-beba-51c7669f2553"
        }
      }
    },
    {
      "fullUrl": "urn:uuid:75a37a24-52e6-4936-a956-77c2a0fa6b30",
      "resource": {
        "resourceType": "Observation",
        "id": "75a37a24-52e6-4936-a956-77c2a0fa6b30",
        "meta": {
          "profile": [
            "http://hl7.eu/fhir/laboratory/StructureDefinition/Observation-resultslab-eu-lab"
          ]
        },
        "performer": [
          {
            "display": "The Central European Lab"
          }
        ],
        "category": [
          {
            "coding": [
              {
                "system": "http://terminology.hl7.org/CodeSystem/observation-category",
                "code": "laboratory"
              }
            ]
          }
        ],
        "code": {
          "coding": [
            {
              "code": "5797-6",
              "system": "http://loinc.org",
              "display": "Ketones [Mass/volume] in Urine by Test strip"
            }
          ],
          "text": "Ketones [Mass/volume] in Urine by Test strip"
        },
        "valueQuantity": {
          "system": "http://unitsofmeasure.org",
          "value": 7.1,
          "unit": "mg/dL",
          "code": "mg/dL"
        },
        "referenceRange": [
          {
            "low": {
              "value": 0,
              "code": "mg/dL",
              "system": "http://unitsofmeasure.org"
            }
          },
          {
            "high": {
              "value": 3,
              "code": "mg/dL",
              "system": "http://unitsofmeasure.org"
            }
          }
        ],
        "interpretation": [
          {
            "coding": [
              {
                "code": "H",
                "system": "http://terminology.hl7.org/CodeSystem/v3-ObservationInterpretation",
                "display": "High"
              }
            ]
          }
        ],
        "text": {
          "status": "generated",
          "div": "<div xmlns=\"http://www.w3.org/1999/xhtml\"><table class=\"hl7__eu__lab__report\"><tr><th>Test</th><th>03-May-2024</th><th>Reference&#xA0;Range</th><th>Unit</th></tr><tr><td>Ketones [Mass/volume] in Urine by Test strip</td><td>7.1</td><td>0 - 3</td><td>H</td><td>mg/dL</td></tr></table></div>"
        },
        "status": "final",
        "subject": {
          "reference": "urn:uuid:ca40e124-c415-4846-bffd-24093db8f692",
          "display": "Victor Lagarde"
        },
        "effectiveDateTime": "2024-05-03T04:48:18Z",
        "specimen": {
          "reference": "urn:uuid:4c88f7d3-b58f-45db-beba-51c7669f2553"
        }
      }
    },
    {
      "fullUrl": "urn:uuid:d2164ae9-dfe0-4fef-b147-0d79d2931d9b",
      "resource": {
        "resourceType": "Observation",
        "id": "d2164ae9-dfe0-4fef-b147-0d79d2931d9b",
        "meta": {
          "profile": [
            "http://hl7.eu/fhir/laboratory/StructureDefinition/Observation-resultslab-eu-lab"
          ]
        },
        "performer": [
          {
            "display": "The Central European Lab"
          }
        ],
        "category": [
          {
            "coding": [
              {
                "system": "http://terminology.hl7.org/CodeSystem/observation-category",
                "code": "laboratory"
              }
            ]
          }
        ],
        "code": {
          "coding": [
            {
              "code": "2514-8",
              "system": "http://loinc.org",
              "display": "Ketones [Presence] in Urine by Test strip"
            }
          ],
          "text": "Ketones [Presence] in Urine by Test strip"
        },
        "text": {
          "status": "generated",
          "div": "<div xmlns=\"http://www.w3.org/1999/xhtml\"><table class=\"hl7__eu__lab__report\"><tr><th>Test</th><th>03-May-2024</th><th>Reference&#xA0;Range</th><th>Unit</th></tr><tr><td>Ketones [Presence] in Urine by Test strip</td></tr></table></div>"
        },
        "status": "final",
        "subject": {
          "reference": "urn:uuid:ca40e124-c415-4846-bffd-24093db8f692",
          "display": "Victor Lagarde"
        },
        "effectiveDateTime": "2024-05-03T04:48:18Z",
        "specimen": {
          "reference": "urn:uuid:4c88f7d3-b58f-45db-beba-51c7669f2553"
        }
      }
    },
    {
      "fullUrl": "urn:uuid:07a189e4-2f28-4a0a-8291-93729f0e0557",
      "resource": {
        "resourceType": "Observation",
        "id": "07a189e4-2f28-4a0a-8291-93729f0e0557",
        "meta": {
          "profile": [
            "http://hl7.eu/fhir/laboratory/StructureDefinition/Observation-resultslab-eu-lab"
          ]
        },
        "performer": [
          {
            "display": "The Central European Lab"
          }
        ],
        "category": [
          {
            "coding": [
              {
                "system": "http://terminology.hl7.org/CodeSystem/observation-category",
                "code": "laboratory"
              }
            ]
          }
        ],
        "code": {
          "coding": [
            {
              "code": "5811-5",
              "system": "http://loinc.org",
              "display": "Specific gravity of Urine by Test strip"
            }
          ],
          "text": "Specific gravity of Urine by Test strip"
        },
        "valueQuantity": {
          "system": "http://unitsofmeasure.org",
          "value": 1,
          "unit": "{nominal}",
          "code": "{nominal}"
        },
        "referenceRange": [
          {
            "low": {
              "value": 1.01,
              "code": "g/mL",
              "system": "http://unitsofmeasure.org"
            }
          },
          {
            "high": {
              "value": 1.03,
              "code": "g/mL",
              "system": "http://unitsofmeasure.org"
            }
          }
        ],
        "interpretation": [
          {
            "coding": [
              {
                "code": "L",
                "system": "http://terminology.hl7.org/CodeSystem/v3-ObservationInterpretation",
                "display": "Low"
              }
            ]
          }
        ],
        "text": {
          "status": "generated",
          "div": "<div xmlns=\"http://www.w3.org/1999/xhtml\"><table class=\"hl7__eu__lab__report\"><tr><th>Test</th><th>03-May-2024</th><th>Reference&#xA0;Range</th><th>Unit</th></tr><tr><td>Specific gravity of Urine by Test strip</td><td>1.0</td><td>1.01 - 1.03</td><td>L</td><td>{nominal}</td></tr></table></div>"
        },
        "status": "final",
        "subject": {
          "reference": "urn:uuid:ca40e124-c415-4846-bffd-24093db8f692",
          "display": "Victor Lagarde"
        },
        "effectiveDateTime": "2024-05-03T04:48:18Z",
        "specimen": {
          "reference": "urn:uuid:4c88f7d3-b58f-45db-beba-51c7669f2553"
        }
      }
    },
    {
      "fullUrl": "urn:uuid:c902f257-f727-41b1-99c8-3968d102824d",
      "resource": {
        "resourceType": "Observation",
        "id": "c902f257-f727-41b1-99c8-3968d102824d",
        "meta": {
          "profile": [
            "http://hl7.eu/fhir/laboratory/StructureDefinition/Observation-resultslab-eu-lab"
          ]
        },
        "performer": [
          {
            "display": "The Central European Lab"
          }
        ],
        "category": [
          {
            "coding": [
              {
                "system": "http://terminology.hl7.org/CodeSystem/observation-category",
                "code": "laboratory"
              }
            ]
          }
        ],
        "code": {
          "coding": [
            {
              "code": "5803-2",
              "system": "http://loinc.org",
              "display": "pH of Urine by Test strip"
            }
          ],
          "text": "pH of Urine by Test strip"
        },
        "valueQuantity": {
          "system": "http://unitsofmeasure.org",
          "value": 5.2,
          "unit": "pH",
          "code": "pH"
        },
        "referenceRange": [
          {
            "low": {
              "value": 4.5,
              "code": "pH",
              "system": "http://unitsofmeasure.org"
            }
          },
          {
            "high": {
              "value": 7.5,
              "code": "pH",
              "system": "http://unitsofmeasure.org"
            }
          }
        ],
        "text": {
          "status": "generated",
          "div": "<div xmlns=\"http://www.w3.org/1999/xhtml\"><table class=\"hl7__eu__lab__report\"><tr><th>Test</th><th>03-May-2024</th><th>Reference&#xA0;Range</th><th>Unit</th></tr><tr><td>pH of Urine by Test strip</td><td>5.2</td><td>4.5 - 7.5</td><td></td><td>pH</td></tr></table></div>"
        },
        "status": "final",
        "subject": {
          "reference": "urn:uuid:ca40e124-c415-4846-bffd-24093db8f692",
          "display": "Victor Lagarde"
        },
        "effectiveDateTime": "2024-05-03T04:48:18Z",
        "specimen": {
          "reference": "urn:uuid:4c88f7d3-b58f-45db-beba-51c7669f2553"
        }
      }
    },
    {
      "fullUrl": "urn:uuid:03071607-0c5c-4562-a7b7-b243cbac464f",
      "resource": {
        "resourceType": "Observation",
        "id": "03071607-0c5c-4562-a7b7-b243cbac464f",
        "meta": {
          "profile": [
            "http://hl7.eu/fhir/laboratory/StructureDefinition/Observation-resultslab-eu-lab"
          ]
        },
        "performer": [
          {
            "display": "The Central European Lab"
          }
        ],
        "category": [
          {
            "coding": [
              {
                "system": "http://terminology.hl7.org/CodeSystem/observation-category",
                "code": "laboratory"
              }
            ]
          }
        ],
        "code": {
          "coding": [
            {
              "code": "5804-0",
              "system": "http://loinc.org",
              "display": "Protein [Mass/volume] in Urine by Test strip"
            }
          ],
          "text": "Protein [Mass/volume] in Urine by Test strip"
        },
        "valueQuantity": {
          "system": "http://unitsofmeasure.org",
          "value": 380,
          "unit": "mg/dL",
          "code": "mg/dL"
        },
        "referenceRange": [
          {
            "low": {
              "value": 0,
              "code": "mg/dL",
              "system": "http://unitsofmeasure.org"
            }
          },
          {
            "high": {
              "value": 149,
              "code": "mg/dL",
              "system": "http://unitsofmeasure.org"
            }
          }
        ],
        "interpretation": [
          {
            "coding": [
              {
                "code": "H",
                "system": "http://terminology.hl7.org/CodeSystem/v3-ObservationInterpretation",
                "display": "High"
              }
            ]
          }
        ],
        "text": {
          "status": "generated",
          "div": "<div xmlns=\"http://www.w3.org/1999/xhtml\"><table class=\"hl7__eu__lab__report\"><tr><th>Test</th><th>03-May-2024</th><th>Reference&#xA0;Range</th><th>Unit</th></tr><tr><td>Protein [Mass/volume] in Urine by Test strip</td><td>380.0</td><td>0 - 149</td><td>H</td><td>mg/dL</td></tr></table></div>"
        },
        "status": "final",
        "subject": {
          "reference": "urn:uuid:ca40e124-c415-4846-bffd-24093db8f692",
          "display": "Victor Lagarde"
        },
        "effectiveDateTime": "2024-05-03T04:48:18Z",
        "specimen": {
          "reference": "urn:uuid:4c88f7d3-b58f-45db-beba-51c7669f2553"
        }
      }
    },
    {
      "fullUrl": "urn:uuid:e4c3dc04-ea13-400d-9503-d8f50306a85f",
      "resource": {
        "resourceType": "Observation",
        "id": "e4c3dc04-ea13-400d-9503-d8f50306a85f",
        "meta": {
          "profile": [
            "http://hl7.eu/fhir/laboratory/StructureDefinition/Observation-resultslab-eu-lab"
          ]
        },
        "performer": [
          {
            "display": "The Central European Lab"
          }
        ],
        "category": [
          {
            "coding": [
              {
                "system": "http://terminology.hl7.org/CodeSystem/observation-category",
                "code": "laboratory"
              }
            ]
          }
        ],
        "code": {
          "coding": [
            {
              "code": "20454-5",
              "system": "http://loinc.org",
              "display": "Protein [Presence] in Urine by Test strip"
            }
          ],
          "text": "Protein [Presence] in Urine by Test strip"
        },
        "text": {
          "status": "generated",
          "div": "<div xmlns=\"http://www.w3.org/1999/xhtml\"><table class=\"hl7__eu__lab__report\"><tr><th>Test</th><th>03-May-2024</th><th>Reference&#xA0;Range</th><th>Unit</th></tr><tr><td>Protein [Presence] in Urine by Test strip</td></tr></table></div>"
        },
        "status": "final",
        "subject": {
          "reference": "urn:uuid:ca40e124-c415-4846-bffd-24093db8f692",
          "display": "Victor Lagarde"
        },
        "effectiveDateTime": "2024-05-03T04:48:18Z",
        "specimen": {
          "reference": "urn:uuid:4c88f7d3-b58f-45db-beba-51c7669f2553"
        }
      }
    },
    {
      "fullUrl": "urn:uuid:9a453624-1534-41f6-9d68-dbfed63fd5b5",
      "resource": {
        "resourceType": "Observation",
        "id": "9a453624-1534-41f6-9d68-dbfed63fd5b5",
        "meta": {
          "profile": [
            "http://hl7.eu/fhir/laboratory/StructureDefinition/Observation-resultslab-eu-lab"
          ]
        },
        "performer": [
          {
            "display": "The Central European Lab"
          }
        ],
        "category": [
          {
            "coding": [
              {
                "system": "http://terminology.hl7.org/CodeSystem/observation-category",
                "code": "laboratory"
              }
            ]
          }
        ],
        "code": {
          "coding": [
            {
              "code": "5802-4",
              "system": "http://loinc.org",
              "display": "Nitrite [Presence] in Urine by Test strip"
            }
          ],
          "text": "Nitrite [Presence] in Urine by Test strip"
        },
        "text": {
          "status": "generated",
          "div": "<div xmlns=\"http://www.w3.org/1999/xhtml\"><table class=\"hl7__eu__lab__report\"><tr><th>Test</th><th>03-May-2024</th><th>Reference&#xA0;Range</th><th>Unit</th></tr><tr><td>Nitrite [Presence] in Urine by Test strip</td></tr></table></div>"
        },
        "status": "final",
        "subject": {
          "reference": "urn:uuid:ca40e124-c415-4846-bffd-24093db8f692",
          "display": "Victor Lagarde"
        },
        "effectiveDateTime": "2024-05-03T04:48:18Z",
        "specimen": {
          "reference": "urn:uuid:4c88f7d3-b58f-45db-beba-51c7669f2553"
        }
      }
    },
    {
      "fullUrl": "urn:uuid:2f5df89f-9bbe-4597-a073-993e72b2933e",
      "resource": {
        "resourceType": "Observation",
        "id": "2f5df89f-9bbe-4597-a073-993e72b2933e",
        "meta": {
          "profile": [
            "http://hl7.eu/fhir/laboratory/StructureDefinition/Observation-resultslab-eu-lab"
          ]
        },
        "performer": [
          {
            "display": "The Central European Lab"
          }
        ],
        "category": [
          {
            "coding": [
              {
                "system": "http://terminology.hl7.org/CodeSystem/observation-category",
                "code": "laboratory"
              }
            ]
          }
        ],
        "code": {
          "coding": [
            {
              "code": "5794-3",
              "system": "http://loinc.org",
              "display": "Hemoglobin [Presence] in Urine by Test strip"
            }
          ],
          "text": "Hemoglobin [Presence] in Urine by Test strip"
        },
        "text": {
          "status": "generated",
          "div": "<div xmlns=\"http://www.w3.org/1999/xhtml\"><table class=\"hl7__eu__lab__report\"><tr><th>Test</th><th>03-May-2024</th><th>Reference&#xA0;Range</th><th>Unit</th></tr><tr><td>Hemoglobin [Presence] in Urine by Test strip</td></tr></table></div>"
        },
        "status": "final",
        "subject": {
          "reference": "urn:uuid:ca40e124-c415-4846-bffd-24093db8f692",
          "display": "Victor Lagarde"
        },
        "effectiveDateTime": "2024-05-03T04:48:18Z",
        "specimen": {
          "reference": "urn:uuid:4c88f7d3-b58f-45db-beba-51c7669f2553"
        }
      }
    },
    {
      "fullUrl": "urn:uuid:b9db7b43-11e0-40ef-9dc3-0392f23e49c0",
      "resource": {
        "resourceType": "Observation",
        "id": "b9db7b43-11e0-40ef-9dc3-0392f23e49c0",
        "meta": {
          "profile": [
            "http://hl7.eu/fhir/laboratory/StructureDefinition/Observation-resultslab-eu-lab"
          ]
        },
        "performer": [
          {
            "display": "The Central European Lab"
          }
        ],
        "category": [
          {
            "coding": [
              {
                "system": "http://terminology.hl7.org/CodeSystem/observation-category",
                "code": "laboratory"
              }
            ]
          }
        ],
        "code": {
          "coding": [
            {
              "code": "5799-2",
              "system": "http://loinc.org",
              "display": "Leukocyte esterase [Presence] in Urine by Test strip"
            }
          ],
          "text": "Leukocyte esterase [Presence] in Urine by Test strip"
        },
        "text": {
          "status": "generated",
          "div": "<div xmlns=\"http://www.w3.org/1999/xhtml\"><table class=\"hl7__eu__lab__report\"><tr><th>Test</th><th>03-May-2024</th><th>Reference&#xA0;Range</th><th>Unit</th></tr><tr><td>Leukocyte esterase [Presence] in Urine by Test strip</td></tr></table></div>"
        },
        "status": "final",
        "subject": {
          "reference": "urn:uuid:ca40e124-c415-4846-bffd-24093db8f692",
          "display": "Victor Lagarde"
        },
        "effectiveDateTime": "2024-05-03T04:48:18Z",
        "specimen": {
          "reference": "urn:uuid:4c88f7d3-b58f-45db-beba-51c7669f2553"
        }
      }
    },
    {
      "fullUrl": "urn:uuid:2fb1175c-6169-43e9-8244-6b63dd3b8371",
      "resource": {
        "resourceType": "Observation",
        "id": "2fb1175c-6169-43e9-8244-6b63dd3b8371",
        "meta": {
          "profile": [
            "http://hl7.eu/fhir/laboratory/StructureDefinition/Observation-resultslab-eu-lab"
          ]
        },
        "performer": [
          {
            "display": "The Central European Lab"
          }
        ],
        "category": [
          {
            "coding": [
              {
                "system": "http://terminology.hl7.org/CodeSystem/observation-category",
                "code": "laboratory"
              }
            ]
          }
        ],
        "code": {
          "coding": [
            {
              "code": "4548-4",
              "system": "http://loinc.org",
              "display": "Hemoglobin A1c/Hemoglobin.total in Blood"
            }
          ],
          "text": "Hemoglobin A1c/Hemoglobin.total in Blood"
        },
        "valueQuantity": {
          "system": "http://unitsofmeasure.org",
          "value": 3.2,
          "unit": "%",
          "code": "%"
        },
        "referenceRange": [
          {
            "low": {
              "value": 4.3,
              "code": "%",
              "system": "http://unitsofmeasure.org"
            }
          },
          {
            "high": {
              "value": 6,
              "code": "%",
              "system": "http://unitsofmeasure.org"
            }
          }
        ],
        "interpretation": [
          {
            "coding": [
              {
                "code": "L",
                "system": "http://terminology.hl7.org/CodeSystem/v3-ObservationInterpretation",
                "display": "Low"
              }
            ]
          }
        ],
        "text": {
          "status": "generated",
          "div": "<div xmlns=\"http://www.w3.org/1999/xhtml\"><table class=\"hl7__eu__lab__report\"><tr><th>Test</th><th>03-May-2024</th><th>Reference&#xA0;Range</th><th>Unit</th></tr><tr><td>Hemoglobin A1c/Hemoglobin.total in Blood</td><td>3.2</td><td>4.3 - 6</td><td>L</td><td>%</td></tr></table></div>"
        },
        "status": "final",
        "subject": {
          "reference": "urn:uuid:ca40e124-c415-4846-bffd-24093db8f692",
          "display": "Victor Lagarde"
        },
        "effectiveDateTime": "2024-05-03T04:48:18Z",
        "specimen": {
          "reference": "urn:uuid:b72f97fb-9b36-4cd4-b9fd-97c4e6a2377d"
        }
      }
    },
    {
      "fullUrl": "urn:uuid:a9e8e0e5-a240-4d78-8980-b7b12fa6e44a",
      "resource": {
        "resourceType": "Observation",
        "id": "a9e8e0e5-a240-4d78-8980-b7b12fa6e44a",
        "meta": {
          "profile": [
            "http://hl7.eu/fhir/laboratory/StructureDefinition/Observation-resultslab-eu-lab"
          ]
        },
        "performer": [
          {
            "display": "The Central European Lab"
          }
        ],
        "category": [
          {
            "coding": [
              {
                "system": "http://terminology.hl7.org/CodeSystem/observation-category",
                "code": "laboratory"
              }
            ]
          }
        ],
        "code": {
          "coding": [
            {
              "code": "2339-0",
              "system": "http://loinc.org",
              "display": "Glucose [Mass/volume] in Blood"
            }
          ],
          "text": "Glucose [Mass/volume] in Blood"
        },
        "valueQuantity": {
          "system": "http://unitsofmeasure.org",
          "value": 85.7,
          "unit": "mg/dL",
          "code": "mg/dL"
        },
        "referenceRange": [
          {
            "low": {
              "value": 70,
              "code": "mg/dL",
              "system": "http://unitsofmeasure.org"
            }
          },
          {
            "high": {
              "value": 140,
              "code": "mg/dL",
              "system": "http://unitsofmeasure.org"
            }
          }
        ],
        "text": {
          "status": "generated",
          "div": "<div xmlns=\"http://www.w3.org/1999/xhtml\"><table class=\"hl7__eu__lab__report\"><tr><th>Test</th><th>03-May-2024</th><th>Reference&#xA0;Range</th><th>Unit</th></tr><tr><td>Glucose [Mass/volume] in Blood</td><td>85.7</td><td>70 - 140</td><td></td><td>mg/dL</td></tr></table></div>"
        },
        "status": "final",
        "subject": {
          "reference": "urn:uuid:ca40e124-c415-4846-bffd-24093db8f692",
          "display": "Victor Lagarde"
        },
        "effectiveDateTime": "2024-05-03T04:48:18Z",
        "specimen": {
          "reference": "urn:uuid:b72f97fb-9b36-4cd4-b9fd-97c4e6a2377d"
        }
      }
    },
    {
      "fullUrl": "urn:uuid:bc1d2d0c-c2d6-435e-b86f-c48a522b4651",
      "resource": {
        "resourceType": "Observation",
        "id": "bc1d2d0c-c2d6-435e-b86f-c48a522b4651",
        "meta": {
          "profile": [
            "http://hl7.eu/fhir/laboratory/StructureDefinition/Observation-resultslab-eu-lab"
          ]
        },
        "performer": [
          {
            "display": "The Central European Lab"
          }
        ],
        "category": [
          {
            "coding": [
              {
                "system": "http://terminology.hl7.org/CodeSystem/observation-category",
                "code": "laboratory"
              }
            ]
          }
        ],
        "code": {
          "coding": [
            {
              "code": "6299-2",
              "system": "http://loinc.org",
              "display": "Urea nitrogen [Mass/volume] in Blood"
            }
          ],
          "text": "Urea nitrogen [Mass/volume] in Blood"
        },
        "valueQuantity": {
          "system": "http://unitsofmeasure.org",
          "value": 18,
          "unit": "mg/dL",
          "code": "mg/dL"
        },
        "referenceRange": [
          {
            "low": {
              "value": 7,
              "code": "mg/dL",
              "system": "http://unitsofmeasure.org"
            }
          },
          {
            "high": {
              "value": 20,
              "code": "mg/dL",
              "system": "http://unitsofmeasure.org"
            }
          }
        ],
        "text": {
          "status": "generated",
          "div": "<div xmlns=\"http://www.w3.org/1999/xhtml\"><table class=\"hl7__eu__lab__report\"><tr><th>Test</th><th>03-May-2024</th><th>Reference&#xA0;Range</th><th>Unit</th></tr><tr><td>Urea nitrogen [Mass/volume] in Blood</td><td>18.0</td><td>7 - 20</td><td></td><td>mg/dL</td></tr></table></div>"
        },
        "status": "final",
        "subject": {
          "reference": "urn:uuid:ca40e124-c415-4846-bffd-24093db8f692",
          "display": "Victor Lagarde"
        },
        "effectiveDateTime": "2024-05-03T04:48:18Z",
        "specimen": {
          "reference": "urn:uuid:b72f97fb-9b36-4cd4-b9fd-97c4e6a2377d"
        }
      }
    },
    {
      "fullUrl": "urn:uuid:176ab432-9dc7-4523-80d1-902e0f0ead11",
      "resource": {
        "resourceType": "Observation",
        "id": "176ab432-9dc7-4523-80d1-902e0f0ead11",
        "meta": {
          "profile": [
            "http://hl7.eu/fhir/laboratory/StructureDefinition/Observation-resultslab-eu-lab"
          ]
        },
        "performer": [
          {
            "display": "The Central European Lab"
          }
        ],
        "category": [
          {
            "coding": [
              {
                "system": "http://terminology.hl7.org/CodeSystem/observation-category",
                "code": "laboratory"
              }
            ]
          }
        ],
        "code": {
          "coding": [
            {
              "code": "38483-4",
              "system": "http://loinc.org",
              "display": "Creatinine [Mass/volume] in Blood"
            }
          ],
          "text": "Creatinine [Mass/volume] in Blood"
        },
        "valueQuantity": {
          "system": "http://unitsofmeasure.org",
          "value": 2.7,
          "unit": "mg/dL",
          "code": "mg/dL"
        },
        "referenceRange": [
          {
            "low": {
              "value": 0.9,
              "code": "mg/dL",
              "system": "http://unitsofmeasure.org"
            }
          },
          {
            "high": {
              "value": 1.3,
              "code": "mg/dL",
              "system": "http://unitsofmeasure.org"
            }
          }
        ],
        "interpretation": [
          {
            "coding": [
              {
                "code": "H",
                "system": "http://terminology.hl7.org/CodeSystem/v3-ObservationInterpretation",
                "display": "High"
              }
            ]
          }
        ],
        "text": {
          "status": "generated",
          "div": "<div xmlns=\"http://www.w3.org/1999/xhtml\"><table class=\"hl7__eu__lab__report\"><tr><th>Test</th><th>03-May-2024</th><th>Reference&#xA0;Range</th><th>Unit</th></tr><tr><td>Creatinine [Mass/volume] in Blood</td><td>2.7</td><td>0.9 - 1.3</td><td>H</td><td>mg/dL</td></tr></table></div>"
        },
        "status": "final",
        "subject": {
          "reference": "urn:uuid:ca40e124-c415-4846-bffd-24093db8f692",
          "display": "Victor Lagarde"
        },
        "effectiveDateTime": "2024-05-03T04:48:18Z",
        "specimen": {
          "reference": "urn:uuid:b72f97fb-9b36-4cd4-b9fd-97c4e6a2377d"
        }
      }
    },
    {
      "fullUrl": "urn:uuid:f2355c95-a6b5-4ed9-97cc-47365b93d100",
      "resource": {
        "resourceType": "Observation",
        "id": "f2355c95-a6b5-4ed9-97cc-47365b93d100",
        "meta": {
          "profile": [
            "http://hl7.eu/fhir/laboratory/StructureDefinition/Observation-resultslab-eu-lab"
          ]
        },
        "performer": [
          {
            "display": "The Central European Lab"
          }
        ],
        "category": [
          {
            "coding": [
              {
                "system": "http://terminology.hl7.org/CodeSystem/observation-category",
                "code": "laboratory"
              }
            ]
          }
        ],
        "code": {
          "coding": [
            {
              "code": "49765-1",
              "system": "http://loinc.org",
              "display": "Calcium [Mass/volume] in Blood"
            }
          ],
          "text": "Calcium [Mass/volume] in Blood"
        },
        "valueQuantity": {
          "system": "http://unitsofmeasure.org",
          "value": 9.1,
          "unit": "mg/dL",
          "code": "mg/dL"
        },
        "referenceRange": [
          {
            "low": {
              "value": 8.5,
              "code": "mg/dL",
              "system": "http://unitsofmeasure.org"
            }
          },
          {
            "high": {
              "value": 10.5,
              "code": "mg/dL",
              "system": "http://unitsofmeasure.org"
            }
          }
        ],
        "text": {
          "status": "generated",
          "div": "<div xmlns=\"http://www.w3.org/1999/xhtml\"><table class=\"hl7__eu__lab__report\"><tr><th>Test</th><th>03-May-2024</th><th>Reference&#xA0;Range</th><th>Unit</th></tr><tr><td>Calcium [Mass/volume] in Blood</td><td>9.1</td><td>8.5 - 10.5</td><td></td><td>mg/dL</td></tr></table></div>"
        },
        "status": "final",
        "subject": {
          "reference": "urn:uuid:ca40e124-c415-4846-bffd-24093db8f692",
          "display": "Victor Lagarde"
        },
        "effectiveDateTime": "2024-05-03T04:48:18Z",
        "specimen": {
          "reference": "urn:uuid:b72f97fb-9b36-4cd4-b9fd-97c4e6a2377d"
        }
      }
    },
    {
      "fullUrl": "urn:uuid:d15c4a28-9291-4905-8c31-8f1acde30f48",
      "resource": {
        "resourceType": "Observation",
        "id": "d15c4a28-9291-4905-8c31-8f1acde30f48",
        "meta": {
          "profile": [
            "http://hl7.eu/fhir/laboratory/StructureDefinition/Observation-resultslab-eu-lab"
          ]
        },
        "performer": [
          {
            "display": "The Central European Lab"
          }
        ],
        "category": [
          {
            "coding": [
              {
                "system": "http://terminology.hl7.org/CodeSystem/observation-category",
                "code": "laboratory"
              }
            ]
          }
        ],
        "code": {
          "coding": [
            {
              "code": "2947-0",
              "system": "http://loinc.org",
              "display": "Sodium [Moles/volume] in Blood"
            }
          ],
          "text": "Sodium [Moles/volume] in Blood"
        },
        "valueQuantity": {
          "system": "http://unitsofmeasure.org",
          "value": 141.2,
          "unit": "mmol/L",
          "code": "mmol/L"
        },
        "referenceRange": [
          {
            "low": {
              "value": 135,
              "code": "mmol/L",
              "system": "http://unitsofmeasure.org"
            }
          },
          {
            "high": {
              "value": 145,
              "code": "mmol/L",
              "system": "http://unitsofmeasure.org"
            }
          }
        ],
        "text": {
          "status": "generated",
          "div": "<div xmlns=\"http://www.w3.org/1999/xhtml\"><table class=\"hl7__eu__lab__report\"><tr><th>Test</th><th>03-May-2024</th><th>Reference&#xA0;Range</th><th>Unit</th></tr><tr><td>Sodium [Moles/volume] in Blood</td><td>141.2</td><td>135 - 145</td><td></td><td>mmol/L</td></tr></table></div>"
        },
        "status": "final",
        "subject": {
          "reference": "urn:uuid:ca40e124-c415-4846-bffd-24093db8f692",
          "display": "Victor Lagarde"
        },
        "effectiveDateTime": "2024-05-03T04:48:18Z",
        "specimen": {
          "reference": "urn:uuid:b72f97fb-9b36-4cd4-b9fd-97c4e6a2377d"
        }
      }
    },
    {
      "fullUrl": "urn:uuid:d439b1cb-1e18-4cd4-9ce9-fa4fe2358e36",
      "resource": {
        "resourceType": "Observation",
        "id": "d439b1cb-1e18-4cd4-9ce9-fa4fe2358e36",
        "meta": {
          "profile": [
            "http://hl7.eu/fhir/laboratory/StructureDefinition/Observation-resultslab-eu-lab"
          ]
        },
        "performer": [
          {
            "display": "The Central European Lab"
          }
        ],
        "category": [
          {
            "coding": [
              {
                "system": "http://terminology.hl7.org/CodeSystem/observation-category",
                "code": "laboratory"
              }
            ]
          }
        ],
        "code": {
          "coding": [
            {
              "code": "6298-4",
              "system": "http://loinc.org",
              "display": "Potassium [Moles/volume] in Blood"
            }
          ],
          "text": "Potassium [Moles/volume] in Blood"
        },
        "valueQuantity": {
          "system": "http://unitsofmeasure.org",
          "value": 4.1,
          "unit": "mmol/L",
          "code": "mmol/L"
        },
        "referenceRange": [
          {
            "low": {
              "value": 3.5,
              "code": "mmol/L",
              "system": "http://unitsofmeasure.org"
            }
          },
          {
            "high": {
              "value": 5.1,
              "code": "mmol/L",
              "system": "http://unitsofmeasure.org"
            }
          }
        ],
        "text": {
          "status": "generated",
          "div": "<div xmlns=\"http://www.w3.org/1999/xhtml\"><table class=\"hl7__eu__lab__report\"><tr><th>Test</th><th>03-May-2024</th><th>Reference&#xA0;Range</th><th>Unit</th></tr><tr><td>Potassium [Moles/volume] in Blood</td><td>4.1</td><td>3.5 - 5.1</td><td></td><td>mmol/L</td></tr></table></div>"
        },
        "status": "final",
        "subject": {
          "reference": "urn:uuid:ca40e124-c415-4846-bffd-24093db8f692",
          "display": "Victor Lagarde"
        },
        "effectiveDateTime": "2024-05-03T04:48:18Z",
        "specimen": {
          "reference": "urn:uuid:b72f97fb-9b36-4cd4-b9fd-97c4e6a2377d"
        }
      }
    },
    {
      "fullUrl": "urn:uuid:c2f008c0-60a0-4524-9b29-f96d793c0921",
      "resource": {
        "resourceType": "Observation",
        "id": "c2f008c0-60a0-4524-9b29-f96d793c0921",
        "meta": {
          "profile": [
            "http://hl7.eu/fhir/laboratory/StructureDefinition/Observation-resultslab-eu-lab"
          ]
        },
        "performer": [
          {
            "display": "The Central European Lab"
          }
        ],
        "category": [
          {
            "coding": [
              {
                "system": "http://terminology.hl7.org/CodeSystem/observation-category",
                "code": "laboratory"
              }
            ]
          }
        ],
        "code": {
          "coding": [
            {
              "code": "2069-3",
              "system": "http://loinc.org",
              "display": "Chloride [Moles/volume] in Blood"
            }
          ],
          "text": "Chloride [Moles/volume] in Blood"
        },
        "valueQuantity": {
          "system": "http://unitsofmeasure.org",
          "value": 109.9,
          "unit": "mmol/L",
          "code": "mmol/L"
        },
        "referenceRange": [
          {
            "low": {
              "value": 98,
              "code": "mmol/L",
              "system": "http://unitsofmeasure.org"
            }
          },
          {
            "high": {
              "value": 108,
              "code": "mmol/L",
              "system": "http://unitsofmeasure.org"
            }
          }
        ],
        "interpretation": [
          {
            "coding": [
              {
                "code": "H",
                "system": "http://terminology.hl7.org/CodeSystem/v3-ObservationInterpretation",
                "display": "High"
              }
            ]
          }
        ],
        "text": {
          "status": "generated",
          "div": "<div xmlns=\"http://www.w3.org/1999/xhtml\"><table class=\"hl7__eu__lab__report\"><tr><th>Test</th><th>03-May-2024</th><th>Reference&#xA0;Range</th><th>Unit</th></tr><tr><td>Chloride [Moles/volume] in Blood</td><td>109.9</td><td>98 - 108</td><td>H</td><td>mmol/L</td></tr></table></div>"
        },
        "status": "final",
        "subject": {
          "reference": "urn:uuid:ca40e124-c415-4846-bffd-24093db8f692",
          "display": "Victor Lagarde"
        },
        "effectiveDateTime": "2024-05-03T04:48:18Z",
        "specimen": {
          "reference": "urn:uuid:b72f97fb-9b36-4cd4-b9fd-97c4e6a2377d"
        }
      }
    },
    {
      "fullUrl": "urn:uuid:4ae8225a-6253-470b-8078-f0ae880fadc7",
      "resource": {
        "resourceType": "Observation",
        "id": "4ae8225a-6253-470b-8078-f0ae880fadc7",
        "meta": {
          "profile": [
            "http://hl7.eu/fhir/laboratory/StructureDefinition/Observation-resultslab-eu-lab"
          ]
        },
        "performer": [
          {
            "display": "The Central European Lab"
          }
        ],
        "category": [
          {
            "coding": [
              {
                "system": "http://terminology.hl7.org/CodeSystem/observation-category",
                "code": "laboratory"
              }
            ]
          }
        ],
        "code": {
          "coding": [
            {
              "code": "20565-8",
              "system": "http://loinc.org",
              "display": "Carbon dioxide, total [Moles/volume] in Blood"
            }
          ],
          "text": "Carbon dioxide, total [Moles/volume] in Blood"
        },
        "valueQuantity": {
          "system": "http://unitsofmeasure.org",
          "value": 23.8,
          "unit": "mmol/L",
          "code": "mmol/L"
        },
        "referenceRange": [
          {
            "low": {
              "value": 22,
              "code": "mmol/L",
              "system": "http://unitsofmeasure.org"
            }
          },
          {
            "high": {
              "value": 29,
              "code": "mmol/L",
              "system": "http://unitsofmeasure.org"
            }
          }
        ],
        "text": {
          "status": "generated",
          "div": "<div xmlns=\"http://www.w3.org/1999/xhtml\"><table class=\"hl7__eu__lab__report\"><tr><th>Test</th><th>03-May-2024</th><th>Reference&#xA0;Range</th><th>Unit</th></tr><tr><td>Carbon dioxide, total [Moles/volume] in Blood</td><td>23.8</td><td>22 - 29</td><td></td><td>mmol/L</td></tr></table></div>"
        },
        "status": "final",
        "subject": {
          "reference": "urn:uuid:ca40e124-c415-4846-bffd-24093db8f692",
          "display": "Victor Lagarde"
        },
        "effectiveDateTime": "2024-05-03T04:48:18Z",
        "specimen": {
          "reference": "urn:uuid:b72f97fb-9b36-4cd4-b9fd-97c4e6a2377d"
        }
      }
    },
    {
      "fullUrl": "urn:uuid:71f9f541-a771-47da-9b7d-7fe80745503d",
      "resource": {
        "resourceType": "Device",
        "id": "71f9f541-a771-47da-9b7d-7fe80745503d",
        "deviceName": [
          {
            "name": "SYNDERAI Synthetic Generator",
            "type": "manufacturer-name"
          }
        ],
        "version": [
          {
            "value": "5.0"
          }
        ],
        "text": {
          "status": "generated",
          "div": "<div xmlns=\"http://www.w3.org/1999/xhtml\">SYNDERAI Synthetic Generator v5.0</div>"
        },
        "status": "active\"",
        "distinctIdentifier": "synderai-generator-50",
        "manufacturer": "SYNDERAI Project"
      }
    },
    {
      "fullUrl": "urn:uuid:c34ff1a4-aafd-48b1-ad04-69e1647461bb",
      "resource": {
        "resourceType": "Provenance",
        "id": "c34ff1a4-aafd-48b1-ad04-69e1647461bb",
        "target": [
          {
            "reference": "Patient/ca40e124-c415-4846-bffd-24093db8f692"
          },
          {
            "reference": "Bundle/28dc05cd-ee56-4ab6-9bc7-d3f8bbdf4c99"
          },
          {
            "reference": "Composition/29fd031e-2c54-434a-a6be-a80b3d73b4f7"
          },
          {
            "reference": "PractitionerRole/325b6a4c-4b52-4144-b907-8cfe404632d0"
          },
          {
            "reference": "Practitioner/e02b6837-c1dc-4abb-9049-91eaad7135a6"
          },
          {
            "reference": "PractitionerRole/84e4ff28-1d80-4380-bdee-04fa5d644131"
          },
          {
            "reference": "Organization/19d249dd-8269-48d3-8dfb-5ecd3e2e8e39"
          }
        ],
        "activity": {
          "text": "Synthetic Example Data Generation"
        },
        "policy": [
          "https://synderai.net/synderai-synthetic-data-policy"
        ],
        "agent": [
          {
            "type": {
              "text": "author"
            },
            "who": {
              "reference": "Device/71f9f541-a771-47da-9b7d-7fe80745503d"
            }
          }
        ],
        "reason": [
          {
            "text": "Interoperability Testing and Training (non-clinical use)"
          }
        ],
        "text": {
          "status": "generated",
          "div": "<div xmlns=\"http://www.w3.org/1999/xhtml\">Provenance for SYNDERAI Synthetic Example Data Resource</div>"
        },
        "recorded": "2024-05-03T06:48:18Z"
      }
    },
    {
      "fullUrl": "urn:uuid:325b6a4c-4b52-4144-b907-8cfe404632d0",
      "resource": {
        "resourceType": "PractitionerRole",
        "id": "325b6a4c-4b52-4144-b907-8cfe404632d0",
        "meta": {
          "profile": [
            "http://hl7.eu/fhir/base/StructureDefinition/practitionerRole-eu"
          ]
        },
        "text": {
          "status": "generated",
          "div": "<div xmlns=\"http://www.w3.org/1999/xhtml\">Laboratory Role Id: 325b6a4c-4b52-4144-b907-8cfe404632d0</div>"
        },
        "practitioner": {
          "reference": "urn:uuid:e02b6837-c1dc-4abb-9049-91eaad7135a6"
        }
      }
    },
    {
      "fullUrl": "urn:uuid:e02b6837-c1dc-4abb-9049-91eaad7135a6",
      "resource": {
        "resourceType": "Practitioner",
        "id": "e02b6837-c1dc-4abb-9049-91eaad7135a6",
        "meta": {
          "profile": [
            "http://hl7.eu/fhir/base/StructureDefinition/practitioner-eu"
          ]
        },
        "identifier": [
          {
            "assigner": {
              "display": "HL7 Europe"
            },
            "system": "urn:oid:2.16.840.1.113883.2.51.999",
            "value": "fc0d4e4b-cf6c-4c2f-b1a4-4a4e84351545"
          }
        ],
        "name": [
          {
            "prefix": [
              "dr"
            ],
            "given": [
              "Ex"
            ],
            "family": "Ample"
          }
        ],
        "address": [
          {
            "line": [
              "Laboratoire Central Europenne",
              "Boulevard du Jardin Botanique 32"
            ],
            "postalCode": "1000",
            "city": "Brussels",
            "country": "Belgium"
          }
        ],
        "text": {
          "status": "generated",
          "div": "<div xmlns=\"http://www.w3.org/1999/xhtml\">Laboratory: Laboratoire Central Europenne, 1000 Brussels, Belgium</div>"
        }
      }
    }
  ],
  "type": "document",
  "timestamp": "2024-05-03T06:48:18Z"
}
