{
  "resourceType": "Bundle",
  "id": "8dd89bd9-67c0-4261-bc6a-27cd69af4092",
  "meta": {
    "profile": [
      "http://hl7.eu/fhir/laboratory/StructureDefinition/Bundle-eu-lab"
    ]
  },
  "identifier": {
    "assigner": {
      "display": "HL7 Europe"
    },
    "system": "urn:oid:2.16.840.1.113883.2.51.999",
    "value": "da3f5aa1-7191-430b-bc5b-b3b1788ffba3"
  },
  "entry": [
    {
      "fullUrl": "urn:uuid:99cca4ac-0595-4679-8bc3-204d8cc46771",
      "resource": {
        "resourceType": "Composition",
        "id": "99cca4ac-0595-4679-8bc3-204d8cc46771",
        "meta": {
          "profile": [
            "http://hl7.eu/fhir/laboratory/StructureDefinition/Composition-eu-lab"
          ]
        },
        "identifier": {
          "assigner": {
            "display": "HL7 Europe"
          },
          "system": "urn:oid:2.16.840.1.113883.2.51.999",
          "value": "43ef2092-af77-49cd-8e69-c3c5a0c96fb4"
        },
        "author": [
          {
            "reference": "urn:uuid:8f472d0d-354d-4a0d-b70e-52d2865891af"
          }
        ],
        "category": [
          {
            "coding": [
              {
                "code": "26436-6",
                "system": "http://loinc.org",
                "display": "Laboratory studies (set)"
              }
            ]
          }
        ],
        "type": {
          "coding": [
            {
              "code": "11502-2",
              "system": "http://loinc.org",
              "display": "Laboratory report"
            }
          ],
          "text": "Laboratory Report"
        },
        "section": [
          {
            "code": {
              "coding": [
                {
                  "code": "26436-6",
                  "system": "http://loinc.org",
                  "display": "Laboratory studies (set)"
                }
              ],
              "text": "Laboratory studies"
            },
            "section": [
              {
                "code": {
                  "coding": [
                    {
                      "code": "$18719-5",
                      "system": "http://loinc.org",
                      "display": "Chemistry studies (set)"
                    }
                  ],
                  "text": "Chemistry"
                },
                "entry": [
                  {
                    "reference": "urn:uuid:6509da9a-8db7-4b67-948f-0bafc48b50e3"
                  },
                  {
                    "reference": "urn:uuid:408a6076-f863-43bb-b89e-96ce54013d20"
                  },
                  {
                    "reference": "urn:uuid:cf187392-55d6-4faf-998a-74cfe6c20859"
                  },
                  {
                    "reference": "urn:uuid:8bff047b-a0eb-46bc-b100-c63c09874331"
                  },
                  {
                    "reference": "urn:uuid:26f78938-7db4-44f9-8356-94223bd0c627"
                  },
                  {
                    "reference": "urn:uuid:2f5cd361-72b1-4359-877b-8e52f2956b73"
                  },
                  {
                    "reference": "urn:uuid:953b105b-3561-4580-abce-16d4849a8afe"
                  },
                  {
                    "reference": "urn:uuid:6dd033c9-a10c-4652-ba1d-471e4213f79a"
                  },
                  {
                    "reference": "urn:uuid:8514b8dc-d9a1-41ff-85c6-c33558467709"
                  },
                  {
                    "reference": "urn:uuid:21fba983-3dc2-4bdf-855f-d00675fcf83d"
                  },
                  {
                    "reference": "urn:uuid:3d552f7e-0adc-4dbd-816b-e2b9d0e6249b"
                  },
                  {
                    "reference": "urn:uuid:b7192412-10df-467e-b2a2-9051008af22e"
                  },
                  {
                    "reference": "urn:uuid:7063d43d-c8ff-44af-9b64-f01a0cfca774"
                  },
                  {
                    "reference": "urn:uuid:f772eb19-e6b7-4aa5-a423-a9874c5cf205"
                  },
                  {
                    "reference": "urn:uuid:29ca09be-5147-4bf6-a2e3-1fc227152d63"
                  },
                  {
                    "reference": "urn:uuid:b5c730f6-e4be-41cb-b490-9603249a9e91"
                  },
                  {
                    "reference": "urn:uuid:f912c471-98ff-45d3-8bad-d05c3c8b65b2"
                  },
                  {
                    "reference": "urn:uuid:923779e6-70cf-4657-adc1-e39c472db4dc"
                  }
                ],
                "text": {
                  "status": "generated",
                  "div": "<div xmlns=\"http://www.w3.org/1999/xhtml\"><h3>Chemistry</h3><table class=\"hl7__eu__lab__report\"><thead><tr><th>Test</th><th>14-SEP-2023</th><th>Reference&#xA0;Range</th><th>Unit</th></tr></thead><tbody><tr><td>Glucose [Mass/volume] in Serum or Plasma</td><td>81.2</td><td>70 - 139</td><td>mg/dL</td></tr><tr><td>Urea nitrogen [Mass/volume] in Serum or Plasma</td><td>14.6</td><td>7 - 20</td><td>mg/dL</td></tr><tr><td>Creatinine [Mass/volume] in Serum or Plasma</td><td><strong>1.8 H</strong></td><td>0.6 - 1.1</td><td>mg/dL</td></tr><tr><td>Calcium [Mass/volume] in Serum or Plasma</td><td>9.2</td><td>8.5 - 10.4</td><td>mg/dL</td></tr><tr><td>Sodium [Moles/volume] in Serum or Plasma</td><td>138.1</td><td>135 - 145</td><td>mmol/L</td></tr><tr><td>Potassium [Moles/volume] in Serum or Plasma</td><td>4.1</td><td>3.5 - 5.1</td><td>mmol/L</td></tr><tr><td>Chloride [Moles/volume] in Serum or Plasma</td><td>104.8</td><td>98 - 110</td><td>mmol/L</td></tr><tr><td>Carbon dioxide, total [Moles/volume] in Serum or Plasma</td><td><strong>20.8 L</strong></td><td>22 - 32</td><td>mmol/L</td></tr><tr><td>Ketones [Presence] in Urine by Test strip</td><td>Urine ketone test = +</td><td></td><td></td></tr><tr><td>Hemoglobin A1c/Hemoglobin.total in Blood</td><td><strong>3.2 L</strong></td><td>4 - 6</td><td>%</td></tr><tr><td>Glucose [Mass/volume] in Blood</td><td>81.2</td><td>70 - 100</td><td>mg/dL</td></tr><tr><td>Urea nitrogen [Mass/volume] in Blood</td><td>14.6</td><td>7 - 20</td><td>mg/dL</td></tr><tr><td>Creatinine [Mass/volume] in Blood</td><td>1.2</td><td>0.6 - 1.3</td><td>mg/dL</td></tr><tr><td>Calcium [Mass/volume] in Blood</td><td>9.2</td><td>8.6 - 10.4</td><td>mg/dL</td></tr><tr><td>Sodium [Moles/volume] in Blood</td><td>138.1</td><td>135 - 145</td><td>mmol/L</td></tr><tr><td>Potassium [Moles/volume] in Blood</td><td>4.1</td><td>3.5 - 5.1</td><td>mmol/L</td></tr><tr><td>Chloride [Moles/volume] in Blood</td><td>104.8</td><td>98 - 110</td><td>mmol/L</td></tr><tr><td>Carbon dioxide, total [Moles/volume] in Blood</td><td><strong>20.8 L</strong></td><td>22 - 29</td><td>mmol/L</td></tr></tbody></table></div>"
                },
                "title": "Chemistry"
              },
              {
                "code": {
                  "coding": [
                    {
                      "code": "$18729-4",
                      "system": "http://loinc.org",
                      "display": "Urinalysis studies (set)"
                    }
                  ],
                  "text": "Urinalysis"
                },
                "entry": [
                  {
                    "reference": "urn:uuid:d446ab02-cdfd-4e38-96c3-80b4f71a44e0"
                  },
                  {
                    "reference": "urn:uuid:79a089da-ee9a-42df-bfa3-d8aa12f95dbc"
                  },
                  {
                    "reference": "urn:uuid:3e24329f-37c8-477b-a804-8ef0c27af669"
                  },
                  {
                    "reference": "urn:uuid:89aa5377-ce72-4617-b090-bd157b90ed49"
                  },
                  {
                    "reference": "urn:uuid:28fbb57f-a22f-4dae-875f-3e1585a41d75"
                  },
                  {
                    "reference": "urn:uuid:b1b4828a-093d-4142-847d-9d14b9717a8a"
                  },
                  {
                    "reference": "urn:uuid:9120cb02-f47a-4549-9a73-f49165d1c41d"
                  },
                  {
                    "reference": "urn:uuid:4701cb23-18b1-4263-9800-a01b5bb6cefa"
                  },
                  {
                    "reference": "urn:uuid:771e0a72-ad04-4aff-bba6-56ec59d8e324"
                  },
                  {
                    "reference": "urn:uuid:367df85f-e941-4f06-b641-8e407739a167"
                  },
                  {
                    "reference": "urn:uuid:3b159f0c-f24d-494c-929e-4ca7d85cdd48"
                  },
                  {
                    "reference": "urn:uuid:649b330f-5fc7-4747-8620-20bbe4db326f"
                  }
                ],
                "text": {
                  "status": "generated",
                  "div": "<div xmlns=\"http://www.w3.org/1999/xhtml\"><h3>Urinalysis</h3><table class=\"hl7__eu__lab__report\"><thead><tr><th>Test</th><th>14-SEP-2023</th><th>Reference&#xA0;Range</th><th>Unit</th></tr></thead><tbody><tr><td>Glucose [Mass/volume] in Urine by Test strip</td><td><strong>1.5 H</strong></td><td>0 - 0</td><td>mg/dL</td></tr><tr><td>Glucose [Presence] in Urine by Test strip</td><td>++</td><td></td><td></td></tr><tr><td>Bilirubin.total [Mass/volume] in Urine by Test strip</td><td>0.4</td><td>0 - 1.6</td><td>mg/dL</td></tr><tr><td>Bilirubin.total [Presence] in Urine by Test strip</td><td>Finding of bilirubin in urine</td><td></td><td></td></tr><tr><td>Ketones [Mass/volume] in Urine by Test strip</td><td><strong>11.7 H</strong></td><td>0 - 0.5</td><td>mg/dL</td></tr><tr><td>Specific gravity of Urine by Test strip</td><td><strong>1.0 L</strong></td><td>1.005 - 1.03</td><td>{nominal}</td></tr><tr><td>pH of Urine by Test strip</td><td>6.8</td><td>4.5 - 7.5</td><td>pH</td></tr><tr><td>Protein [Mass/volume] in Urine by Test strip</td><td><strong>248.2 H</strong></td><td>0 - 15</td><td>mg/dL</td></tr><tr><td>Protein [Presence] in Urine by Test strip</td><td>Urine protein test = ++</td><td></td><td></td></tr><tr><td>Nitrite [Presence] in Urine by Test strip</td><td>Urine nitrite negative</td><td></td><td></td></tr><tr><td>Hemoglobin [Presence] in Urine by Test strip</td><td>Urine blood test = negative</td><td></td><td></td></tr><tr><td>Leukocyte esterase [Presence] in Urine by Test strip</td><td>Urine leukocyte test negative</td><td></td><td></td></tr></tbody></table></div>"
                },
                "title": "Urinalysis"
              },
              {
                "code": {
                  "coding": [
                    {
                      "code": "$LP7846-1",
                      "system": "http://loinc.org",
                      "display": "Specimen information"
                    }
                  ],
                  "text": "Specimen information"
                },
                "entry": [
                  {
                    "reference": "urn:uuid:639854b2-723c-46fe-addf-0378c4b41c12"
                  },
                  {
                    "reference": "urn:uuid:e78c02d8-34ca-4553-bc93-8cad2a314c66"
                  },
                  {
                    "reference": "urn:uuid:ec63b579-eb65-4cc5-afa4-127e9b92c77c"
                  },
                  {
                    "reference": "urn:uuid:6996a2f1-17c5-411a-841c-c29e0958e16e"
                  }
                ],
                "text": {
                  "status": "generated",
                  "div": "<div xmlns=\"http://www.w3.org/1999/xhtml\"><h3>Specimen information</h3><table class=\"hl7__eu__lab__report\"><thead><tr><th>Test</th><th>14-SEP-2023</th><th>Specimen</th><th></th></tr></thead><tbody><tr><td>Appearance of Urine</td><td>Cloudy urine</td><td>Urine</td><td></td></tr><tr><td>Odor of Urine</td><td>Urine smell ammoniacal</td><td>Urine</td><td></td></tr><tr><td>Clarity of Urine</td><td>Translucent</td><td>Urine</td><td></td></tr><tr><td>Color of Urine</td><td>Brown color</td><td>Urine</td><td></td></tr></tbody></table></div>"
                },
                "title": "Specimen information"
              }
            ],
            "title": "Laboratory Report"
          },
          {
            "text": {
              "status": "generated",
              "div": "<div xmlns=\"http://www.w3.org/1999/xhtml\"><h3>Annotation</h3><table class=\"hl7__eu__lab__report\"><tr><th>Conclusion and Recommendations based on this report and previous findings known to us</th></tr><tr><td>The patient shows elevated serum creatinine, low total CO₂, and significant proteinuria, glycosuria, and ketonuria, with abnormal urine appearance (cloudy, brown, ammoniacal). These findings suggest impaired renal function with possible metabolic acidosis and abnormal glucose handling, despite low HbA1c. Urine findings may indicate tubular dysfunction or acute kidney injury. Further nephrological evaluation and clinical correlation are recommended.</td></tr></table></div>"
            },
            "code": {
              "coding": [
                {
                  "system": "http://loinc.org",
                  "code": "48767-8",
                  "display": "Annotation comment"
                }
              ]
            },
            "title": "Annotation comment"
          }
        ],
        "status": "final",
        "subject": {
          "reference": "urn:uuid:e9c76f2c-74df-4de5-8bd4-5098d95f1ca3",
          "display": "Molly Jenkins"
        },
        "date": "2023-09-14T16:42:11Z",
        "title": "Laboratory Report",
        "confidentiality": "N"
      }
    },
    {
      "fullUrl": "urn:uuid:234d727a-d6de-48b4-887e-e4b9539812be",
      "resource": {
        "resourceType": "DiagnosticReport",
        "id": "234d727a-d6de-48b4-887e-e4b9539812be",
        "meta": {
          "profile": [
            "http://hl7.eu/fhir/laboratory/StructureDefinition/DiagnosticReport-eu-lab"
          ]
        },
        "identifier": [
          {
            "assigner": {
              "display": "HL7 Europe"
            },
            "system": "urn:oid:2.16.840.1.113883.2.51.999",
            "value": "b013bfd7-6f25-4b91-9a34-38d2b8e50f42"
          }
        ],
        "extension": [
          {
            "url": "http://hl7.org/fhir/5.0/StructureDefinition/extension-DiagnosticReport.composition",
            "valueReference": {
              "reference": "urn:uuid:43ef2092-af77-49cd-8e69-c3c5a0c96fb4"
            }
          }
        ],
        "category": [
          {
            "coding": [
              {
                "code": "26436-6",
                "system": "http://loinc.org",
                "display": "Laboratory studies (set)"
              }
            ]
          }
        ],
        "specimen": [
          {
            "reference": "urn:uuid:4ea50b6b-7f3f-41c3-8cf4-19a5504fe14a"
          },
          {
            "reference": "urn:uuid:8297418e-5726-4c7c-9177-17fc796ecfd8"
          },
          {
            "reference": "urn:uuid:3e483f91-e95b-432b-8e48-4d7a774bf18b"
          }
        ],
        "result": [
          {
            "reference": "urn:uuid:6509da9a-8db7-4b67-948f-0bafc48b50e3"
          },
          {
            "reference": "urn:uuid:408a6076-f863-43bb-b89e-96ce54013d20"
          },
          {
            "reference": "urn:uuid:cf187392-55d6-4faf-998a-74cfe6c20859"
          },
          {
            "reference": "urn:uuid:8bff047b-a0eb-46bc-b100-c63c09874331"
          },
          {
            "reference": "urn:uuid:26f78938-7db4-44f9-8356-94223bd0c627"
          },
          {
            "reference": "urn:uuid:2f5cd361-72b1-4359-877b-8e52f2956b73"
          },
          {
            "reference": "urn:uuid:953b105b-3561-4580-abce-16d4849a8afe"
          },
          {
            "reference": "urn:uuid:6dd033c9-a10c-4652-ba1d-471e4213f79a"
          },
          {
            "reference": "urn:uuid:639854b2-723c-46fe-addf-0378c4b41c12"
          },
          {
            "reference": "urn:uuid:e78c02d8-34ca-4553-bc93-8cad2a314c66"
          },
          {
            "reference": "urn:uuid:ec63b579-eb65-4cc5-afa4-127e9b92c77c"
          },
          {
            "reference": "urn:uuid:6996a2f1-17c5-411a-841c-c29e0958e16e"
          },
          {
            "reference": "urn:uuid:d446ab02-cdfd-4e38-96c3-80b4f71a44e0"
          },
          {
            "reference": "urn:uuid:79a089da-ee9a-42df-bfa3-d8aa12f95dbc"
          },
          {
            "reference": "urn:uuid:3e24329f-37c8-477b-a804-8ef0c27af669"
          },
          {
            "reference": "urn:uuid:89aa5377-ce72-4617-b090-bd157b90ed49"
          },
          {
            "reference": "urn:uuid:28fbb57f-a22f-4dae-875f-3e1585a41d75"
          },
          {
            "reference": "urn:uuid:8514b8dc-d9a1-41ff-85c6-c33558467709"
          },
          {
            "reference": "urn:uuid:b1b4828a-093d-4142-847d-9d14b9717a8a"
          },
          {
            "reference": "urn:uuid:9120cb02-f47a-4549-9a73-f49165d1c41d"
          },
          {
            "reference": "urn:uuid:4701cb23-18b1-4263-9800-a01b5bb6cefa"
          },
          {
            "reference": "urn:uuid:771e0a72-ad04-4aff-bba6-56ec59d8e324"
          },
          {
            "reference": "urn:uuid:367df85f-e941-4f06-b641-8e407739a167"
          },
          {
            "reference": "urn:uuid:3b159f0c-f24d-494c-929e-4ca7d85cdd48"
          },
          {
            "reference": "urn:uuid:649b330f-5fc7-4747-8620-20bbe4db326f"
          },
          {
            "reference": "urn:uuid:21fba983-3dc2-4bdf-855f-d00675fcf83d"
          },
          {
            "reference": "urn:uuid:3d552f7e-0adc-4dbd-816b-e2b9d0e6249b"
          },
          {
            "reference": "urn:uuid:b7192412-10df-467e-b2a2-9051008af22e"
          },
          {
            "reference": "urn:uuid:7063d43d-c8ff-44af-9b64-f01a0cfca774"
          },
          {
            "reference": "urn:uuid:f772eb19-e6b7-4aa5-a423-a9874c5cf205"
          },
          {
            "reference": "urn:uuid:29ca09be-5147-4bf6-a2e3-1fc227152d63"
          },
          {
            "reference": "urn:uuid:b5c730f6-e4be-41cb-b490-9603249a9e91"
          },
          {
            "reference": "urn:uuid:f912c471-98ff-45d3-8bad-d05c3c8b65b2"
          },
          {
            "reference": "urn:uuid:923779e6-70cf-4657-adc1-e39c472db4dc"
          }
        ],
        "status": "registered",
        "code": {
          "coding": [
            {
              "code": "11502-2",
              "system": "http://loinc.org",
              "display": "Laboratory report"
            }
          ]
        },
        "subject": {
          "reference": "urn:uuid:e9c76f2c-74df-4de5-8bd4-5098d95f1ca3",
          "display": "Molly Jenkins"
        }
      }
    },
    {
      "fullUrl": "urn:uuid:e9c76f2c-74df-4de5-8bd4-5098d95f1ca3",
      "resource": {
        "resourceType": "Patient",
        "id": "e9c76f2c-74df-4de5-8bd4-5098d95f1ca3",
        "meta": {
          "security": [
            {
              "system": "http://terminology.hl7.org/CodeSystem/v3-ActReason",
              "code": "HTEST"
            },
            {
              "system": "http://terminology.hl7.org/CodeSystem/v3-ActReason",
              "code": "TRAIN"
            }
          ],
          "tag": [
            {
              "system": "https://synderai.net/fhir/CodeSystem/tags",
              "code": "synthetic",
              "display": "SYNDERAI Synthetic data"
            }
          ],
          "profile": [
            "http://hl7.eu/fhir/base/StructureDefinition/patient-eu-core"
          ]
        },
        "identifier": [
          {
            "type": {
              "coding": [
                {
                  "code": "PT",
                  "system": "http://terminology.hl7.org/CodeSystem/v2-0203"
                }
              ]
            },
            "system": "http://ec.europa.eu/identifier/eci",
            "value": "7634-012682-0"
          },
          {
            "type": {
              "coding": [
                {
                  "code": "MR",
                  "system": "http://terminology.hl7.org/CodeSystem/v2-0203"
                }
              ]
            },
            "system": "http://local.setting.eu/identifier",
            "value": "9934a8eb-b6e1-34e1-edf5-57a0262d1bea"
          }
        ],
        "name": [
          {
            "family": "Jenkins"
          },
          {
            "given": [
              "Molly"
            ]
          },
          {
            "text": "Molly Jenkins"
          }
        ],
        "address": [
          {
            "line": [
              "98 Ali field"
            ],
            "use": "home",
            "type": "physical",
            "postalCode": "AB42",
            "city": "Port Jennamouth",
            "country": "United Kingdom"
          }
        ],
        "telecom": [
          {
            "system": "phone",
            "value": "(0118) 496 0334"
          }
        ],
        "extension": [
          {
            "url": "http://hl7.org/fhir/StructureDefinition/patient-nationality",
            "valueCodeableConcept": {
              "coding": [
                {
                  "code": "GB",
                  "system": "http://hl7.org/fhir/ValueSet/country"
                }
              ]
            }
          }
        ],
        "text": {
          "status": "generated",
          "div": "<div xmlns=\"http://www.w3.org/1999/xhtml\"><table class=\"hl7__ips\"><tr><td>Molly Jenkins</td><td>female</td><td>14-Aug-1967</td></tr></table></div>"
        },
        "gender": "female",
        "birthDate": "1967-08-14"
      }
    },
    {
      "fullUrl": "urn:uuid:ab32783b-5030-4003-b2f9-10596f9d2fb9",
      "resource": {
        "resourceType": "ServiceRequest",
        "id": "ab32783b-5030-4003-b2f9-10596f9d2fb9",
        "meta": {
          "profile": [
            "http://hl7.eu/fhir/laboratory/StructureDefinition/ServiceRequest-eu-lab"
          ]
        },
        "identifier": [
          {
            "system": "http://example.org",
            "value": "342e2e95-6d91-4496-a033-56189eb2cacd"
          }
        ],
        "specimen": [
          {
            "reference": "urn:uuid:4ea50b6b-7f3f-41c3-8cf4-19a5504fe14a"
          },
          {
            "reference": "urn:uuid:8297418e-5726-4c7c-9177-17fc796ecfd8"
          },
          {
            "reference": "urn:uuid:3e483f91-e95b-432b-8e48-4d7a774bf18b"
          }
        ],
        "reasonCode": [
          {
            "coding": [
              {
                "code": "431856006",
                "system": "http://snomed.info/sct",
                "display": "Chronic kidney disease stage 2"
              }
            ]
          },
          {
            "coding": [
              {
                "code": "90781000119102",
                "system": "http://snomed.info/sct",
                "display": "Microalbuminuria due to type 2 diabetes mellitus"
              }
            ]
          },
          {
            "coding": [
              {
                "code": "127013003",
                "system": "http://snomed.info/sct",
                "display": "Disorder of kidney due to diabetes mellitus"
              }
            ]
          },
          {
            "coding": [
              {
                "code": "431855005",
                "system": "http://snomed.info/sct",
                "display": "Chronic kidney disease stage 1"
              }
            ]
          },
          {
            "coding": [
              {
                "code": "15777000",
                "system": "http://snomed.info/sct",
                "display": "Prediabetes"
              }
            ]
          },
          {
            "coding": [
              {
                "code": "59621000",
                "system": "http://snomed.info/sct",
                "display": "Essential hypertension"
              }
            ]
          },
          {
            "coding": [
              {
                "code": "53827007",
                "system": "http://snomed.info/sct",
                "display": "Excessive salivation"
              }
            ]
          },
          {
            "coding": [
              {
                "code": "64859006",
                "system": "http://snomed.info/sct",
                "display": "Osteoporosis"
              }
            ]
          },
          {
            "coding": [
              {
                "code": "128188000",
                "system": "http://snomed.info/sct",
                "display": "Cerebral palsy"
              }
            ]
          },
          {
            "coding": [
              {
                "code": "235595009",
                "system": "http://snomed.info/sct",
                "display": "Gastroesophageal reflux disease"
              }
            ]
          }
        ],
        "status": "active",
        "intent": "order",
        "code": {
          "coding": [
            {
              "code": "108252007",
              "system": "http://snomed.info/sct",
              "display": "Laboratory procedure"
            }
          ]
        },
        "subject": {
          "reference": "urn:uuid:e9c76f2c-74df-4de5-8bd4-5098d95f1ca3",
          "display": "Molly Jenkins"
        },
        "requester": {
          "reference": "urn:uuid:70d9618a-4aa0-4ce9-beae-f041f4516329"
        }
      }
    },
    {
      "fullUrl": "urn:uuid:70d9618a-4aa0-4ce9-beae-f041f4516329",
      "resource": {
        "resourceType": "PractitionerRole",
        "id": "70d9618a-4aa0-4ce9-beae-f041f4516329",
        "meta": {
          "profile": [
            "http://hl7.eu/fhir/base/StructureDefinition/practitionerRole-eu"
          ]
        },
        "text": {
          "status": "generated",
          "div": "<div xmlns=\"http://www.w3.org/1999/xhtml\">Provider Role Id: 70d9618a-4aa0-4ce9-beae-f041f4516329</div>"
        },
        "organization": {
          "reference": "urn:uuid:f51a14d6-5a68-47e1-93eb-72950cab1c05"
        }
      }
    },
    {
      "fullUrl": "urn:uuid:f51a14d6-5a68-47e1-93eb-72950cab1c05",
      "resource": {
        "resourceType": "Organization",
        "id": "f51a14d6-5a68-47e1-93eb-72950cab1c05",
        "meta": {
          "profile": [
            "http://hl7.eu/fhir/base/StructureDefinition/organization-eu"
          ]
        },
        "identifier": [
          {
            "assigner": {
              "display": "HL7 Europe"
            },
            "system": "urn:oid:2.16.840.1.113883.2.51.999",
            "value": "9dc27773-e36e-496c-a731-0e0cbf192fe8"
          }
        ],
        "address": [
          {
            "city": "Aberdeen",
            "postalCode": "AB11 6",
            "country": "United Kingdom"
          }
        ],
        "text": {
          "status": "generated",
          "div": "<div xmlns=\"http://www.w3.org/1999/xhtml\">Provider Organization: Aberdeen Community Health and Care Village</div>"
        },
        "name": "Aberdeen Community Health and Care Village"
      }
    },
    {
      "fullUrl": "urn:uuid:4ea50b6b-7f3f-41c3-8cf4-19a5504fe14a",
      "resource": {
        "resourceType": "Specimen",
        "id": "4ea50b6b-7f3f-41c3-8cf4-19a5504fe14a",
        "meta": {
          "profile": [
            "http://hl7.eu/fhir/laboratory/StructureDefinition/Specimen-eu-lab"
          ]
        },
        "collection": {
          "collectedDateTime": "2023-09-14"
        },
        "text": {
          "status": "generated",
          "div": "<div xmlns=\"http://www.w3.org/1999/xhtml\"><table class=\"hl7__eu__lab__report\"><tr><th>Specimen</th><th>Collection Date</th></tr><tr><td>Acellular blood (serum or plasma) specimen</td><td><span class=\"nb\">14-Sep-2023</span></td></tr></table></div>"
        },
        "type": {
          "coding": [
            {
              "code": "122592007",
              "system": "http://snomed.info/sct",
              "display": "Acellular blood (serum or plasma) specimen"
            }
          ]
        }
      }
    },
    {
      "fullUrl": "urn:uuid:8297418e-5726-4c7c-9177-17fc796ecfd8",
      "resource": {
        "resourceType": "Specimen",
        "id": "8297418e-5726-4c7c-9177-17fc796ecfd8",
        "meta": {
          "profile": [
            "http://hl7.eu/fhir/laboratory/StructureDefinition/Specimen-eu-lab"
          ]
        },
        "collection": {
          "collectedDateTime": "2023-09-14"
        },
        "text": {
          "status": "generated",
          "div": "<div xmlns=\"http://www.w3.org/1999/xhtml\"><table class=\"hl7__eu__lab__report\"><tr><th>Specimen</th><th>Collection Date</th></tr><tr><td>Urine specimen</td><td><span class=\"nb\">14-Sep-2023</span></td></tr></table></div>"
        },
        "type": {
          "coding": [
            {
              "code": "122575003",
              "system": "http://snomed.info/sct",
              "display": "Urine specimen"
            }
          ]
        }
      }
    },
    {
      "fullUrl": "urn:uuid:3e483f91-e95b-432b-8e48-4d7a774bf18b",
      "resource": {
        "resourceType": "Specimen",
        "id": "3e483f91-e95b-432b-8e48-4d7a774bf18b",
        "meta": {
          "profile": [
            "http://hl7.eu/fhir/laboratory/StructureDefinition/Specimen-eu-lab"
          ]
        },
        "collection": {
          "collectedDateTime": "2023-09-14"
        },
        "text": {
          "status": "generated",
          "div": "<div xmlns=\"http://www.w3.org/1999/xhtml\"><table class=\"hl7__eu__lab__report\"><tr><th>Specimen</th><th>Collection Date</th></tr><tr><td>Whole blood specimen (specimen)</td><td><span class=\"nb\">14-Sep-2023</span></td></tr></table></div>"
        },
        "type": {
          "coding": [
            {
              "code": "258580003",
              "system": "http://snomed.info/sct",
              "display": "Whole blood specimen (specimen)"
            }
          ]
        }
      }
    },
    {
      "fullUrl": "urn:uuid:6509da9a-8db7-4b67-948f-0bafc48b50e3",
      "resource": {
        "resourceType": "Observation",
        "id": "6509da9a-8db7-4b67-948f-0bafc48b50e3",
        "meta": {
          "profile": [
            "http://hl7.eu/fhir/laboratory/StructureDefinition/Observation-resultslab-eu-lab"
          ]
        },
        "performer": [
          {
            "display": "The Central European Lab"
          }
        ],
        "category": [
          {
            "coding": [
              {
                "system": "http://terminology.hl7.org/CodeSystem/observation-category",
                "code": "laboratory"
              }
            ]
          }
        ],
        "code": {
          "coding": [
            {
              "code": "2345-7",
              "system": "http://loinc.org",
              "display": "Glucose [Mass/volume] in Serum or Plasma"
            }
          ],
          "text": "Glucose [Mass/volume] in Serum or Plasma"
        },
        "valueQuantity": {
          "system": "http://unitsofmeasure.org",
          "value": 81.2,
          "unit": "mg/dL",
          "code": "mg/dL"
        },
        "referenceRange": [
          {
            "low": {
              "value": 70,
              "code": "mg/dL",
              "system": "http://unitsofmeasure.org"
            }
          },
          {
            "high": {
              "value": 139,
              "code": "mg/dL",
              "system": "http://unitsofmeasure.org"
            }
          }
        ],
        "text": {
          "status": "generated",
          "div": "<div xmlns=\"http://www.w3.org/1999/xhtml\"><table class=\"hl7__eu__lab__report\"><tr><th>Test</th><th>14-Sep-2023</th><th>Reference&#xA0;Range</th><th>Unit</th></tr><tr><td>Glucose [Mass/volume] in Serum or Plasma</td><td>81.2</td><td>70 - 139</td><td></td><td>mg/dL</td></tr></table></div>"
        },
        "status": "final",
        "subject": {
          "reference": "urn:uuid:e9c76f2c-74df-4de5-8bd4-5098d95f1ca3",
          "display": "Molly Jenkins"
        },
        "effectiveDateTime": "2023-09-14T14:42:11Z",
        "specimen": {
          "reference": "urn:uuid:4ea50b6b-7f3f-41c3-8cf4-19a5504fe14a"
        }
      }
    },
    {
      "fullUrl": "urn:uuid:408a6076-f863-43bb-b89e-96ce54013d20",
      "resource": {
        "resourceType": "Observation",
        "id": "408a6076-f863-43bb-b89e-96ce54013d20",
        "meta": {
          "profile": [
            "http://hl7.eu/fhir/laboratory/StructureDefinition/Observation-resultslab-eu-lab"
          ]
        },
        "performer": [
          {
            "display": "The Central European Lab"
          }
        ],
        "category": [
          {
            "coding": [
              {
                "system": "http://terminology.hl7.org/CodeSystem/observation-category",
                "code": "laboratory"
              }
            ]
          }
        ],
        "code": {
          "coding": [
            {
              "code": "3094-0",
              "system": "http://loinc.org",
              "display": "Urea nitrogen [Mass/volume] in Serum or Plasma"
            }
          ],
          "text": "Urea nitrogen [Mass/volume] in Serum or Plasma"
        },
        "valueQuantity": {
          "system": "http://unitsofmeasure.org",
          "value": 14.6,
          "unit": "mg/dL",
          "code": "mg/dL"
        },
        "referenceRange": [
          {
            "low": {
              "value": 7,
              "code": "mg/dL",
              "system": "http://unitsofmeasure.org"
            }
          },
          {
            "high": {
              "value": 20,
              "code": "mg/dL",
              "system": "http://unitsofmeasure.org"
            }
          }
        ],
        "text": {
          "status": "generated",
          "div": "<div xmlns=\"http://www.w3.org/1999/xhtml\"><table class=\"hl7__eu__lab__report\"><tr><th>Test</th><th>14-Sep-2023</th><th>Reference&#xA0;Range</th><th>Unit</th></tr><tr><td>Urea nitrogen [Mass/volume] in Serum or Plasma</td><td>14.6</td><td>7 - 20</td><td></td><td>mg/dL</td></tr></table></div>"
        },
        "status": "final",
        "subject": {
          "reference": "urn:uuid:e9c76f2c-74df-4de5-8bd4-5098d95f1ca3",
          "display": "Molly Jenkins"
        },
        "effectiveDateTime": "2023-09-14T14:42:11Z",
        "specimen": {
          "reference": "urn:uuid:4ea50b6b-7f3f-41c3-8cf4-19a5504fe14a"
        }
      }
    },
    {
      "fullUrl": "urn:uuid:cf187392-55d6-4faf-998a-74cfe6c20859",
      "resource": {
        "resourceType": "Observation",
        "id": "cf187392-55d6-4faf-998a-74cfe6c20859",
        "meta": {
          "profile": [
            "http://hl7.eu/fhir/laboratory/StructureDefinition/Observation-resultslab-eu-lab"
          ]
        },
        "performer": [
          {
            "display": "The Central European Lab"
          }
        ],
        "category": [
          {
            "coding": [
              {
                "system": "http://terminology.hl7.org/CodeSystem/observation-category",
                "code": "laboratory"
              }
            ]
          }
        ],
        "code": {
          "coding": [
            {
              "code": "2160-0",
              "system": "http://loinc.org",
              "display": "Creatinine [Mass/volume] in Serum or Plasma"
            }
          ],
          "text": "Creatinine [Mass/volume] in Serum or Plasma"
        },
        "valueQuantity": {
          "system": "http://unitsofmeasure.org",
          "value": 1.8,
          "unit": "mg/dL",
          "code": "mg/dL"
        },
        "referenceRange": [
          {
            "low": {
              "value": 0.6,
              "code": "mg/dL",
              "system": "http://unitsofmeasure.org"
            }
          },
          {
            "high": {
              "value": 1.1,
              "code": "mg/dL",
              "system": "http://unitsofmeasure.org"
            }
          }
        ],
        "interpretation": [
          {
            "coding": [
              {
                "code": "H",
                "system": "http://terminology.hl7.org/CodeSystem/v3-ObservationInterpretation",
                "display": "High"
              }
            ]
          }
        ],
        "text": {
          "status": "generated",
          "div": "<div xmlns=\"http://www.w3.org/1999/xhtml\"><table class=\"hl7__eu__lab__report\"><tr><th>Test</th><th>14-Sep-2023</th><th>Reference&#xA0;Range</th><th>Unit</th></tr><tr><td>Creatinine [Mass/volume] in Serum or Plasma</td><td>1.8</td><td>0.6 - 1.1</td><td>H</td><td>mg/dL</td></tr></table></div>"
        },
        "status": "final",
        "subject": {
          "reference": "urn:uuid:e9c76f2c-74df-4de5-8bd4-5098d95f1ca3",
          "display": "Molly Jenkins"
        },
        "effectiveDateTime": "2023-09-14T14:42:11Z",
        "specimen": {
          "reference": "urn:uuid:4ea50b6b-7f3f-41c3-8cf4-19a5504fe14a"
        }
      }
    },
    {
      "fullUrl": "urn:uuid:8bff047b-a0eb-46bc-b100-c63c09874331",
      "resource": {
        "resourceType": "Observation",
        "id": "8bff047b-a0eb-46bc-b100-c63c09874331",
        "meta": {
          "profile": [
            "http://hl7.eu/fhir/laboratory/StructureDefinition/Observation-resultslab-eu-lab"
          ]
        },
        "performer": [
          {
            "display": "The Central European Lab"
          }
        ],
        "category": [
          {
            "coding": [
              {
                "system": "http://terminology.hl7.org/CodeSystem/observation-category",
                "code": "laboratory"
              }
            ]
          }
        ],
        "code": {
          "coding": [
            {
              "code": "17861-6",
              "system": "http://loinc.org",
              "display": "Calcium [Mass/volume] in Serum or Plasma"
            }
          ],
          "text": "Calcium [Mass/volume] in Serum or Plasma"
        },
        "valueQuantity": {
          "system": "http://unitsofmeasure.org",
          "value": 9.2,
          "unit": "mg/dL",
          "code": "mg/dL"
        },
        "referenceRange": [
          {
            "low": {
              "value": 8.5,
              "code": "mg/dL",
              "system": "http://unitsofmeasure.org"
            }
          },
          {
            "high": {
              "value": 10.4,
              "code": "mg/dL",
              "system": "http://unitsofmeasure.org"
            }
          }
        ],
        "text": {
          "status": "generated",
          "div": "<div xmlns=\"http://www.w3.org/1999/xhtml\"><table class=\"hl7__eu__lab__report\"><tr><th>Test</th><th>14-Sep-2023</th><th>Reference&#xA0;Range</th><th>Unit</th></tr><tr><td>Calcium [Mass/volume] in Serum or Plasma</td><td>9.2</td><td>8.5 - 10.4</td><td></td><td>mg/dL</td></tr></table></div>"
        },
        "status": "final",
        "subject": {
          "reference": "urn:uuid:e9c76f2c-74df-4de5-8bd4-5098d95f1ca3",
          "display": "Molly Jenkins"
        },
        "effectiveDateTime": "2023-09-14T14:42:11Z",
        "specimen": {
          "reference": "urn:uuid:4ea50b6b-7f3f-41c3-8cf4-19a5504fe14a"
        }
      }
    },
    {
      "fullUrl": "urn:uuid:26f78938-7db4-44f9-8356-94223bd0c627",
      "resource": {
        "resourceType": "Observation",
        "id": "26f78938-7db4-44f9-8356-94223bd0c627",
        "meta": {
          "profile": [
            "http://hl7.eu/fhir/laboratory/StructureDefinition/Observation-resultslab-eu-lab"
          ]
        },
        "performer": [
          {
            "display": "The Central European Lab"
          }
        ],
        "category": [
          {
            "coding": [
              {
                "system": "http://terminology.hl7.org/CodeSystem/observation-category",
                "code": "laboratory"
              }
            ]
          }
        ],
        "code": {
          "coding": [
            {
              "code": "2951-2",
              "system": "http://loinc.org",
              "display": "Sodium [Moles/volume] in Serum or Plasma"
            }
          ],
          "text": "Sodium [Moles/volume] in Serum or Plasma"
        },
        "valueQuantity": {
          "system": "http://unitsofmeasure.org",
          "value": 138.1,
          "unit": "mmol/L",
          "code": "mmol/L"
        },
        "referenceRange": [
          {
            "low": {
              "value": 135,
              "code": "mmol/L",
              "system": "http://unitsofmeasure.org"
            }
          },
          {
            "high": {
              "value": 145,
              "code": "mmol/L",
              "system": "http://unitsofmeasure.org"
            }
          }
        ],
        "text": {
          "status": "generated",
          "div": "<div xmlns=\"http://www.w3.org/1999/xhtml\"><table class=\"hl7__eu__lab__report\"><tr><th>Test</th><th>14-Sep-2023</th><th>Reference&#xA0;Range</th><th>Unit</th></tr><tr><td>Sodium [Moles/volume] in Serum or Plasma</td><td>138.1</td><td>135 - 145</td><td></td><td>mmol/L</td></tr></table></div>"
        },
        "status": "final",
        "subject": {
          "reference": "urn:uuid:e9c76f2c-74df-4de5-8bd4-5098d95f1ca3",
          "display": "Molly Jenkins"
        },
        "effectiveDateTime": "2023-09-14T14:42:11Z",
        "specimen": {
          "reference": "urn:uuid:4ea50b6b-7f3f-41c3-8cf4-19a5504fe14a"
        }
      }
    },
    {
      "fullUrl": "urn:uuid:2f5cd361-72b1-4359-877b-8e52f2956b73",
      "resource": {
        "resourceType": "Observation",
        "id": "2f5cd361-72b1-4359-877b-8e52f2956b73",
        "meta": {
          "profile": [
            "http://hl7.eu/fhir/laboratory/StructureDefinition/Observation-resultslab-eu-lab"
          ]
        },
        "performer": [
          {
            "display": "The Central European Lab"
          }
        ],
        "category": [
          {
            "coding": [
              {
                "system": "http://terminology.hl7.org/CodeSystem/observation-category",
                "code": "laboratory"
              }
            ]
          }
        ],
        "code": {
          "coding": [
            {
              "code": "2823-3",
              "system": "http://loinc.org",
              "display": "Potassium [Moles/volume] in Serum or Plasma"
            }
          ],
          "text": "Potassium [Moles/volume] in Serum or Plasma"
        },
        "valueQuantity": {
          "system": "http://unitsofmeasure.org",
          "value": 4.1,
          "unit": "mmol/L",
          "code": "mmol/L"
        },
        "referenceRange": [
          {
            "low": {
              "value": 3.5,
              "code": "mmol/L",
              "system": "http://unitsofmeasure.org"
            }
          },
          {
            "high": {
              "value": 5.1,
              "code": "mmol/L",
              "system": "http://unitsofmeasure.org"
            }
          }
        ],
        "text": {
          "status": "generated",
          "div": "<div xmlns=\"http://www.w3.org/1999/xhtml\"><table class=\"hl7__eu__lab__report\"><tr><th>Test</th><th>14-Sep-2023</th><th>Reference&#xA0;Range</th><th>Unit</th></tr><tr><td>Potassium [Moles/volume] in Serum or Plasma</td><td>4.1</td><td>3.5 - 5.1</td><td></td><td>mmol/L</td></tr></table></div>"
        },
        "status": "final",
        "subject": {
          "reference": "urn:uuid:e9c76f2c-74df-4de5-8bd4-5098d95f1ca3",
          "display": "Molly Jenkins"
        },
        "effectiveDateTime": "2023-09-14T14:42:11Z",
        "specimen": {
          "reference": "urn:uuid:4ea50b6b-7f3f-41c3-8cf4-19a5504fe14a"
        }
      }
    },
    {
      "fullUrl": "urn:uuid:953b105b-3561-4580-abce-16d4849a8afe",
      "resource": {
        "resourceType": "Observation",
        "id": "953b105b-3561-4580-abce-16d4849a8afe",
        "meta": {
          "profile": [
            "http://hl7.eu/fhir/laboratory/StructureDefinition/Observation-resultslab-eu-lab"
          ]
        },
        "performer": [
          {
            "display": "The Central European Lab"
          }
        ],
        "category": [
          {
            "coding": [
              {
                "system": "http://terminology.hl7.org/CodeSystem/observation-category",
                "code": "laboratory"
              }
            ]
          }
        ],
        "code": {
          "coding": [
            {
              "code": "2075-0",
              "system": "http://loinc.org",
              "display": "Chloride [Moles/volume] in Serum or Plasma"
            }
          ],
          "text": "Chloride [Moles/volume] in Serum or Plasma"
        },
        "valueQuantity": {
          "system": "http://unitsofmeasure.org",
          "value": 104.8,
          "unit": "mmol/L",
          "code": "mmol/L"
        },
        "referenceRange": [
          {
            "low": {
              "value": 98,
              "code": "mmol/L",
              "system": "http://unitsofmeasure.org"
            }
          },
          {
            "high": {
              "value": 110,
              "code": "mmol/L",
              "system": "http://unitsofmeasure.org"
            }
          }
        ],
        "text": {
          "status": "generated",
          "div": "<div xmlns=\"http://www.w3.org/1999/xhtml\"><table class=\"hl7__eu__lab__report\"><tr><th>Test</th><th>14-Sep-2023</th><th>Reference&#xA0;Range</th><th>Unit</th></tr><tr><td>Chloride [Moles/volume] in Serum or Plasma</td><td>104.8</td><td>98 - 110</td><td></td><td>mmol/L</td></tr></table></div>"
        },
        "status": "final",
        "subject": {
          "reference": "urn:uuid:e9c76f2c-74df-4de5-8bd4-5098d95f1ca3",
          "display": "Molly Jenkins"
        },
        "effectiveDateTime": "2023-09-14T14:42:11Z",
        "specimen": {
          "reference": "urn:uuid:4ea50b6b-7f3f-41c3-8cf4-19a5504fe14a"
        }
      }
    },
    {
      "fullUrl": "urn:uuid:6dd033c9-a10c-4652-ba1d-471e4213f79a",
      "resource": {
        "resourceType": "Observation",
        "id": "6dd033c9-a10c-4652-ba1d-471e4213f79a",
        "meta": {
          "profile": [
            "http://hl7.eu/fhir/laboratory/StructureDefinition/Observation-resultslab-eu-lab"
          ]
        },
        "performer": [
          {
            "display": "The Central European Lab"
          }
        ],
        "category": [
          {
            "coding": [
              {
                "system": "http://terminology.hl7.org/CodeSystem/observation-category",
                "code": "laboratory"
              }
            ]
          }
        ],
        "code": {
          "coding": [
            {
              "code": "2028-9",
              "system": "http://loinc.org",
              "display": "Carbon dioxide, total [Moles/volume] in Serum or Plasma"
            }
          ],
          "text": "Carbon dioxide, total [Moles/volume] in Serum or Plasma"
        },
        "valueQuantity": {
          "system": "http://unitsofmeasure.org",
          "value": 20.8,
          "unit": "mmol/L",
          "code": "mmol/L"
        },
        "referenceRange": [
          {
            "low": {
              "value": 22,
              "code": "mmol/L",
              "system": "http://unitsofmeasure.org"
            }
          },
          {
            "high": {
              "value": 32,
              "code": "mmol/L",
              "system": "http://unitsofmeasure.org"
            }
          }
        ],
        "interpretation": [
          {
            "coding": [
              {
                "code": "L",
                "system": "http://terminology.hl7.org/CodeSystem/v3-ObservationInterpretation",
                "display": "Low"
              }
            ]
          }
        ],
        "text": {
          "status": "generated",
          "div": "<div xmlns=\"http://www.w3.org/1999/xhtml\"><table class=\"hl7__eu__lab__report\"><tr><th>Test</th><th>14-Sep-2023</th><th>Reference&#xA0;Range</th><th>Unit</th></tr><tr><td>Carbon dioxide, total [Moles/volume] in Serum or Plasma</td><td>20.8</td><td>22 - 32</td><td>L</td><td>mmol/L</td></tr></table></div>"
        },
        "status": "final",
        "subject": {
          "reference": "urn:uuid:e9c76f2c-74df-4de5-8bd4-5098d95f1ca3",
          "display": "Molly Jenkins"
        },
        "effectiveDateTime": "2023-09-14T14:42:11Z",
        "specimen": {
          "reference": "urn:uuid:4ea50b6b-7f3f-41c3-8cf4-19a5504fe14a"
        }
      }
    },
    {
      "fullUrl": "urn:uuid:639854b2-723c-46fe-addf-0378c4b41c12",
      "resource": {
        "resourceType": "Observation",
        "id": "639854b2-723c-46fe-addf-0378c4b41c12",
        "meta": {
          "profile": [
            "http://hl7.eu/fhir/laboratory/StructureDefinition/Observation-resultslab-eu-lab"
          ]
        },
        "performer": [
          {
            "display": "The Central European Lab"
          }
        ],
        "category": [
          {
            "coding": [
              {
                "system": "http://terminology.hl7.org/CodeSystem/observation-category",
                "code": "laboratory"
              }
            ]
          }
        ],
        "code": {
          "coding": [
            {
              "code": "5767-9",
              "system": "http://loinc.org",
              "display": "Appearance of Urine"
            }
          ],
          "text": "Appearance of Urine"
        },
        "text": {
          "status": "generated",
          "div": "<div xmlns=\"http://www.w3.org/1999/xhtml\"><table class=\"hl7__eu__lab__report\"><tr><th>Test</th><th>14-Sep-2023</th><th>Reference&#xA0;Range</th><th>Unit</th></tr><tr><td>Appearance of Urine</td></tr></table></div>"
        },
        "status": "final",
        "subject": {
          "reference": "urn:uuid:e9c76f2c-74df-4de5-8bd4-5098d95f1ca3",
          "display": "Molly Jenkins"
        },
        "effectiveDateTime": "2023-09-14T14:42:11Z",
        "specimen": {
          "reference": "urn:uuid:8297418e-5726-4c7c-9177-17fc796ecfd8"
        }
      }
    },
    {
      "fullUrl": "urn:uuid:e78c02d8-34ca-4553-bc93-8cad2a314c66",
      "resource": {
        "resourceType": "Observation",
        "id": "e78c02d8-34ca-4553-bc93-8cad2a314c66",
        "meta": {
          "profile": [
            "http://hl7.eu/fhir/laboratory/StructureDefinition/Observation-resultslab-eu-lab"
          ]
        },
        "performer": [
          {
            "display": "The Central European Lab"
          }
        ],
        "category": [
          {
            "coding": [
              {
                "system": "http://terminology.hl7.org/CodeSystem/observation-category",
                "code": "laboratory"
              }
            ]
          }
        ],
        "code": {
          "coding": [
            {
              "code": "34533-0",
              "system": "http://loinc.org",
              "display": "Odor of Urine"
            }
          ],
          "text": "Odor of Urine"
        },
        "text": {
          "status": "generated",
          "div": "<div xmlns=\"http://www.w3.org/1999/xhtml\"><table class=\"hl7__eu__lab__report\"><tr><th>Test</th><th>14-Sep-2023</th><th>Reference&#xA0;Range</th><th>Unit</th></tr><tr><td>Odor of Urine</td></tr></table></div>"
        },
        "status": "final",
        "subject": {
          "reference": "urn:uuid:e9c76f2c-74df-4de5-8bd4-5098d95f1ca3",
          "display": "Molly Jenkins"
        },
        "effectiveDateTime": "2023-09-14T14:42:11Z",
        "specimen": {
          "reference": "urn:uuid:8297418e-5726-4c7c-9177-17fc796ecfd8"
        }
      }
    },
    {
      "fullUrl": "urn:uuid:ec63b579-eb65-4cc5-afa4-127e9b92c77c",
      "resource": {
        "resourceType": "Observation",
        "id": "ec63b579-eb65-4cc5-afa4-127e9b92c77c",
        "meta": {
          "profile": [
            "http://hl7.eu/fhir/laboratory/StructureDefinition/Observation-resultslab-eu-lab"
          ]
        },
        "performer": [
          {
            "display": "The Central European Lab"
          }
        ],
        "category": [
          {
            "coding": [
              {
                "system": "http://terminology.hl7.org/CodeSystem/observation-category",
                "code": "laboratory"
              }
            ]
          }
        ],
        "code": {
          "coding": [
            {
              "code": "32167-9",
              "system": "http://loinc.org",
              "display": "Clarity of Urine"
            }
          ],
          "text": "Clarity of Urine"
        },
        "text": {
          "status": "generated",
          "div": "<div xmlns=\"http://www.w3.org/1999/xhtml\"><table class=\"hl7__eu__lab__report\"><tr><th>Test</th><th>14-Sep-2023</th><th>Reference&#xA0;Range</th><th>Unit</th></tr><tr><td>Clarity of Urine</td></tr></table></div>"
        },
        "status": "final",
        "subject": {
          "reference": "urn:uuid:e9c76f2c-74df-4de5-8bd4-5098d95f1ca3",
          "display": "Molly Jenkins"
        },
        "effectiveDateTime": "2023-09-14T14:42:11Z",
        "specimen": {
          "reference": "urn:uuid:8297418e-5726-4c7c-9177-17fc796ecfd8"
        }
      }
    },
    {
      "fullUrl": "urn:uuid:6996a2f1-17c5-411a-841c-c29e0958e16e",
      "resource": {
        "resourceType": "Observation",
        "id": "6996a2f1-17c5-411a-841c-c29e0958e16e",
        "meta": {
          "profile": [
            "http://hl7.eu/fhir/laboratory/StructureDefinition/Observation-resultslab-eu-lab"
          ]
        },
        "performer": [
          {
            "display": "The Central European Lab"
          }
        ],
        "category": [
          {
            "coding": [
              {
                "system": "http://terminology.hl7.org/CodeSystem/observation-category",
                "code": "laboratory"
              }
            ]
          }
        ],
        "code": {
          "coding": [
            {
              "code": "5778-6",
              "system": "http://loinc.org",
              "display": "Color of Urine"
            }
          ],
          "text": "Color of Urine"
        },
        "text": {
          "status": "generated",
          "div": "<div xmlns=\"http://www.w3.org/1999/xhtml\"><table class=\"hl7__eu__lab__report\"><tr><th>Test</th><th>14-Sep-2023</th><th>Reference&#xA0;Range</th><th>Unit</th></tr><tr><td>Color of Urine</td></tr></table></div>"
        },
        "status": "final",
        "subject": {
          "reference": "urn:uuid:e9c76f2c-74df-4de5-8bd4-5098d95f1ca3",
          "display": "Molly Jenkins"
        },
        "effectiveDateTime": "2023-09-14T14:42:11Z",
        "specimen": {
          "reference": "urn:uuid:8297418e-5726-4c7c-9177-17fc796ecfd8"
        }
      }
    },
    {
      "fullUrl": "urn:uuid:d446ab02-cdfd-4e38-96c3-80b4f71a44e0",
      "resource": {
        "resourceType": "Observation",
        "id": "d446ab02-cdfd-4e38-96c3-80b4f71a44e0",
        "meta": {
          "profile": [
            "http://hl7.eu/fhir/laboratory/StructureDefinition/Observation-resultslab-eu-lab"
          ]
        },
        "performer": [
          {
            "display": "The Central European Lab"
          }
        ],
        "category": [
          {
            "coding": [
              {
                "system": "http://terminology.hl7.org/CodeSystem/observation-category",
                "code": "laboratory"
              }
            ]
          }
        ],
        "code": {
          "coding": [
            {
              "code": "5792-7",
              "system": "http://loinc.org",
              "display": "Glucose [Mass/volume] in Urine by Test strip"
            }
          ],
          "text": "Glucose [Mass/volume] in Urine by Test strip"
        },
        "valueQuantity": {
          "system": "http://unitsofmeasure.org",
          "value": 1.5,
          "unit": "mg/dL",
          "code": "mg/dL"
        },
        "referenceRange": [
          {
            "low": {
              "value": 0,
              "code": "mg/dL",
              "system": "http://unitsofmeasure.org"
            }
          },
          {
            "high": {
              "value": 0,
              "code": "mg/dL",
              "system": "http://unitsofmeasure.org"
            }
          }
        ],
        "interpretation": [
          {
            "coding": [
              {
                "code": "H",
                "system": "http://terminology.hl7.org/CodeSystem/v3-ObservationInterpretation",
                "display": "High"
              }
            ]
          }
        ],
        "text": {
          "status": "generated",
          "div": "<div xmlns=\"http://www.w3.org/1999/xhtml\"><table class=\"hl7__eu__lab__report\"><tr><th>Test</th><th>14-Sep-2023</th><th>Reference&#xA0;Range</th><th>Unit</th></tr><tr><td>Glucose [Mass/volume] in Urine by Test strip</td><td>1.5</td><td>0 - 0</td><td>H</td><td>mg/dL</td></tr></table></div>"
        },
        "status": "final",
        "subject": {
          "reference": "urn:uuid:e9c76f2c-74df-4de5-8bd4-5098d95f1ca3",
          "display": "Molly Jenkins"
        },
        "effectiveDateTime": "2023-09-14T14:42:11Z",
        "specimen": {
          "reference": "urn:uuid:8297418e-5726-4c7c-9177-17fc796ecfd8"
        }
      }
    },
    {
      "fullUrl": "urn:uuid:79a089da-ee9a-42df-bfa3-d8aa12f95dbc",
      "resource": {
        "resourceType": "Observation",
        "id": "79a089da-ee9a-42df-bfa3-d8aa12f95dbc",
        "meta": {
          "profile": [
            "http://hl7.eu/fhir/laboratory/StructureDefinition/Observation-resultslab-eu-lab"
          ]
        },
        "performer": [
          {
            "display": "The Central European Lab"
          }
        ],
        "category": [
          {
            "coding": [
              {
                "system": "http://terminology.hl7.org/CodeSystem/observation-category",
                "code": "laboratory"
              }
            ]
          }
        ],
        "code": {
          "coding": [
            {
              "code": "25428-4",
              "system": "http://loinc.org",
              "display": "Glucose [Presence] in Urine by Test strip"
            }
          ],
          "text": "Glucose [Presence] in Urine by Test strip"
        },
        "text": {
          "status": "generated",
          "div": "<div xmlns=\"http://www.w3.org/1999/xhtml\"><table class=\"hl7__eu__lab__report\"><tr><th>Test</th><th>14-Sep-2023</th><th>Reference&#xA0;Range</th><th>Unit</th></tr><tr><td>Glucose [Presence] in Urine by Test strip</td></tr></table></div>"
        },
        "status": "final",
        "subject": {
          "reference": "urn:uuid:e9c76f2c-74df-4de5-8bd4-5098d95f1ca3",
          "display": "Molly Jenkins"
        },
        "effectiveDateTime": "2023-09-14T14:42:11Z",
        "specimen": {
          "reference": "urn:uuid:8297418e-5726-4c7c-9177-17fc796ecfd8"
        }
      }
    },
    {
      "fullUrl": "urn:uuid:3e24329f-37c8-477b-a804-8ef0c27af669",
      "resource": {
        "resourceType": "Observation",
        "id": "3e24329f-37c8-477b-a804-8ef0c27af669",
        "meta": {
          "profile": [
            "http://hl7.eu/fhir/laboratory/StructureDefinition/Observation-resultslab-eu-lab"
          ]
        },
        "performer": [
          {
            "display": "The Central European Lab"
          }
        ],
        "category": [
          {
            "coding": [
              {
                "system": "http://terminology.hl7.org/CodeSystem/observation-category",
                "code": "laboratory"
              }
            ]
          }
        ],
        "code": {
          "coding": [
            {
              "code": "20505-4",
              "system": "http://loinc.org",
              "display": "Bilirubin.total [Mass/volume] in Urine by Test strip"
            }
          ],
          "text": "Bilirubin.total [Mass/volume] in Urine by Test strip"
        },
        "valueQuantity": {
          "system": "http://unitsofmeasure.org",
          "value": 0.4,
          "unit": "mg/dL",
          "code": "mg/dL"
        },
        "referenceRange": [
          {
            "low": {
              "value": 0,
              "code": "mg/dL",
              "system": "http://unitsofmeasure.org"
            }
          },
          {
            "high": {
              "value": 1.6,
              "code": "mg/dL",
              "system": "http://unitsofmeasure.org"
            }
          }
        ],
        "text": {
          "status": "generated",
          "div": "<div xmlns=\"http://www.w3.org/1999/xhtml\"><table class=\"hl7__eu__lab__report\"><tr><th>Test</th><th>14-Sep-2023</th><th>Reference&#xA0;Range</th><th>Unit</th></tr><tr><td>Bilirubin.total [Mass/volume] in Urine by Test strip</td><td>0.4</td><td>0 - 1.6</td><td></td><td>mg/dL</td></tr></table></div>"
        },
        "status": "final",
        "subject": {
          "reference": "urn:uuid:e9c76f2c-74df-4de5-8bd4-5098d95f1ca3",
          "display": "Molly Jenkins"
        },
        "effectiveDateTime": "2023-09-14T14:42:11Z",
        "specimen": {
          "reference": "urn:uuid:8297418e-5726-4c7c-9177-17fc796ecfd8"
        }
      }
    },
    {
      "fullUrl": "urn:uuid:89aa5377-ce72-4617-b090-bd157b90ed49",
      "resource": {
        "resourceType": "Observation",
        "id": "89aa5377-ce72-4617-b090-bd157b90ed49",
        "meta": {
          "profile": [
            "http://hl7.eu/fhir/laboratory/StructureDefinition/Observation-resultslab-eu-lab"
          ]
        },
        "performer": [
          {
            "display": "The Central European Lab"
          }
        ],
        "category": [
          {
            "coding": [
              {
                "system": "http://terminology.hl7.org/CodeSystem/observation-category",
                "code": "laboratory"
              }
            ]
          }
        ],
        "code": {
          "coding": [
            {
              "code": "5770-3",
              "system": "http://loinc.org",
              "display": "Bilirubin.total [Presence] in Urine by Test strip"
            }
          ],
          "text": "Bilirubin.total [Presence] in Urine by Test strip"
        },
        "text": {
          "status": "generated",
          "div": "<div xmlns=\"http://www.w3.org/1999/xhtml\"><table class=\"hl7__eu__lab__report\"><tr><th>Test</th><th>14-Sep-2023</th><th>Reference&#xA0;Range</th><th>Unit</th></tr><tr><td>Bilirubin.total [Presence] in Urine by Test strip</td></tr></table></div>"
        },
        "status": "final",
        "subject": {
          "reference": "urn:uuid:e9c76f2c-74df-4de5-8bd4-5098d95f1ca3",
          "display": "Molly Jenkins"
        },
        "effectiveDateTime": "2023-09-14T14:42:11Z",
        "specimen": {
          "reference": "urn:uuid:8297418e-5726-4c7c-9177-17fc796ecfd8"
        }
      }
    },
    {
      "fullUrl": "urn:uuid:28fbb57f-a22f-4dae-875f-3e1585a41d75",
      "resource": {
        "resourceType": "Observation",
        "id": "28fbb57f-a22f-4dae-875f-3e1585a41d75",
        "meta": {
          "profile": [
            "http://hl7.eu/fhir/laboratory/StructureDefinition/Observation-resultslab-eu-lab"
          ]
        },
        "performer": [
          {
            "display": "The Central European Lab"
          }
        ],
        "category": [
          {
            "coding": [
              {
                "system": "http://terminology.hl7.org/CodeSystem/observation-category",
                "code": "laboratory"
              }
            ]
          }
        ],
        "code": {
          "coding": [
            {
              "code": "5797-6",
              "system": "http://loinc.org",
              "display": "Ketones [Mass/volume] in Urine by Test strip"
            }
          ],
          "text": "Ketones [Mass/volume] in Urine by Test strip"
        },
        "valueQuantity": {
          "system": "http://unitsofmeasure.org",
          "value": 11.7,
          "unit": "mg/dL",
          "code": "mg/dL"
        },
        "referenceRange": [
          {
            "low": {
              "value": 0,
              "code": "mg/dL",
              "system": "http://unitsofmeasure.org"
            }
          },
          {
            "high": {
              "value": 0.5,
              "code": "mg/dL",
              "system": "http://unitsofmeasure.org"
            }
          }
        ],
        "interpretation": [
          {
            "coding": [
              {
                "code": "H",
                "system": "http://terminology.hl7.org/CodeSystem/v3-ObservationInterpretation",
                "display": "High"
              }
            ]
          }
        ],
        "text": {
          "status": "generated",
          "div": "<div xmlns=\"http://www.w3.org/1999/xhtml\"><table class=\"hl7__eu__lab__report\"><tr><th>Test</th><th>14-Sep-2023</th><th>Reference&#xA0;Range</th><th>Unit</th></tr><tr><td>Ketones [Mass/volume] in Urine by Test strip</td><td>11.7</td><td>0 - 0.5</td><td>H</td><td>mg/dL</td></tr></table></div>"
        },
        "status": "final",
        "subject": {
          "reference": "urn:uuid:e9c76f2c-74df-4de5-8bd4-5098d95f1ca3",
          "display": "Molly Jenkins"
        },
        "effectiveDateTime": "2023-09-14T14:42:11Z",
        "specimen": {
          "reference": "urn:uuid:8297418e-5726-4c7c-9177-17fc796ecfd8"
        }
      }
    },
    {
      "fullUrl": "urn:uuid:8514b8dc-d9a1-41ff-85c6-c33558467709",
      "resource": {
        "resourceType": "Observation",
        "id": "8514b8dc-d9a1-41ff-85c6-c33558467709",
        "meta": {
          "profile": [
            "http://hl7.eu/fhir/laboratory/StructureDefinition/Observation-resultslab-eu-lab"
          ]
        },
        "performer": [
          {
            "display": "The Central European Lab"
          }
        ],
        "category": [
          {
            "coding": [
              {
                "system": "http://terminology.hl7.org/CodeSystem/observation-category",
                "code": "laboratory"
              }
            ]
          }
        ],
        "code": {
          "coding": [
            {
              "code": "2514-8",
              "system": "http://loinc.org",
              "display": "Ketones [Presence] in Urine by Test strip"
            }
          ],
          "text": "Ketones [Presence] in Urine by Test strip"
        },
        "text": {
          "status": "generated",
          "div": "<div xmlns=\"http://www.w3.org/1999/xhtml\"><table class=\"hl7__eu__lab__report\"><tr><th>Test</th><th>14-Sep-2023</th><th>Reference&#xA0;Range</th><th>Unit</th></tr><tr><td>Ketones [Presence] in Urine by Test strip</td></tr></table></div>"
        },
        "status": "final",
        "subject": {
          "reference": "urn:uuid:e9c76f2c-74df-4de5-8bd4-5098d95f1ca3",
          "display": "Molly Jenkins"
        },
        "effectiveDateTime": "2023-09-14T14:42:11Z",
        "specimen": {
          "reference": "urn:uuid:8297418e-5726-4c7c-9177-17fc796ecfd8"
        }
      }
    },
    {
      "fullUrl": "urn:uuid:b1b4828a-093d-4142-847d-9d14b9717a8a",
      "resource": {
        "resourceType": "Observation",
        "id": "b1b4828a-093d-4142-847d-9d14b9717a8a",
        "meta": {
          "profile": [
            "http://hl7.eu/fhir/laboratory/StructureDefinition/Observation-resultslab-eu-lab"
          ]
        },
        "performer": [
          {
            "display": "The Central European Lab"
          }
        ],
        "category": [
          {
            "coding": [
              {
                "system": "http://terminology.hl7.org/CodeSystem/observation-category",
                "code": "laboratory"
              }
            ]
          }
        ],
        "code": {
          "coding": [
            {
              "code": "5811-5",
              "system": "http://loinc.org",
              "display": "Specific gravity of Urine by Test strip"
            }
          ],
          "text": "Specific gravity of Urine by Test strip"
        },
        "valueQuantity": {
          "system": "http://unitsofmeasure.org",
          "value": 1,
          "unit": "{nominal}",
          "code": "{nominal}"
        },
        "referenceRange": [
          {
            "low": {
              "value": 1.005,
              "code": "g/mL",
              "system": "http://unitsofmeasure.org"
            }
          },
          {
            "high": {
              "value": 1.03,
              "code": "g/mL",
              "system": "http://unitsofmeasure.org"
            }
          }
        ],
        "interpretation": [
          {
            "coding": [
              {
                "code": "L",
                "system": "http://terminology.hl7.org/CodeSystem/v3-ObservationInterpretation",
                "display": "Low"
              }
            ]
          }
        ],
        "text": {
          "status": "generated",
          "div": "<div xmlns=\"http://www.w3.org/1999/xhtml\"><table class=\"hl7__eu__lab__report\"><tr><th>Test</th><th>14-Sep-2023</th><th>Reference&#xA0;Range</th><th>Unit</th></tr><tr><td>Specific gravity of Urine by Test strip</td><td>1.0</td><td>1.005 - 1.03</td><td>L</td><td>{nominal}</td></tr></table></div>"
        },
        "status": "final",
        "subject": {
          "reference": "urn:uuid:e9c76f2c-74df-4de5-8bd4-5098d95f1ca3",
          "display": "Molly Jenkins"
        },
        "effectiveDateTime": "2023-09-14T14:42:11Z",
        "specimen": {
          "reference": "urn:uuid:8297418e-5726-4c7c-9177-17fc796ecfd8"
        }
      }
    },
    {
      "fullUrl": "urn:uuid:9120cb02-f47a-4549-9a73-f49165d1c41d",
      "resource": {
        "resourceType": "Observation",
        "id": "9120cb02-f47a-4549-9a73-f49165d1c41d",
        "meta": {
          "profile": [
            "http://hl7.eu/fhir/laboratory/StructureDefinition/Observation-resultslab-eu-lab"
          ]
        },
        "performer": [
          {
            "display": "The Central European Lab"
          }
        ],
        "category": [
          {
            "coding": [
              {
                "system": "http://terminology.hl7.org/CodeSystem/observation-category",
                "code": "laboratory"
              }
            ]
          }
        ],
        "code": {
          "coding": [
            {
              "code": "5803-2",
              "system": "http://loinc.org",
              "display": "pH of Urine by Test strip"
            }
          ],
          "text": "pH of Urine by Test strip"
        },
        "valueQuantity": {
          "system": "http://unitsofmeasure.org",
          "value": 6.8,
          "unit": "pH",
          "code": "pH"
        },
        "referenceRange": [
          {
            "low": {
              "value": 4.5,
              "code": "pH",
              "system": "http://unitsofmeasure.org"
            }
          },
          {
            "high": {
              "value": 7.5,
              "code": "pH",
              "system": "http://unitsofmeasure.org"
            }
          }
        ],
        "text": {
          "status": "generated",
          "div": "<div xmlns=\"http://www.w3.org/1999/xhtml\"><table class=\"hl7__eu__lab__report\"><tr><th>Test</th><th>14-Sep-2023</th><th>Reference&#xA0;Range</th><th>Unit</th></tr><tr><td>pH of Urine by Test strip</td><td>6.8</td><td>4.5 - 7.5</td><td></td><td>pH</td></tr></table></div>"
        },
        "status": "final",
        "subject": {
          "reference": "urn:uuid:e9c76f2c-74df-4de5-8bd4-5098d95f1ca3",
          "display": "Molly Jenkins"
        },
        "effectiveDateTime": "2023-09-14T14:42:11Z",
        "specimen": {
          "reference": "urn:uuid:8297418e-5726-4c7c-9177-17fc796ecfd8"
        }
      }
    },
    {
      "fullUrl": "urn:uuid:4701cb23-18b1-4263-9800-a01b5bb6cefa",
      "resource": {
        "resourceType": "Observation",
        "id": "4701cb23-18b1-4263-9800-a01b5bb6cefa",
        "meta": {
          "profile": [
            "http://hl7.eu/fhir/laboratory/StructureDefinition/Observation-resultslab-eu-lab"
          ]
        },
        "performer": [
          {
            "display": "The Central European Lab"
          }
        ],
        "category": [
          {
            "coding": [
              {
                "system": "http://terminology.hl7.org/CodeSystem/observation-category",
                "code": "laboratory"
              }
            ]
          }
        ],
        "code": {
          "coding": [
            {
              "code": "5804-0",
              "system": "http://loinc.org",
              "display": "Protein [Mass/volume] in Urine by Test strip"
            }
          ],
          "text": "Protein [Mass/volume] in Urine by Test strip"
        },
        "valueQuantity": {
          "system": "http://unitsofmeasure.org",
          "value": 248.2,
          "unit": "mg/dL",
          "code": "mg/dL"
        },
        "referenceRange": [
          {
            "low": {
              "value": 0,
              "code": "mg/dL",
              "system": "http://unitsofmeasure.org"
            }
          },
          {
            "high": {
              "value": 15,
              "code": "mg/dL",
              "system": "http://unitsofmeasure.org"
            }
          }
        ],
        "interpretation": [
          {
            "coding": [
              {
                "code": "H",
                "system": "http://terminology.hl7.org/CodeSystem/v3-ObservationInterpretation",
                "display": "High"
              }
            ]
          }
        ],
        "text": {
          "status": "generated",
          "div": "<div xmlns=\"http://www.w3.org/1999/xhtml\"><table class=\"hl7__eu__lab__report\"><tr><th>Test</th><th>14-Sep-2023</th><th>Reference&#xA0;Range</th><th>Unit</th></tr><tr><td>Protein [Mass/volume] in Urine by Test strip</td><td>248.2</td><td>0 - 15</td><td>H</td><td>mg/dL</td></tr></table></div>"
        },
        "status": "final",
        "subject": {
          "reference": "urn:uuid:e9c76f2c-74df-4de5-8bd4-5098d95f1ca3",
          "display": "Molly Jenkins"
        },
        "effectiveDateTime": "2023-09-14T14:42:11Z",
        "specimen": {
          "reference": "urn:uuid:8297418e-5726-4c7c-9177-17fc796ecfd8"
        }
      }
    },
    {
      "fullUrl": "urn:uuid:771e0a72-ad04-4aff-bba6-56ec59d8e324",
      "resource": {
        "resourceType": "Observation",
        "id": "771e0a72-ad04-4aff-bba6-56ec59d8e324",
        "meta": {
          "profile": [
            "http://hl7.eu/fhir/laboratory/StructureDefinition/Observation-resultslab-eu-lab"
          ]
        },
        "performer": [
          {
            "display": "The Central European Lab"
          }
        ],
        "category": [
          {
            "coding": [
              {
                "system": "http://terminology.hl7.org/CodeSystem/observation-category",
                "code": "laboratory"
              }
            ]
          }
        ],
        "code": {
          "coding": [
            {
              "code": "20454-5",
              "system": "http://loinc.org",
              "display": "Protein [Presence] in Urine by Test strip"
            }
          ],
          "text": "Protein [Presence] in Urine by Test strip"
        },
        "text": {
          "status": "generated",
          "div": "<div xmlns=\"http://www.w3.org/1999/xhtml\"><table class=\"hl7__eu__lab__report\"><tr><th>Test</th><th>14-Sep-2023</th><th>Reference&#xA0;Range</th><th>Unit</th></tr><tr><td>Protein [Presence] in Urine by Test strip</td></tr></table></div>"
        },
        "status": "final",
        "subject": {
          "reference": "urn:uuid:e9c76f2c-74df-4de5-8bd4-5098d95f1ca3",
          "display": "Molly Jenkins"
        },
        "effectiveDateTime": "2023-09-14T14:42:11Z",
        "specimen": {
          "reference": "urn:uuid:8297418e-5726-4c7c-9177-17fc796ecfd8"
        }
      }
    },
    {
      "fullUrl": "urn:uuid:367df85f-e941-4f06-b641-8e407739a167",
      "resource": {
        "resourceType": "Observation",
        "id": "367df85f-e941-4f06-b641-8e407739a167",
        "meta": {
          "profile": [
            "http://hl7.eu/fhir/laboratory/StructureDefinition/Observation-resultslab-eu-lab"
          ]
        },
        "performer": [
          {
            "display": "The Central European Lab"
          }
        ],
        "category": [
          {
            "coding": [
              {
                "system": "http://terminology.hl7.org/CodeSystem/observation-category",
                "code": "laboratory"
              }
            ]
          }
        ],
        "code": {
          "coding": [
            {
              "code": "5802-4",
              "system": "http://loinc.org",
              "display": "Nitrite [Presence] in Urine by Test strip"
            }
          ],
          "text": "Nitrite [Presence] in Urine by Test strip"
        },
        "text": {
          "status": "generated",
          "div": "<div xmlns=\"http://www.w3.org/1999/xhtml\"><table class=\"hl7__eu__lab__report\"><tr><th>Test</th><th>14-Sep-2023</th><th>Reference&#xA0;Range</th><th>Unit</th></tr><tr><td>Nitrite [Presence] in Urine by Test strip</td></tr></table></div>"
        },
        "status": "final",
        "subject": {
          "reference": "urn:uuid:e9c76f2c-74df-4de5-8bd4-5098d95f1ca3",
          "display": "Molly Jenkins"
        },
        "effectiveDateTime": "2023-09-14T14:42:11Z",
        "specimen": {
          "reference": "urn:uuid:8297418e-5726-4c7c-9177-17fc796ecfd8"
        }
      }
    },
    {
      "fullUrl": "urn:uuid:3b159f0c-f24d-494c-929e-4ca7d85cdd48",
      "resource": {
        "resourceType": "Observation",
        "id": "3b159f0c-f24d-494c-929e-4ca7d85cdd48",
        "meta": {
          "profile": [
            "http://hl7.eu/fhir/laboratory/StructureDefinition/Observation-resultslab-eu-lab"
          ]
        },
        "performer": [
          {
            "display": "The Central European Lab"
          }
        ],
        "category": [
          {
            "coding": [
              {
                "system": "http://terminology.hl7.org/CodeSystem/observation-category",
                "code": "laboratory"
              }
            ]
          }
        ],
        "code": {
          "coding": [
            {
              "code": "5794-3",
              "system": "http://loinc.org",
              "display": "Hemoglobin [Presence] in Urine by Test strip"
            }
          ],
          "text": "Hemoglobin [Presence] in Urine by Test strip"
        },
        "text": {
          "status": "generated",
          "div": "<div xmlns=\"http://www.w3.org/1999/xhtml\"><table class=\"hl7__eu__lab__report\"><tr><th>Test</th><th>14-Sep-2023</th><th>Reference&#xA0;Range</th><th>Unit</th></tr><tr><td>Hemoglobin [Presence] in Urine by Test strip</td></tr></table></div>"
        },
        "status": "final",
        "subject": {
          "reference": "urn:uuid:e9c76f2c-74df-4de5-8bd4-5098d95f1ca3",
          "display": "Molly Jenkins"
        },
        "effectiveDateTime": "2023-09-14T14:42:11Z",
        "specimen": {
          "reference": "urn:uuid:8297418e-5726-4c7c-9177-17fc796ecfd8"
        }
      }
    },
    {
      "fullUrl": "urn:uuid:649b330f-5fc7-4747-8620-20bbe4db326f",
      "resource": {
        "resourceType": "Observation",
        "id": "649b330f-5fc7-4747-8620-20bbe4db326f",
        "meta": {
          "profile": [
            "http://hl7.eu/fhir/laboratory/StructureDefinition/Observation-resultslab-eu-lab"
          ]
        },
        "performer": [
          {
            "display": "The Central European Lab"
          }
        ],
        "category": [
          {
            "coding": [
              {
                "system": "http://terminology.hl7.org/CodeSystem/observation-category",
                "code": "laboratory"
              }
            ]
          }
        ],
        "code": {
          "coding": [
            {
              "code": "5799-2",
              "system": "http://loinc.org",
              "display": "Leukocyte esterase [Presence] in Urine by Test strip"
            }
          ],
          "text": "Leukocyte esterase [Presence] in Urine by Test strip"
        },
        "text": {
          "status": "generated",
          "div": "<div xmlns=\"http://www.w3.org/1999/xhtml\"><table class=\"hl7__eu__lab__report\"><tr><th>Test</th><th>14-Sep-2023</th><th>Reference&#xA0;Range</th><th>Unit</th></tr><tr><td>Leukocyte esterase [Presence] in Urine by Test strip</td></tr></table></div>"
        },
        "status": "final",
        "subject": {
          "reference": "urn:uuid:e9c76f2c-74df-4de5-8bd4-5098d95f1ca3",
          "display": "Molly Jenkins"
        },
        "effectiveDateTime": "2023-09-14T14:42:11Z",
        "specimen": {
          "reference": "urn:uuid:8297418e-5726-4c7c-9177-17fc796ecfd8"
        }
      }
    },
    {
      "fullUrl": "urn:uuid:21fba983-3dc2-4bdf-855f-d00675fcf83d",
      "resource": {
        "resourceType": "Observation",
        "id": "21fba983-3dc2-4bdf-855f-d00675fcf83d",
        "meta": {
          "profile": [
            "http://hl7.eu/fhir/laboratory/StructureDefinition/Observation-resultslab-eu-lab"
          ]
        },
        "performer": [
          {
            "display": "The Central European Lab"
          }
        ],
        "category": [
          {
            "coding": [
              {
                "system": "http://terminology.hl7.org/CodeSystem/observation-category",
                "code": "laboratory"
              }
            ]
          }
        ],
        "code": {
          "coding": [
            {
              "code": "4548-4",
              "system": "http://loinc.org",
              "display": "Hemoglobin A1c/Hemoglobin.total in Blood"
            }
          ],
          "text": "Hemoglobin A1c/Hemoglobin.total in Blood"
        },
        "valueQuantity": {
          "system": "http://unitsofmeasure.org",
          "value": 3.2,
          "unit": "%",
          "code": "%"
        },
        "referenceRange": [
          {
            "low": {
              "value": 4,
              "code": "%",
              "system": "http://unitsofmeasure.org"
            }
          },
          {
            "high": {
              "value": 6,
              "code": "%",
              "system": "http://unitsofmeasure.org"
            }
          }
        ],
        "interpretation": [
          {
            "coding": [
              {
                "code": "L",
                "system": "http://terminology.hl7.org/CodeSystem/v3-ObservationInterpretation",
                "display": "Low"
              }
            ]
          }
        ],
        "text": {
          "status": "generated",
          "div": "<div xmlns=\"http://www.w3.org/1999/xhtml\"><table class=\"hl7__eu__lab__report\"><tr><th>Test</th><th>14-Sep-2023</th><th>Reference&#xA0;Range</th><th>Unit</th></tr><tr><td>Hemoglobin A1c/Hemoglobin.total in Blood</td><td>3.2</td><td>4 - 6</td><td>L</td><td>%</td></tr></table></div>"
        },
        "status": "final",
        "subject": {
          "reference": "urn:uuid:e9c76f2c-74df-4de5-8bd4-5098d95f1ca3",
          "display": "Molly Jenkins"
        },
        "effectiveDateTime": "2023-09-14T14:42:11Z",
        "specimen": {
          "reference": "urn:uuid:3e483f91-e95b-432b-8e48-4d7a774bf18b"
        }
      }
    },
    {
      "fullUrl": "urn:uuid:3d552f7e-0adc-4dbd-816b-e2b9d0e6249b",
      "resource": {
        "resourceType": "Observation",
        "id": "3d552f7e-0adc-4dbd-816b-e2b9d0e6249b",
        "meta": {
          "profile": [
            "http://hl7.eu/fhir/laboratory/StructureDefinition/Observation-resultslab-eu-lab"
          ]
        },
        "performer": [
          {
            "display": "The Central European Lab"
          }
        ],
        "category": [
          {
            "coding": [
              {
                "system": "http://terminology.hl7.org/CodeSystem/observation-category",
                "code": "laboratory"
              }
            ]
          }
        ],
        "code": {
          "coding": [
            {
              "code": "2339-0",
              "system": "http://loinc.org",
              "display": "Glucose [Mass/volume] in Blood"
            }
          ],
          "text": "Glucose [Mass/volume] in Blood"
        },
        "valueQuantity": {
          "system": "http://unitsofmeasure.org",
          "value": 81.2,
          "unit": "mg/dL",
          "code": "mg/dL"
        },
        "referenceRange": [
          {
            "low": {
              "value": 70,
              "code": "mg/dL",
              "system": "http://unitsofmeasure.org"
            }
          },
          {
            "high": {
              "value": 100,
              "code": "mg/dL",
              "system": "http://unitsofmeasure.org"
            }
          }
        ],
        "text": {
          "status": "generated",
          "div": "<div xmlns=\"http://www.w3.org/1999/xhtml\"><table class=\"hl7__eu__lab__report\"><tr><th>Test</th><th>14-Sep-2023</th><th>Reference&#xA0;Range</th><th>Unit</th></tr><tr><td>Glucose [Mass/volume] in Blood</td><td>81.2</td><td>70 - 100</td><td></td><td>mg/dL</td></tr></table></div>"
        },
        "status": "final",
        "subject": {
          "reference": "urn:uuid:e9c76f2c-74df-4de5-8bd4-5098d95f1ca3",
          "display": "Molly Jenkins"
        },
        "effectiveDateTime": "2023-09-14T14:42:11Z",
        "specimen": {
          "reference": "urn:uuid:3e483f91-e95b-432b-8e48-4d7a774bf18b"
        }
      }
    },
    {
      "fullUrl": "urn:uuid:b7192412-10df-467e-b2a2-9051008af22e",
      "resource": {
        "resourceType": "Observation",
        "id": "b7192412-10df-467e-b2a2-9051008af22e",
        "meta": {
          "profile": [
            "http://hl7.eu/fhir/laboratory/StructureDefinition/Observation-resultslab-eu-lab"
          ]
        },
        "performer": [
          {
            "display": "The Central European Lab"
          }
        ],
        "category": [
          {
            "coding": [
              {
                "system": "http://terminology.hl7.org/CodeSystem/observation-category",
                "code": "laboratory"
              }
            ]
          }
        ],
        "code": {
          "coding": [
            {
              "code": "6299-2",
              "system": "http://loinc.org",
              "display": "Urea nitrogen [Mass/volume] in Blood"
            }
          ],
          "text": "Urea nitrogen [Mass/volume] in Blood"
        },
        "valueQuantity": {
          "system": "http://unitsofmeasure.org",
          "value": 14.6,
          "unit": "mg/dL",
          "code": "mg/dL"
        },
        "referenceRange": [
          {
            "low": {
              "value": 7,
              "code": "mg/dL",
              "system": "http://unitsofmeasure.org"
            }
          },
          {
            "high": {
              "value": 20,
              "code": "mg/dL",
              "system": "http://unitsofmeasure.org"
            }
          }
        ],
        "text": {
          "status": "generated",
          "div": "<div xmlns=\"http://www.w3.org/1999/xhtml\"><table class=\"hl7__eu__lab__report\"><tr><th>Test</th><th>14-Sep-2023</th><th>Reference&#xA0;Range</th><th>Unit</th></tr><tr><td>Urea nitrogen [Mass/volume] in Blood</td><td>14.6</td><td>7 - 20</td><td></td><td>mg/dL</td></tr></table></div>"
        },
        "status": "final",
        "subject": {
          "reference": "urn:uuid:e9c76f2c-74df-4de5-8bd4-5098d95f1ca3",
          "display": "Molly Jenkins"
        },
        "effectiveDateTime": "2023-09-14T14:42:11Z",
        "specimen": {
          "reference": "urn:uuid:3e483f91-e95b-432b-8e48-4d7a774bf18b"
        }
      }
    },
    {
      "fullUrl": "urn:uuid:7063d43d-c8ff-44af-9b64-f01a0cfca774",
      "resource": {
        "resourceType": "Observation",
        "id": "7063d43d-c8ff-44af-9b64-f01a0cfca774",
        "meta": {
          "profile": [
            "http://hl7.eu/fhir/laboratory/StructureDefinition/Observation-resultslab-eu-lab"
          ]
        },
        "performer": [
          {
            "display": "The Central European Lab"
          }
        ],
        "category": [
          {
            "coding": [
              {
                "system": "http://terminology.hl7.org/CodeSystem/observation-category",
                "code": "laboratory"
              }
            ]
          }
        ],
        "code": {
          "coding": [
            {
              "code": "38483-4",
              "system": "http://loinc.org",
              "display": "Creatinine [Mass/volume] in Blood"
            }
          ],
          "text": "Creatinine [Mass/volume] in Blood"
        },
        "valueQuantity": {
          "system": "http://unitsofmeasure.org",
          "value": 1.2,
          "unit": "mg/dL",
          "code": "mg/dL"
        },
        "referenceRange": [
          {
            "low": {
              "value": 0.6,
              "code": "mg/dL",
              "system": "http://unitsofmeasure.org"
            }
          },
          {
            "high": {
              "value": 1.3,
              "code": "mg/dL",
              "system": "http://unitsofmeasure.org"
            }
          }
        ],
        "text": {
          "status": "generated",
          "div": "<div xmlns=\"http://www.w3.org/1999/xhtml\"><table class=\"hl7__eu__lab__report\"><tr><th>Test</th><th>14-Sep-2023</th><th>Reference&#xA0;Range</th><th>Unit</th></tr><tr><td>Creatinine [Mass/volume] in Blood</td><td>1.2</td><td>0.6 - 1.3</td><td></td><td>mg/dL</td></tr></table></div>"
        },
        "status": "final",
        "subject": {
          "reference": "urn:uuid:e9c76f2c-74df-4de5-8bd4-5098d95f1ca3",
          "display": "Molly Jenkins"
        },
        "effectiveDateTime": "2023-09-14T14:42:11Z",
        "specimen": {
          "reference": "urn:uuid:3e483f91-e95b-432b-8e48-4d7a774bf18b"
        }
      }
    },
    {
      "fullUrl": "urn:uuid:f772eb19-e6b7-4aa5-a423-a9874c5cf205",
      "resource": {
        "resourceType": "Observation",
        "id": "f772eb19-e6b7-4aa5-a423-a9874c5cf205",
        "meta": {
          "profile": [
            "http://hl7.eu/fhir/laboratory/StructureDefinition/Observation-resultslab-eu-lab"
          ]
        },
        "performer": [
          {
            "display": "The Central European Lab"
          }
        ],
        "category": [
          {
            "coding": [
              {
                "system": "http://terminology.hl7.org/CodeSystem/observation-category",
                "code": "laboratory"
              }
            ]
          }
        ],
        "code": {
          "coding": [
            {
              "code": "49765-1",
              "system": "http://loinc.org",
              "display": "Calcium [Mass/volume] in Blood"
            }
          ],
          "text": "Calcium [Mass/volume] in Blood"
        },
        "valueQuantity": {
          "system": "http://unitsofmeasure.org",
          "value": 9.2,
          "unit": "mg/dL",
          "code": "mg/dL"
        },
        "referenceRange": [
          {
            "low": {
              "value": 8.6,
              "code": "mg/dL",
              "system": "http://unitsofmeasure.org"
            }
          },
          {
            "high": {
              "value": 10.4,
              "code": "mg/dL",
              "system": "http://unitsofmeasure.org"
            }
          }
        ],
        "text": {
          "status": "generated",
          "div": "<div xmlns=\"http://www.w3.org/1999/xhtml\"><table class=\"hl7__eu__lab__report\"><tr><th>Test</th><th>14-Sep-2023</th><th>Reference&#xA0;Range</th><th>Unit</th></tr><tr><td>Calcium [Mass/volume] in Blood</td><td>9.2</td><td>8.6 - 10.4</td><td></td><td>mg/dL</td></tr></table></div>"
        },
        "status": "final",
        "subject": {
          "reference": "urn:uuid:e9c76f2c-74df-4de5-8bd4-5098d95f1ca3",
          "display": "Molly Jenkins"
        },
        "effectiveDateTime": "2023-09-14T14:42:11Z",
        "specimen": {
          "reference": "urn:uuid:3e483f91-e95b-432b-8e48-4d7a774bf18b"
        }
      }
    },
    {
      "fullUrl": "urn:uuid:29ca09be-5147-4bf6-a2e3-1fc227152d63",
      "resource": {
        "resourceType": "Observation",
        "id": "29ca09be-5147-4bf6-a2e3-1fc227152d63",
        "meta": {
          "profile": [
            "http://hl7.eu/fhir/laboratory/StructureDefinition/Observation-resultslab-eu-lab"
          ]
        },
        "performer": [
          {
            "display": "The Central European Lab"
          }
        ],
        "category": [
          {
            "coding": [
              {
                "system": "http://terminology.hl7.org/CodeSystem/observation-category",
                "code": "laboratory"
              }
            ]
          }
        ],
        "code": {
          "coding": [
            {
              "code": "2947-0",
              "system": "http://loinc.org",
              "display": "Sodium [Moles/volume] in Blood"
            }
          ],
          "text": "Sodium [Moles/volume] in Blood"
        },
        "valueQuantity": {
          "system": "http://unitsofmeasure.org",
          "value": 138.1,
          "unit": "mmol/L",
          "code": "mmol/L"
        },
        "referenceRange": [
          {
            "low": {
              "value": 135,
              "code": "mmol/L",
              "system": "http://unitsofmeasure.org"
            }
          },
          {
            "high": {
              "value": 145,
              "code": "mmol/L",
              "system": "http://unitsofmeasure.org"
            }
          }
        ],
        "text": {
          "status": "generated",
          "div": "<div xmlns=\"http://www.w3.org/1999/xhtml\"><table class=\"hl7__eu__lab__report\"><tr><th>Test</th><th>14-Sep-2023</th><th>Reference&#xA0;Range</th><th>Unit</th></tr><tr><td>Sodium [Moles/volume] in Blood</td><td>138.1</td><td>135 - 145</td><td></td><td>mmol/L</td></tr></table></div>"
        },
        "status": "final",
        "subject": {
          "reference": "urn:uuid:e9c76f2c-74df-4de5-8bd4-5098d95f1ca3",
          "display": "Molly Jenkins"
        },
        "effectiveDateTime": "2023-09-14T14:42:11Z",
        "specimen": {
          "reference": "urn:uuid:3e483f91-e95b-432b-8e48-4d7a774bf18b"
        }
      }
    },
    {
      "fullUrl": "urn:uuid:b5c730f6-e4be-41cb-b490-9603249a9e91",
      "resource": {
        "resourceType": "Observation",
        "id": "b5c730f6-e4be-41cb-b490-9603249a9e91",
        "meta": {
          "profile": [
            "http://hl7.eu/fhir/laboratory/StructureDefinition/Observation-resultslab-eu-lab"
          ]
        },
        "performer": [
          {
            "display": "The Central European Lab"
          }
        ],
        "category": [
          {
            "coding": [
              {
                "system": "http://terminology.hl7.org/CodeSystem/observation-category",
                "code": "laboratory"
              }
            ]
          }
        ],
        "code": {
          "coding": [
            {
              "code": "6298-4",
              "system": "http://loinc.org",
              "display": "Potassium [Moles/volume] in Blood"
            }
          ],
          "text": "Potassium [Moles/volume] in Blood"
        },
        "valueQuantity": {
          "system": "http://unitsofmeasure.org",
          "value": 4.1,
          "unit": "mmol/L",
          "code": "mmol/L"
        },
        "referenceRange": [
          {
            "low": {
              "value": 3.5,
              "code": "mmol/L",
              "system": "http://unitsofmeasure.org"
            }
          },
          {
            "high": {
              "value": 5.1,
              "code": "mmol/L",
              "system": "http://unitsofmeasure.org"
            }
          }
        ],
        "text": {
          "status": "generated",
          "div": "<div xmlns=\"http://www.w3.org/1999/xhtml\"><table class=\"hl7__eu__lab__report\"><tr><th>Test</th><th>14-Sep-2023</th><th>Reference&#xA0;Range</th><th>Unit</th></tr><tr><td>Potassium [Moles/volume] in Blood</td><td>4.1</td><td>3.5 - 5.1</td><td></td><td>mmol/L</td></tr></table></div>"
        },
        "status": "final",
        "subject": {
          "reference": "urn:uuid:e9c76f2c-74df-4de5-8bd4-5098d95f1ca3",
          "display": "Molly Jenkins"
        },
        "effectiveDateTime": "2023-09-14T14:42:11Z",
        "specimen": {
          "reference": "urn:uuid:3e483f91-e95b-432b-8e48-4d7a774bf18b"
        }
      }
    },
    {
      "fullUrl": "urn:uuid:f912c471-98ff-45d3-8bad-d05c3c8b65b2",
      "resource": {
        "resourceType": "Observation",
        "id": "f912c471-98ff-45d3-8bad-d05c3c8b65b2",
        "meta": {
          "profile": [
            "http://hl7.eu/fhir/laboratory/StructureDefinition/Observation-resultslab-eu-lab"
          ]
        },
        "performer": [
          {
            "display": "The Central European Lab"
          }
        ],
        "category": [
          {
            "coding": [
              {
                "system": "http://terminology.hl7.org/CodeSystem/observation-category",
                "code": "laboratory"
              }
            ]
          }
        ],
        "code": {
          "coding": [
            {
              "code": "2069-3",
              "system": "http://loinc.org",
              "display": "Chloride [Moles/volume] in Blood"
            }
          ],
          "text": "Chloride [Moles/volume] in Blood"
        },
        "valueQuantity": {
          "system": "http://unitsofmeasure.org",
          "value": 104.8,
          "unit": "mmol/L",
          "code": "mmol/L"
        },
        "referenceRange": [
          {
            "low": {
              "value": 98,
              "code": "mmol/L",
              "system": "http://unitsofmeasure.org"
            }
          },
          {
            "high": {
              "value": 110,
              "code": "mmol/L",
              "system": "http://unitsofmeasure.org"
            }
          }
        ],
        "text": {
          "status": "generated",
          "div": "<div xmlns=\"http://www.w3.org/1999/xhtml\"><table class=\"hl7__eu__lab__report\"><tr><th>Test</th><th>14-Sep-2023</th><th>Reference&#xA0;Range</th><th>Unit</th></tr><tr><td>Chloride [Moles/volume] in Blood</td><td>104.8</td><td>98 - 110</td><td></td><td>mmol/L</td></tr></table></div>"
        },
        "status": "final",
        "subject": {
          "reference": "urn:uuid:e9c76f2c-74df-4de5-8bd4-5098d95f1ca3",
          "display": "Molly Jenkins"
        },
        "effectiveDateTime": "2023-09-14T14:42:11Z",
        "specimen": {
          "reference": "urn:uuid:3e483f91-e95b-432b-8e48-4d7a774bf18b"
        }
      }
    },
    {
      "fullUrl": "urn:uuid:923779e6-70cf-4657-adc1-e39c472db4dc",
      "resource": {
        "resourceType": "Observation",
        "id": "923779e6-70cf-4657-adc1-e39c472db4dc",
        "meta": {
          "profile": [
            "http://hl7.eu/fhir/laboratory/StructureDefinition/Observation-resultslab-eu-lab"
          ]
        },
        "performer": [
          {
            "display": "The Central European Lab"
          }
        ],
        "category": [
          {
            "coding": [
              {
                "system": "http://terminology.hl7.org/CodeSystem/observation-category",
                "code": "laboratory"
              }
            ]
          }
        ],
        "code": {
          "coding": [
            {
              "code": "20565-8",
              "system": "http://loinc.org",
              "display": "Carbon dioxide, total [Moles/volume] in Blood"
            }
          ],
          "text": "Carbon dioxide, total [Moles/volume] in Blood"
        },
        "valueQuantity": {
          "system": "http://unitsofmeasure.org",
          "value": 20.8,
          "unit": "mmol/L",
          "code": "mmol/L"
        },
        "referenceRange": [
          {
            "low": {
              "value": 22,
              "code": "mmol/L",
              "system": "http://unitsofmeasure.org"
            }
          },
          {
            "high": {
              "value": 29,
              "code": "mmol/L",
              "system": "http://unitsofmeasure.org"
            }
          }
        ],
        "interpretation": [
          {
            "coding": [
              {
                "code": "L",
                "system": "http://terminology.hl7.org/CodeSystem/v3-ObservationInterpretation",
                "display": "Low"
              }
            ]
          }
        ],
        "text": {
          "status": "generated",
          "div": "<div xmlns=\"http://www.w3.org/1999/xhtml\"><table class=\"hl7__eu__lab__report\"><tr><th>Test</th><th>14-Sep-2023</th><th>Reference&#xA0;Range</th><th>Unit</th></tr><tr><td>Carbon dioxide, total [Moles/volume] in Blood</td><td>20.8</td><td>22 - 29</td><td>L</td><td>mmol/L</td></tr></table></div>"
        },
        "status": "final",
        "subject": {
          "reference": "urn:uuid:e9c76f2c-74df-4de5-8bd4-5098d95f1ca3",
          "display": "Molly Jenkins"
        },
        "effectiveDateTime": "2023-09-14T14:42:11Z",
        "specimen": {
          "reference": "urn:uuid:3e483f91-e95b-432b-8e48-4d7a774bf18b"
        }
      }
    },
    {
      "fullUrl": "urn:uuid:e5288aa8-6d13-458f-ad74-c52a68ed6b4d",
      "resource": {
        "resourceType": "Device",
        "id": "e5288aa8-6d13-458f-ad74-c52a68ed6b4d",
        "deviceName": [
          {
            "name": "SYNDERAI Synthetic Generator",
            "type": "manufacturer-name"
          }
        ],
        "version": [
          {
            "value": "5.0"
          }
        ],
        "text": {
          "status": "generated",
          "div": "<div xmlns=\"http://www.w3.org/1999/xhtml\">SYNDERAI Synthetic Generator v5.0</div>"
        },
        "status": "active\"",
        "distinctIdentifier": "synderai-generator-50",
        "manufacturer": "SYNDERAI Project"
      }
    },
    {
      "fullUrl": "urn:uuid:28c8dd20-ee69-41ea-839e-f35bc65a18f4",
      "resource": {
        "resourceType": "Provenance",
        "id": "28c8dd20-ee69-41ea-839e-f35bc65a18f4",
        "target": [
          {
            "reference": "Patient/e9c76f2c-74df-4de5-8bd4-5098d95f1ca3"
          },
          {
            "reference": "Bundle/8dd89bd9-67c0-4261-bc6a-27cd69af4092"
          },
          {
            "reference": "Composition/99cca4ac-0595-4679-8bc3-204d8cc46771"
          },
          {
            "reference": "PractitionerRole/8f472d0d-354d-4a0d-b70e-52d2865891af"
          },
          {
            "reference": "Practitioner/f8fa77be-c030-440b-82cc-cb74d2670837"
          },
          {
            "reference": "PractitionerRole/70d9618a-4aa0-4ce9-beae-f041f4516329"
          },
          {
            "reference": "Organization/f51a14d6-5a68-47e1-93eb-72950cab1c05"
          }
        ],
        "activity": {
          "text": "Synthetic Example Data Generation"
        },
        "policy": [
          "https://synderai.net/synderai-synthetic-data-policy"
        ],
        "agent": [
          {
            "type": {
              "text": "author"
            },
            "who": {
              "reference": "Device/e5288aa8-6d13-458f-ad74-c52a68ed6b4d"
            }
          }
        ],
        "reason": [
          {
            "text": "Interoperability Testing and Training (non-clinical use)"
          }
        ],
        "text": {
          "status": "generated",
          "div": "<div xmlns=\"http://www.w3.org/1999/xhtml\">Provenance for SYNDERAI Synthetic Example Data Resource</div>"
        },
        "recorded": "2023-09-14T16:42:11Z"
      }
    },
    {
      "fullUrl": "urn:uuid:8f472d0d-354d-4a0d-b70e-52d2865891af",
      "resource": {
        "resourceType": "PractitionerRole",
        "id": "8f472d0d-354d-4a0d-b70e-52d2865891af",
        "meta": {
          "profile": [
            "http://hl7.eu/fhir/base/StructureDefinition/practitionerRole-eu"
          ]
        },
        "text": {
          "status": "generated",
          "div": "<div xmlns=\"http://www.w3.org/1999/xhtml\">Laboratory Role Id: 8f472d0d-354d-4a0d-b70e-52d2865891af</div>"
        },
        "practitioner": {
          "reference": "urn:uuid:f8fa77be-c030-440b-82cc-cb74d2670837"
        }
      }
    },
    {
      "fullUrl": "urn:uuid:f8fa77be-c030-440b-82cc-cb74d2670837",
      "resource": {
        "resourceType": "Practitioner",
        "id": "f8fa77be-c030-440b-82cc-cb74d2670837",
        "meta": {
          "profile": [
            "http://hl7.eu/fhir/base/StructureDefinition/practitioner-eu"
          ]
        },
        "identifier": [
          {
            "assigner": {
              "display": "HL7 Europe"
            },
            "system": "urn:oid:2.16.840.1.113883.2.51.999",
            "value": "d6743a48-6833-4026-b22c-f17376d35a77"
          }
        ],
        "name": [
          {
            "prefix": [
              "dr"
            ],
            "given": [
              "Ex"
            ],
            "family": "Ample"
          }
        ],
        "address": [
          {
            "line": [
              "Laboratoire Central Européenne",
              "Boulevard du Jardin Botanique 32"
            ],
            "postalCode": "1000",
            "city": "Brussels",
            "country": "Belgium"
          }
        ],
        "text": {
          "status": "generated",
          "div": "<div xmlns=\"http://www.w3.org/1999/xhtml\">Laboratory: Laboratoire Central Européenne, 1000 Brussels, Belgium</div>"
        }
      }
    }
  ],
  "type": "document",
  "timestamp": "2023-09-14T16:42:11Z"
}
