{
  "resourceType": "Bundle",
  "id": "655cf3e0-c715-46be-bbc5-5c1dcca58037",
  "meta": {
    "profile": [
      "http://hl7.eu/fhir/laboratory/StructureDefinition/Bundle-eu-lab"
    ]
  },
  "identifier": {
    "assigner": {
      "display": "HL7 Europe"
    },
    "system": "urn:oid:2.16.840.1.113883.2.51.999",
    "value": "89cbdbdd-cefd-41d7-b73c-5ddd7b5d0fbe"
  },
  "entry": [
    {
      "fullUrl": "urn:uuid:3bb9c52c-bb51-438e-8431-f8bc503ca217",
      "resource": {
        "resourceType": "Composition",
        "id": "3bb9c52c-bb51-438e-8431-f8bc503ca217",
        "meta": {
          "profile": [
            "http://hl7.eu/fhir/laboratory/StructureDefinition/Composition-eu-lab"
          ]
        },
        "identifier": {
          "assigner": {
            "display": "HL7 Europe"
          },
          "system": "urn:oid:2.16.840.1.113883.2.51.999",
          "value": "2ba1a147-fc76-495c-ad45-1ecc8224b373"
        },
        "author": [
          {
            "reference": "urn:uuid:0a7845d5-06a8-49f7-8b82-d2616db2b1f0"
          }
        ],
        "category": [
          {
            "coding": [
              {
                "code": "26436-6",
                "system": "http://loinc.org",
                "display": "Laboratory studies (set)"
              }
            ]
          }
        ],
        "type": {
          "coding": [
            {
              "code": "11502-2",
              "system": "http://loinc.org",
              "display": "Laboratory report"
            }
          ],
          "text": "Laboratory Report"
        },
        "section": [
          {
            "code": {
              "coding": [
                {
                  "code": "26436-6",
                  "system": "http://loinc.org",
                  "display": "Laboratory studies (set)"
                }
              ],
              "text": "Laboratory studies"
            },
            "section": [
              {
                "code": {
                  "coding": [
                    {
                      "code": "$18719-5",
                      "system": "http://loinc.org",
                      "display": "Chemistry studies (set)"
                    }
                  ],
                  "text": "Chemistry"
                },
                "entry": [
                  {
                    "reference": "urn:uuid:8c26b803-6edb-4449-ad40-1150b303fcd8"
                  },
                  {
                    "reference": "urn:uuid:f99b2fb5-e50b-4e1e-b2c6-be3ca7c5195a"
                  },
                  {
                    "reference": "urn:uuid:7eaa1743-4e12-489d-bd39-1049d72208da"
                  },
                  {
                    "reference": "urn:uuid:8314855e-a7c1-488d-b930-083e401978a3"
                  },
                  {
                    "reference": "urn:uuid:c8de0445-23f4-4d9f-a40c-b4b290a5a60b"
                  },
                  {
                    "reference": "urn:uuid:71ca36f1-2cc9-45da-8f20-293ed36acf85"
                  },
                  {
                    "reference": "urn:uuid:45942ab4-556f-464d-937e-14dc4c496738"
                  },
                  {
                    "reference": "urn:uuid:dfdb159d-aec1-4d47-9a0f-74f4131166c6"
                  },
                  {
                    "reference": "urn:uuid:2e4b439f-6e4f-4784-9301-2ce717dd1bba"
                  },
                  {
                    "reference": "urn:uuid:c28bb0bd-005d-4542-a8df-f9e5564e861a"
                  }
                ],
                "text": {
                  "status": "generated",
                  "div": "<div xmlns=\"http://www.w3.org/1999/xhtml\"><h3>Chemistry</h3><table class=\"hl7__eu__lab__report\"><thead><tr><th>Test</th><th>12-APR-2024</th><th>Reference&#xA0;Range</th><th>Unit</th></tr></thead><tbody><tr><td>Glucose [Mass/volume] in Serum or Plasma</td><td>87.4</td><td>70 - 140</td><td>mg/dL</td></tr><tr><td>Urea nitrogen [Mass/volume] in Serum or Plasma</td><td>16.3</td><td>7 - 20</td><td>mg/dL</td></tr><tr><td>Creatinine [Mass/volume] in Serum or Plasma</td><td><strong>2.1 H</strong></td><td>0.9 - 1.3</td><td>mg/dL</td></tr><tr><td>Calcium [Mass/volume] in Serum or Plasma</td><td>9.5</td><td>8.5 - 10.5</td><td>mg/dL</td></tr><tr><td>Sodium [Moles/volume] in Serum or Plasma</td><td>140.0</td><td>135 - 145</td><td>mmol/L</td></tr><tr><td>Potassium [Moles/volume] in Serum or Plasma</td><td>3.9</td><td>3.5 - 5.3</td><td>mmol/L</td></tr><tr><td>Chloride [Moles/volume] in Serum or Plasma</td><td>102.6</td><td>98 - 107</td><td>mmol/L</td></tr><tr><td>Carbon dioxide, total [Moles/volume] in Serum or Plasma</td><td>24.8</td><td>22 - 33</td><td>mmol/L</td></tr><tr><td>Ketones [Presence] in Urine by Test strip</td><td>Urine ketone test = ++</td><td></td><td></td></tr><tr><td>Hemoglobin A1c/Hemoglobin.total in Blood</td><td><strong>2.8 L</strong></td><td>4.3 - 6</td><td>%</td></tr></tbody></table></div>"
                },
                "title": "Chemistry"
              },
              {
                "code": {
                  "coding": [
                    {
                      "code": "$18729-4",
                      "system": "http://loinc.org",
                      "display": "Urinalysis studies (set)"
                    }
                  ],
                  "text": "Urinalysis"
                },
                "entry": [
                  {
                    "reference": "urn:uuid:d18b0899-bdd3-443f-ba76-f50c70d63fa5"
                  },
                  {
                    "reference": "urn:uuid:80de77e3-52ab-45e6-8fe5-87f81c824a48"
                  },
                  {
                    "reference": "urn:uuid:8b85aeeb-1797-43e5-b49b-36b408acb058"
                  },
                  {
                    "reference": "urn:uuid:1c07eb6c-5c19-44c1-bbdf-e913ae0437a9"
                  },
                  {
                    "reference": "urn:uuid:45443ada-e10d-41d4-85ec-a5525ef0e1dd"
                  },
                  {
                    "reference": "urn:uuid:e1ee2c35-1d0b-416e-ba8f-0e66b22d0a22"
                  },
                  {
                    "reference": "urn:uuid:46f925b2-ac81-4306-b7b9-f7622d2a2453"
                  },
                  {
                    "reference": "urn:uuid:a721ee8a-eb56-4a3f-b085-1cea3d140e1e"
                  },
                  {
                    "reference": "urn:uuid:6b834e0b-037f-45bf-be2e-7b6d4adf871a"
                  },
                  {
                    "reference": "urn:uuid:a5c872c7-2061-488b-8785-85f154ea8a49"
                  },
                  {
                    "reference": "urn:uuid:dc9666f9-ab07-4437-ab9d-d5851c85465c"
                  },
                  {
                    "reference": "urn:uuid:2b5067af-a4ae-4580-8769-503cce54666e"
                  }
                ],
                "text": {
                  "status": "generated",
                  "div": "<div xmlns=\"http://www.w3.org/1999/xhtml\"><h3>Urinalysis</h3><table class=\"hl7__eu__lab__report\"><thead><tr><th>Test</th><th>12-APR-2024</th><th>Reference&#xA0;Range</th><th>Unit</th></tr></thead><tbody><tr><td>Glucose [Mass/volume] in Urine by Test strip</td><td><strong>2.5 H</strong></td><td>0 - 0.8</td><td>mg/dL</td></tr><tr><td>Glucose [Presence] in Urine by Test strip</td><td>++</td><td></td><td></td></tr><tr><td>Bilirubin.total [Mass/volume] in Urine by Test strip</td><td>0.4</td><td>0 - 1.9</td><td>mg/dL</td></tr><tr><td>Bilirubin.total [Presence] in Urine by Test strip</td><td>Finding of bilirubin in urine</td><td></td><td></td></tr><tr><td>Ketones [Mass/volume] in Urine by Test strip</td><td><strong>3.8 H</strong></td><td>0 - 3</td><td>mg/dL</td></tr><tr><td>Specific gravity of Urine by Test strip</td><td><strong>1.0 L</strong></td><td>1.01 - 1.03</td><td>{nominal}</td></tr><tr><td>pH of Urine by Test strip</td><td>5.3</td><td>4.5 - 7.5</td><td>pH</td></tr><tr><td>Protein [Mass/volume] in Urine by Test strip</td><td><strong>355.3 H</strong></td><td>0 - 149</td><td>mg/dL</td></tr><tr><td>Protein [Presence] in Urine by Test strip</td><td>Urine protein test = ++</td><td></td><td></td></tr><tr><td>Nitrite [Presence] in Urine by Test strip</td><td>Urine nitrite negative</td><td></td><td></td></tr><tr><td>Hemoglobin [Presence] in Urine by Test strip</td><td>Urine blood test = negative</td><td></td><td></td></tr><tr><td>Leukocyte esterase [Presence] in Urine by Test strip</td><td>Urine leukocyte test negative</td><td></td><td></td></tr></tbody></table></div>"
                },
                "title": "Urinalysis"
              },
              {
                "code": {
                  "coding": [
                    {
                      "code": "$LP7846-1",
                      "system": "http://loinc.org",
                      "display": "Specimen information"
                    }
                  ],
                  "text": "Specimen information"
                },
                "entry": [
                  {
                    "reference": "urn:uuid:241b29f1-3ac3-4724-ac31-773be51b0ab4"
                  },
                  {
                    "reference": "urn:uuid:37bde96f-58ff-4956-bdf9-5f1f2b603743"
                  },
                  {
                    "reference": "urn:uuid:0c2d2049-5416-42cf-ba98-f1545de30033"
                  },
                  {
                    "reference": "urn:uuid:ce6450eb-3620-4695-b1e1-671de0e79881"
                  }
                ],
                "text": {
                  "status": "generated",
                  "div": "<div xmlns=\"http://www.w3.org/1999/xhtml\"><h3>Specimen information</h3><table class=\"hl7__eu__lab__report\"><thead><tr><th>Test</th><th>12-APR-2024</th><th>Specimen</th><th></th></tr></thead><tbody><tr><td>Appearance of Urine</td><td>Cloudy urine</td><td>Urine</td><td></td></tr><tr><td>Odor of Urine</td><td>Urine smell ammoniacal</td><td>Urine</td><td></td></tr><tr><td>Clarity of Urine</td><td>Translucent</td><td>Urine</td><td></td></tr><tr><td>Color of Urine</td><td>Brown color</td><td>Urine</td><td></td></tr></tbody></table></div>"
                },
                "title": "Specimen information"
              }
            ],
            "title": "Laboratory Report"
          },
          {
            "text": {
              "status": "generated",
              "div": "<div xmlns=\"http://www.w3.org/1999/xhtml\"><h3>Annotation</h3><table class=\"hl7__eu__lab__report\"><tr><th>Conclusion and Recommendations based on this report and previous findings known to us</th></tr><tr><td>The patient shows elevated serum creatinine, indicating impaired renal function. Urinalysis reveals proteinuria, glucosuria, ketonuria, low specific gravity, and abnormal urine appearance, suggesting possible diabetic nephropathy or tubular dysfunction, but HbA1c is low, arguing against chronic hyperglycemia. No evidence of urinary tract infection. Recommend clinical correlation for possible acute or chronic kidney disease and further evaluation of glycemic status and renal function.</td></tr></table></div>"
            },
            "code": {
              "coding": [
                {
                  "system": "http://loinc.org",
                  "code": "48767-8",
                  "display": "Annotation comment"
                }
              ]
            },
            "title": "Annotation comment"
          }
        ],
        "status": "final",
        "subject": {
          "reference": "urn:uuid:e1137a91-714c-46c9-ada9-16a91fc7170b",
          "display": "Victor Lagarde"
        },
        "date": "2024-04-12T06:48:18Z",
        "title": "Laboratory Report",
        "confidentiality": "N"
      }
    },
    {
      "fullUrl": "urn:uuid:23b862d0-5291-453e-a5ee-0756cd476c16",
      "resource": {
        "resourceType": "DiagnosticReport",
        "id": "23b862d0-5291-453e-a5ee-0756cd476c16",
        "meta": {
          "profile": [
            "http://hl7.eu/fhir/laboratory/StructureDefinition/DiagnosticReport-eu-lab"
          ]
        },
        "identifier": [
          {
            "assigner": {
              "display": "HL7 Europe"
            },
            "system": "urn:oid:2.16.840.1.113883.2.51.999",
            "value": "368f0069-239f-464c-85d0-cb12c3f3c91b"
          }
        ],
        "extension": [
          {
            "url": "http://hl7.org/fhir/5.0/StructureDefinition/extension-DiagnosticReport.composition",
            "valueReference": {
              "reference": "urn:uuid:2ba1a147-fc76-495c-ad45-1ecc8224b373"
            }
          }
        ],
        "category": [
          {
            "coding": [
              {
                "code": "26436-6",
                "system": "http://loinc.org",
                "display": "Laboratory studies (set)"
              }
            ]
          }
        ],
        "specimen": [
          {
            "reference": "urn:uuid:c4b7a6c5-989c-4316-af6c-0a5e2113f090"
          },
          {
            "reference": "urn:uuid:63ccb4ac-d9bc-44fc-b08e-8d9e0a7b0693"
          },
          {
            "reference": "urn:uuid:15aeea6b-058e-45a5-8d95-95059eca9560"
          }
        ],
        "result": [
          {
            "reference": "urn:uuid:8c26b803-6edb-4449-ad40-1150b303fcd8"
          },
          {
            "reference": "urn:uuid:f99b2fb5-e50b-4e1e-b2c6-be3ca7c5195a"
          },
          {
            "reference": "urn:uuid:7eaa1743-4e12-489d-bd39-1049d72208da"
          },
          {
            "reference": "urn:uuid:8314855e-a7c1-488d-b930-083e401978a3"
          },
          {
            "reference": "urn:uuid:c8de0445-23f4-4d9f-a40c-b4b290a5a60b"
          },
          {
            "reference": "urn:uuid:71ca36f1-2cc9-45da-8f20-293ed36acf85"
          },
          {
            "reference": "urn:uuid:45942ab4-556f-464d-937e-14dc4c496738"
          },
          {
            "reference": "urn:uuid:dfdb159d-aec1-4d47-9a0f-74f4131166c6"
          },
          {
            "reference": "urn:uuid:241b29f1-3ac3-4724-ac31-773be51b0ab4"
          },
          {
            "reference": "urn:uuid:37bde96f-58ff-4956-bdf9-5f1f2b603743"
          },
          {
            "reference": "urn:uuid:0c2d2049-5416-42cf-ba98-f1545de30033"
          },
          {
            "reference": "urn:uuid:ce6450eb-3620-4695-b1e1-671de0e79881"
          },
          {
            "reference": "urn:uuid:d18b0899-bdd3-443f-ba76-f50c70d63fa5"
          },
          {
            "reference": "urn:uuid:80de77e3-52ab-45e6-8fe5-87f81c824a48"
          },
          {
            "reference": "urn:uuid:8b85aeeb-1797-43e5-b49b-36b408acb058"
          },
          {
            "reference": "urn:uuid:1c07eb6c-5c19-44c1-bbdf-e913ae0437a9"
          },
          {
            "reference": "urn:uuid:45443ada-e10d-41d4-85ec-a5525ef0e1dd"
          },
          {
            "reference": "urn:uuid:2e4b439f-6e4f-4784-9301-2ce717dd1bba"
          },
          {
            "reference": "urn:uuid:e1ee2c35-1d0b-416e-ba8f-0e66b22d0a22"
          },
          {
            "reference": "urn:uuid:46f925b2-ac81-4306-b7b9-f7622d2a2453"
          },
          {
            "reference": "urn:uuid:a721ee8a-eb56-4a3f-b085-1cea3d140e1e"
          },
          {
            "reference": "urn:uuid:6b834e0b-037f-45bf-be2e-7b6d4adf871a"
          },
          {
            "reference": "urn:uuid:a5c872c7-2061-488b-8785-85f154ea8a49"
          },
          {
            "reference": "urn:uuid:dc9666f9-ab07-4437-ab9d-d5851c85465c"
          },
          {
            "reference": "urn:uuid:2b5067af-a4ae-4580-8769-503cce54666e"
          },
          {
            "reference": "urn:uuid:c28bb0bd-005d-4542-a8df-f9e5564e861a"
          }
        ],
        "status": "registered",
        "code": {
          "coding": [
            {
              "code": "11502-2",
              "system": "http://loinc.org",
              "display": "Laboratory report"
            }
          ]
        },
        "subject": {
          "reference": "urn:uuid:e1137a91-714c-46c9-ada9-16a91fc7170b",
          "display": "Victor Lagarde"
        }
      }
    },
    {
      "fullUrl": "urn:uuid:e1137a91-714c-46c9-ada9-16a91fc7170b",
      "resource": {
        "resourceType": "Patient",
        "id": "e1137a91-714c-46c9-ada9-16a91fc7170b",
        "meta": {
          "security": [
            {
              "system": "http://terminology.hl7.org/CodeSystem/v3-ActReason",
              "code": "HTEST"
            },
            {
              "system": "http://terminology.hl7.org/CodeSystem/v3-ActReason",
              "code": "TRAIN"
            }
          ],
          "tag": [
            {
              "system": "https://synderai.net/fhir/CodeSystem/tags",
              "code": "synthetic",
              "display": "SYNDERAI Synthetic data"
            }
          ],
          "profile": [
            "http://hl7.eu/fhir/base/StructureDefinition/patient-eu-core"
          ]
        },
        "identifier": [
          {
            "type": {
              "coding": [
                {
                  "code": "PT",
                  "system": "http://terminology.hl7.org/CodeSystem/v2-0203"
                }
              ]
            },
            "system": "http://ec.europa.eu/identifier/eci",
            "value": "9925-001801-9"
          },
          {
            "type": {
              "coding": [
                {
                  "code": "MR",
                  "system": "http://terminology.hl7.org/CodeSystem/v2-0203"
                }
              ]
            },
            "system": "http://local.setting.eu/identifier",
            "value": "22c2dfd0-ac57-8833-2532-848f180896a4"
          }
        ],
        "name": [
          {
            "family": "Lagarde"
          },
          {
            "given": [
              "Victor"
            ]
          },
          {
            "text": "Victor Lagarde"
          }
        ],
        "address": [
          {
            "line": [
              "avenue Robert"
            ],
            "use": "home",
            "type": "physical",
            "postalCode": "80300",
            "city": "Albert",
            "country": "France"
          }
        ],
        "telecom": [
          {
            "system": "phone",
            "value": "0177941801"
          }
        ],
        "extension": [
          {
            "url": "http://hl7.org/fhir/StructureDefinition/patient-nationality",
            "valueCodeableConcept": {
              "coding": [
                {
                  "code": "FR",
                  "system": "http://hl7.org/fhir/ValueSet/country"
                }
              ]
            }
          }
        ],
        "text": {
          "status": "generated",
          "div": "<div xmlns=\"http://www.w3.org/1999/xhtml\"><table class=\"hl7__ips\"><tr><td>Victor Lagarde</td><td>male</td><td>31-Aug-1939</td></tr></table></div>"
        },
        "gender": "male",
        "birthDate": "1939-08-31"
      }
    },
    {
      "fullUrl": "urn:uuid:0f226b36-f678-478e-bc9b-3fa250344966",
      "resource": {
        "resourceType": "ServiceRequest",
        "id": "0f226b36-f678-478e-bc9b-3fa250344966",
        "meta": {
          "profile": [
            "http://hl7.eu/fhir/laboratory/StructureDefinition/ServiceRequest-eu-lab"
          ]
        },
        "identifier": [
          {
            "system": "http://example.org",
            "value": "ba7a6714-9eb8-4448-93af-eb622829c398"
          }
        ],
        "specimen": [
          {
            "reference": "urn:uuid:c4b7a6c5-989c-4316-af6c-0a5e2113f090"
          },
          {
            "reference": "urn:uuid:63ccb4ac-d9bc-44fc-b08e-8d9e0a7b0693"
          },
          {
            "reference": "urn:uuid:15aeea6b-058e-45a5-8d95-95059eca9560"
          }
        ],
        "reasonCode": [
          {
            "coding": [
              {
                "code": "433144002",
                "system": "http://snomed.info/sct",
                "display": "Chronic kidney disease stage 3"
              }
            ]
          },
          {
            "coding": [
              {
                "code": "157141000119108",
                "system": "http://snomed.info/sct",
                "display": "Proteinuria due to type 2 diabetes mellitus"
              }
            ]
          },
          {
            "coding": [
              {
                "code": "431856006",
                "system": "http://snomed.info/sct",
                "display": "Chronic kidney disease stage 2"
              }
            ]
          },
          {
            "coding": [
              {
                "code": "90781000119102",
                "system": "http://snomed.info/sct",
                "display": "Microalbuminuria due to type 2 diabetes mellitus"
              }
            ]
          },
          {
            "coding": [
              {
                "code": "127013003",
                "system": "http://snomed.info/sct",
                "display": "Disorder of kidney due to diabetes mellitus"
              }
            ]
          },
          {
            "coding": [
              {
                "code": "431855005",
                "system": "http://snomed.info/sct",
                "display": "Chronic kidney disease stage 1"
              }
            ]
          },
          {
            "coding": [
              {
                "code": "55822004",
                "system": "http://snomed.info/sct",
                "display": "Hyperlipidemia"
              }
            ]
          },
          {
            "coding": [
              {
                "code": "59621000",
                "system": "http://snomed.info/sct",
                "display": "Essential hypertension"
              }
            ]
          },
          {
            "coding": [
              {
                "code": "237602007",
                "system": "http://snomed.info/sct",
                "display": "Metabolic syndrome X"
              }
            ]
          },
          {
            "coding": [
              {
                "code": "414545008",
                "system": "http://snomed.info/sct",
                "display": "Ischemic heart disease"
              }
            ]
          },
          {
            "coding": [
              {
                "code": "40055000",
                "system": "http://snomed.info/sct",
                "display": "Chronic sinusitis"
              }
            ]
          },
          {
            "coding": [
              {
                "code": "15777000",
                "system": "http://snomed.info/sct",
                "display": "Prediabetes"
              }
            ]
          },
          {
            "coding": [
              {
                "code": "271737000",
                "system": "http://snomed.info/sct",
                "display": "Anemia"
              }
            ]
          }
        ],
        "status": "active",
        "intent": "order",
        "code": {
          "coding": [
            {
              "code": "108252007",
              "system": "http://snomed.info/sct",
              "display": "Laboratory procedure"
            }
          ]
        },
        "subject": {
          "reference": "urn:uuid:e1137a91-714c-46c9-ada9-16a91fc7170b",
          "display": "Victor Lagarde"
        },
        "requester": {
          "reference": "urn:uuid:70919663-cd18-450c-b6c9-5dbbce805ab1"
        }
      }
    },
    {
      "fullUrl": "urn:uuid:70919663-cd18-450c-b6c9-5dbbce805ab1",
      "resource": {
        "resourceType": "PractitionerRole",
        "id": "70919663-cd18-450c-b6c9-5dbbce805ab1",
        "meta": {
          "profile": [
            "http://hl7.eu/fhir/base/StructureDefinition/practitionerRole-eu"
          ]
        },
        "text": {
          "status": "generated",
          "div": "<div xmlns=\"http://www.w3.org/1999/xhtml\">Provider Role Id: 70919663-cd18-450c-b6c9-5dbbce805ab1</div>"
        },
        "organization": {
          "reference": "urn:uuid:3f4901d3-e072-4e25-a970-d206c667b9d3"
        }
      }
    },
    {
      "fullUrl": "urn:uuid:3f4901d3-e072-4e25-a970-d206c667b9d3",
      "resource": {
        "resourceType": "Organization",
        "id": "3f4901d3-e072-4e25-a970-d206c667b9d3",
        "meta": {
          "profile": [
            "http://hl7.eu/fhir/base/StructureDefinition/organization-eu"
          ]
        },
        "identifier": [
          {
            "assigner": {
              "display": "HL7 Europe"
            },
            "system": "urn:oid:2.16.840.1.113883.2.51.999",
            "value": "91353118-005d-46e3-9333-5b78e09869ff"
          }
        ],
        "address": [
          {
            "city": "Auxerre",
            "postalCode": "89000",
            "country": "France"
          }
        ],
        "text": {
          "status": "generated",
          "div": "<div xmlns=\"http://www.w3.org/1999/xhtml\">Provider Organization: Thiriot Didier (Cardiologie)</div>"
        },
        "name": "Thiriot Didier (Cardiologie)"
      }
    },
    {
      "fullUrl": "urn:uuid:c4b7a6c5-989c-4316-af6c-0a5e2113f090",
      "resource": {
        "resourceType": "Specimen",
        "id": "c4b7a6c5-989c-4316-af6c-0a5e2113f090",
        "meta": {
          "profile": [
            "http://hl7.eu/fhir/laboratory/StructureDefinition/Specimen-eu-lab"
          ]
        },
        "collection": {
          "collectedDateTime": "2024-04-12"
        },
        "text": {
          "status": "generated",
          "div": "<div xmlns=\"http://www.w3.org/1999/xhtml\"><table class=\"hl7__eu__lab__report\"><tr><th>Specimen</th><th>Collection Date</th></tr><tr><td>Acellular blood (serum or plasma) specimen</td><td><span class=\"nb\">12-Apr-2024</span></td></tr></table></div>"
        },
        "type": {
          "coding": [
            {
              "code": "122592007",
              "system": "http://snomed.info/sct",
              "display": "Acellular blood (serum or plasma) specimen"
            }
          ]
        }
      }
    },
    {
      "fullUrl": "urn:uuid:63ccb4ac-d9bc-44fc-b08e-8d9e0a7b0693",
      "resource": {
        "resourceType": "Specimen",
        "id": "63ccb4ac-d9bc-44fc-b08e-8d9e0a7b0693",
        "meta": {
          "profile": [
            "http://hl7.eu/fhir/laboratory/StructureDefinition/Specimen-eu-lab"
          ]
        },
        "collection": {
          "collectedDateTime": "2024-04-12"
        },
        "text": {
          "status": "generated",
          "div": "<div xmlns=\"http://www.w3.org/1999/xhtml\"><table class=\"hl7__eu__lab__report\"><tr><th>Specimen</th><th>Collection Date</th></tr><tr><td>Urine specimen</td><td><span class=\"nb\">12-Apr-2024</span></td></tr></table></div>"
        },
        "type": {
          "coding": [
            {
              "code": "122575003",
              "system": "http://snomed.info/sct",
              "display": "Urine specimen"
            }
          ]
        }
      }
    },
    {
      "fullUrl": "urn:uuid:15aeea6b-058e-45a5-8d95-95059eca9560",
      "resource": {
        "resourceType": "Specimen",
        "id": "15aeea6b-058e-45a5-8d95-95059eca9560",
        "meta": {
          "profile": [
            "http://hl7.eu/fhir/laboratory/StructureDefinition/Specimen-eu-lab"
          ]
        },
        "collection": {
          "collectedDateTime": "2024-04-12"
        },
        "text": {
          "status": "generated",
          "div": "<div xmlns=\"http://www.w3.org/1999/xhtml\"><table class=\"hl7__eu__lab__report\"><tr><th>Specimen</th><th>Collection Date</th></tr><tr><td>Whole blood specimen (specimen)</td><td><span class=\"nb\">12-Apr-2024</span></td></tr></table></div>"
        },
        "type": {
          "coding": [
            {
              "code": "258580003",
              "system": "http://snomed.info/sct",
              "display": "Whole blood specimen (specimen)"
            }
          ]
        }
      }
    },
    {
      "fullUrl": "urn:uuid:8c26b803-6edb-4449-ad40-1150b303fcd8",
      "resource": {
        "resourceType": "Observation",
        "id": "8c26b803-6edb-4449-ad40-1150b303fcd8",
        "meta": {
          "profile": [
            "http://hl7.eu/fhir/laboratory/StructureDefinition/Observation-resultslab-eu-lab"
          ]
        },
        "performer": [
          {
            "display": "The Central European Lab"
          }
        ],
        "category": [
          {
            "coding": [
              {
                "system": "http://terminology.hl7.org/CodeSystem/observation-category",
                "code": "laboratory"
              }
            ]
          }
        ],
        "code": {
          "coding": [
            {
              "code": "2345-7",
              "system": "http://loinc.org",
              "display": "Glucose [Mass/volume] in Serum or Plasma"
            }
          ],
          "text": "Glucose [Mass/volume] in Serum or Plasma"
        },
        "valueQuantity": {
          "system": "http://unitsofmeasure.org",
          "value": 87.4,
          "unit": "mg/dL",
          "code": "mg/dL"
        },
        "referenceRange": [
          {
            "low": {
              "value": 70,
              "code": "mg/dL",
              "system": "http://unitsofmeasure.org"
            }
          },
          {
            "high": {
              "value": 140,
              "code": "mg/dL",
              "system": "http://unitsofmeasure.org"
            }
          }
        ],
        "text": {
          "status": "generated",
          "div": "<div xmlns=\"http://www.w3.org/1999/xhtml\"><table class=\"hl7__eu__lab__report\"><tr><th>Test</th><th>12-Apr-2024</th><th>Reference&#xA0;Range</th><th>Unit</th></tr><tr><td>Glucose [Mass/volume] in Serum or Plasma</td><td>87.4</td><td>70 - 140</td><td></td><td>mg/dL</td></tr></table></div>"
        },
        "status": "final",
        "subject": {
          "reference": "urn:uuid:e1137a91-714c-46c9-ada9-16a91fc7170b",
          "display": "Victor Lagarde"
        },
        "effectiveDateTime": "2024-04-12T04:48:18Z",
        "specimen": {
          "reference": "urn:uuid:c4b7a6c5-989c-4316-af6c-0a5e2113f090"
        }
      }
    },
    {
      "fullUrl": "urn:uuid:f99b2fb5-e50b-4e1e-b2c6-be3ca7c5195a",
      "resource": {
        "resourceType": "Observation",
        "id": "f99b2fb5-e50b-4e1e-b2c6-be3ca7c5195a",
        "meta": {
          "profile": [
            "http://hl7.eu/fhir/laboratory/StructureDefinition/Observation-resultslab-eu-lab"
          ]
        },
        "performer": [
          {
            "display": "The Central European Lab"
          }
        ],
        "category": [
          {
            "coding": [
              {
                "system": "http://terminology.hl7.org/CodeSystem/observation-category",
                "code": "laboratory"
              }
            ]
          }
        ],
        "code": {
          "coding": [
            {
              "code": "3094-0",
              "system": "http://loinc.org",
              "display": "Urea nitrogen [Mass/volume] in Serum or Plasma"
            }
          ],
          "text": "Urea nitrogen [Mass/volume] in Serum or Plasma"
        },
        "valueQuantity": {
          "system": "http://unitsofmeasure.org",
          "value": 16.3,
          "unit": "mg/dL",
          "code": "mg/dL"
        },
        "referenceRange": [
          {
            "low": {
              "value": 7,
              "code": "mg/dL",
              "system": "http://unitsofmeasure.org"
            }
          },
          {
            "high": {
              "value": 20,
              "code": "mg/dL",
              "system": "http://unitsofmeasure.org"
            }
          }
        ],
        "text": {
          "status": "generated",
          "div": "<div xmlns=\"http://www.w3.org/1999/xhtml\"><table class=\"hl7__eu__lab__report\"><tr><th>Test</th><th>12-Apr-2024</th><th>Reference&#xA0;Range</th><th>Unit</th></tr><tr><td>Urea nitrogen [Mass/volume] in Serum or Plasma</td><td>16.3</td><td>7 - 20</td><td></td><td>mg/dL</td></tr></table></div>"
        },
        "status": "final",
        "subject": {
          "reference": "urn:uuid:e1137a91-714c-46c9-ada9-16a91fc7170b",
          "display": "Victor Lagarde"
        },
        "effectiveDateTime": "2024-04-12T04:48:18Z",
        "specimen": {
          "reference": "urn:uuid:c4b7a6c5-989c-4316-af6c-0a5e2113f090"
        }
      }
    },
    {
      "fullUrl": "urn:uuid:7eaa1743-4e12-489d-bd39-1049d72208da",
      "resource": {
        "resourceType": "Observation",
        "id": "7eaa1743-4e12-489d-bd39-1049d72208da",
        "meta": {
          "profile": [
            "http://hl7.eu/fhir/laboratory/StructureDefinition/Observation-resultslab-eu-lab"
          ]
        },
        "performer": [
          {
            "display": "The Central European Lab"
          }
        ],
        "category": [
          {
            "coding": [
              {
                "system": "http://terminology.hl7.org/CodeSystem/observation-category",
                "code": "laboratory"
              }
            ]
          }
        ],
        "code": {
          "coding": [
            {
              "code": "2160-0",
              "system": "http://loinc.org",
              "display": "Creatinine [Mass/volume] in Serum or Plasma"
            }
          ],
          "text": "Creatinine [Mass/volume] in Serum or Plasma"
        },
        "valueQuantity": {
          "system": "http://unitsofmeasure.org",
          "value": 2.1,
          "unit": "mg/dL",
          "code": "mg/dL"
        },
        "referenceRange": [
          {
            "low": {
              "value": 0.9,
              "code": "mg/dL",
              "system": "http://unitsofmeasure.org"
            }
          },
          {
            "high": {
              "value": 1.3,
              "code": "mg/dL",
              "system": "http://unitsofmeasure.org"
            }
          }
        ],
        "interpretation": [
          {
            "coding": [
              {
                "code": "H",
                "system": "http://terminology.hl7.org/CodeSystem/v3-ObservationInterpretation",
                "display": "High"
              }
            ]
          }
        ],
        "text": {
          "status": "generated",
          "div": "<div xmlns=\"http://www.w3.org/1999/xhtml\"><table class=\"hl7__eu__lab__report\"><tr><th>Test</th><th>12-Apr-2024</th><th>Reference&#xA0;Range</th><th>Unit</th></tr><tr><td>Creatinine [Mass/volume] in Serum or Plasma</td><td>2.1</td><td>0.9 - 1.3</td><td>H</td><td>mg/dL</td></tr></table></div>"
        },
        "status": "final",
        "subject": {
          "reference": "urn:uuid:e1137a91-714c-46c9-ada9-16a91fc7170b",
          "display": "Victor Lagarde"
        },
        "effectiveDateTime": "2024-04-12T04:48:18Z",
        "specimen": {
          "reference": "urn:uuid:c4b7a6c5-989c-4316-af6c-0a5e2113f090"
        }
      }
    },
    {
      "fullUrl": "urn:uuid:8314855e-a7c1-488d-b930-083e401978a3",
      "resource": {
        "resourceType": "Observation",
        "id": "8314855e-a7c1-488d-b930-083e401978a3",
        "meta": {
          "profile": [
            "http://hl7.eu/fhir/laboratory/StructureDefinition/Observation-resultslab-eu-lab"
          ]
        },
        "performer": [
          {
            "display": "The Central European Lab"
          }
        ],
        "category": [
          {
            "coding": [
              {
                "system": "http://terminology.hl7.org/CodeSystem/observation-category",
                "code": "laboratory"
              }
            ]
          }
        ],
        "code": {
          "coding": [
            {
              "code": "17861-6",
              "system": "http://loinc.org",
              "display": "Calcium [Mass/volume] in Serum or Plasma"
            }
          ],
          "text": "Calcium [Mass/volume] in Serum or Plasma"
        },
        "valueQuantity": {
          "system": "http://unitsofmeasure.org",
          "value": 9.5,
          "unit": "mg/dL",
          "code": "mg/dL"
        },
        "referenceRange": [
          {
            "low": {
              "value": 8.5,
              "code": "mg/dL",
              "system": "http://unitsofmeasure.org"
            }
          },
          {
            "high": {
              "value": 10.5,
              "code": "mg/dL",
              "system": "http://unitsofmeasure.org"
            }
          }
        ],
        "text": {
          "status": "generated",
          "div": "<div xmlns=\"http://www.w3.org/1999/xhtml\"><table class=\"hl7__eu__lab__report\"><tr><th>Test</th><th>12-Apr-2024</th><th>Reference&#xA0;Range</th><th>Unit</th></tr><tr><td>Calcium [Mass/volume] in Serum or Plasma</td><td>9.5</td><td>8.5 - 10.5</td><td></td><td>mg/dL</td></tr></table></div>"
        },
        "status": "final",
        "subject": {
          "reference": "urn:uuid:e1137a91-714c-46c9-ada9-16a91fc7170b",
          "display": "Victor Lagarde"
        },
        "effectiveDateTime": "2024-04-12T04:48:18Z",
        "specimen": {
          "reference": "urn:uuid:c4b7a6c5-989c-4316-af6c-0a5e2113f090"
        }
      }
    },
    {
      "fullUrl": "urn:uuid:c8de0445-23f4-4d9f-a40c-b4b290a5a60b",
      "resource": {
        "resourceType": "Observation",
        "id": "c8de0445-23f4-4d9f-a40c-b4b290a5a60b",
        "meta": {
          "profile": [
            "http://hl7.eu/fhir/laboratory/StructureDefinition/Observation-resultslab-eu-lab"
          ]
        },
        "performer": [
          {
            "display": "The Central European Lab"
          }
        ],
        "category": [
          {
            "coding": [
              {
                "system": "http://terminology.hl7.org/CodeSystem/observation-category",
                "code": "laboratory"
              }
            ]
          }
        ],
        "code": {
          "coding": [
            {
              "code": "2951-2",
              "system": "http://loinc.org",
              "display": "Sodium [Moles/volume] in Serum or Plasma"
            }
          ],
          "text": "Sodium [Moles/volume] in Serum or Plasma"
        },
        "valueQuantity": {
          "system": "http://unitsofmeasure.org",
          "value": 140,
          "unit": "mmol/L",
          "code": "mmol/L"
        },
        "referenceRange": [
          {
            "low": {
              "value": 135,
              "code": "mmol/L",
              "system": "http://unitsofmeasure.org"
            }
          },
          {
            "high": {
              "value": 145,
              "code": "mmol/L",
              "system": "http://unitsofmeasure.org"
            }
          }
        ],
        "text": {
          "status": "generated",
          "div": "<div xmlns=\"http://www.w3.org/1999/xhtml\"><table class=\"hl7__eu__lab__report\"><tr><th>Test</th><th>12-Apr-2024</th><th>Reference&#xA0;Range</th><th>Unit</th></tr><tr><td>Sodium [Moles/volume] in Serum or Plasma</td><td>140.0</td><td>135 - 145</td><td></td><td>mmol/L</td></tr></table></div>"
        },
        "status": "final",
        "subject": {
          "reference": "urn:uuid:e1137a91-714c-46c9-ada9-16a91fc7170b",
          "display": "Victor Lagarde"
        },
        "effectiveDateTime": "2024-04-12T04:48:18Z",
        "specimen": {
          "reference": "urn:uuid:c4b7a6c5-989c-4316-af6c-0a5e2113f090"
        }
      }
    },
    {
      "fullUrl": "urn:uuid:71ca36f1-2cc9-45da-8f20-293ed36acf85",
      "resource": {
        "resourceType": "Observation",
        "id": "71ca36f1-2cc9-45da-8f20-293ed36acf85",
        "meta": {
          "profile": [
            "http://hl7.eu/fhir/laboratory/StructureDefinition/Observation-resultslab-eu-lab"
          ]
        },
        "performer": [
          {
            "display": "The Central European Lab"
          }
        ],
        "category": [
          {
            "coding": [
              {
                "system": "http://terminology.hl7.org/CodeSystem/observation-category",
                "code": "laboratory"
              }
            ]
          }
        ],
        "code": {
          "coding": [
            {
              "code": "2823-3",
              "system": "http://loinc.org",
              "display": "Potassium [Moles/volume] in Serum or Plasma"
            }
          ],
          "text": "Potassium [Moles/volume] in Serum or Plasma"
        },
        "valueQuantity": {
          "system": "http://unitsofmeasure.org",
          "value": 3.9,
          "unit": "mmol/L",
          "code": "mmol/L"
        },
        "referenceRange": [
          {
            "low": {
              "value": 3.5,
              "code": "mmol/L",
              "system": "http://unitsofmeasure.org"
            }
          },
          {
            "high": {
              "value": 5.3,
              "code": "mmol/L",
              "system": "http://unitsofmeasure.org"
            }
          }
        ],
        "text": {
          "status": "generated",
          "div": "<div xmlns=\"http://www.w3.org/1999/xhtml\"><table class=\"hl7__eu__lab__report\"><tr><th>Test</th><th>12-Apr-2024</th><th>Reference&#xA0;Range</th><th>Unit</th></tr><tr><td>Potassium [Moles/volume] in Serum or Plasma</td><td>3.9</td><td>3.5 - 5.3</td><td></td><td>mmol/L</td></tr></table></div>"
        },
        "status": "final",
        "subject": {
          "reference": "urn:uuid:e1137a91-714c-46c9-ada9-16a91fc7170b",
          "display": "Victor Lagarde"
        },
        "effectiveDateTime": "2024-04-12T04:48:18Z",
        "specimen": {
          "reference": "urn:uuid:c4b7a6c5-989c-4316-af6c-0a5e2113f090"
        }
      }
    },
    {
      "fullUrl": "urn:uuid:45942ab4-556f-464d-937e-14dc4c496738",
      "resource": {
        "resourceType": "Observation",
        "id": "45942ab4-556f-464d-937e-14dc4c496738",
        "meta": {
          "profile": [
            "http://hl7.eu/fhir/laboratory/StructureDefinition/Observation-resultslab-eu-lab"
          ]
        },
        "performer": [
          {
            "display": "The Central European Lab"
          }
        ],
        "category": [
          {
            "coding": [
              {
                "system": "http://terminology.hl7.org/CodeSystem/observation-category",
                "code": "laboratory"
              }
            ]
          }
        ],
        "code": {
          "coding": [
            {
              "code": "2075-0",
              "system": "http://loinc.org",
              "display": "Chloride [Moles/volume] in Serum or Plasma"
            }
          ],
          "text": "Chloride [Moles/volume] in Serum or Plasma"
        },
        "valueQuantity": {
          "system": "http://unitsofmeasure.org",
          "value": 102.6,
          "unit": "mmol/L",
          "code": "mmol/L"
        },
        "referenceRange": [
          {
            "low": {
              "value": 98,
              "code": "mmol/L",
              "system": "http://unitsofmeasure.org"
            }
          },
          {
            "high": {
              "value": 107,
              "code": "mmol/L",
              "system": "http://unitsofmeasure.org"
            }
          }
        ],
        "text": {
          "status": "generated",
          "div": "<div xmlns=\"http://www.w3.org/1999/xhtml\"><table class=\"hl7__eu__lab__report\"><tr><th>Test</th><th>12-Apr-2024</th><th>Reference&#xA0;Range</th><th>Unit</th></tr><tr><td>Chloride [Moles/volume] in Serum or Plasma</td><td>102.6</td><td>98 - 107</td><td></td><td>mmol/L</td></tr></table></div>"
        },
        "status": "final",
        "subject": {
          "reference": "urn:uuid:e1137a91-714c-46c9-ada9-16a91fc7170b",
          "display": "Victor Lagarde"
        },
        "effectiveDateTime": "2024-04-12T04:48:18Z",
        "specimen": {
          "reference": "urn:uuid:c4b7a6c5-989c-4316-af6c-0a5e2113f090"
        }
      }
    },
    {
      "fullUrl": "urn:uuid:dfdb159d-aec1-4d47-9a0f-74f4131166c6",
      "resource": {
        "resourceType": "Observation",
        "id": "dfdb159d-aec1-4d47-9a0f-74f4131166c6",
        "meta": {
          "profile": [
            "http://hl7.eu/fhir/laboratory/StructureDefinition/Observation-resultslab-eu-lab"
          ]
        },
        "performer": [
          {
            "display": "The Central European Lab"
          }
        ],
        "category": [
          {
            "coding": [
              {
                "system": "http://terminology.hl7.org/CodeSystem/observation-category",
                "code": "laboratory"
              }
            ]
          }
        ],
        "code": {
          "coding": [
            {
              "code": "2028-9",
              "system": "http://loinc.org",
              "display": "Carbon dioxide, total [Moles/volume] in Serum or Plasma"
            }
          ],
          "text": "Carbon dioxide, total [Moles/volume] in Serum or Plasma"
        },
        "valueQuantity": {
          "system": "http://unitsofmeasure.org",
          "value": 24.8,
          "unit": "mmol/L",
          "code": "mmol/L"
        },
        "referenceRange": [
          {
            "low": {
              "value": 22,
              "code": "mmol/L",
              "system": "http://unitsofmeasure.org"
            }
          },
          {
            "high": {
              "value": 33,
              "code": "mmol/L",
              "system": "http://unitsofmeasure.org"
            }
          }
        ],
        "text": {
          "status": "generated",
          "div": "<div xmlns=\"http://www.w3.org/1999/xhtml\"><table class=\"hl7__eu__lab__report\"><tr><th>Test</th><th>12-Apr-2024</th><th>Reference&#xA0;Range</th><th>Unit</th></tr><tr><td>Carbon dioxide, total [Moles/volume] in Serum or Plasma</td><td>24.8</td><td>22 - 33</td><td></td><td>mmol/L</td></tr></table></div>"
        },
        "status": "final",
        "subject": {
          "reference": "urn:uuid:e1137a91-714c-46c9-ada9-16a91fc7170b",
          "display": "Victor Lagarde"
        },
        "effectiveDateTime": "2024-04-12T04:48:18Z",
        "specimen": {
          "reference": "urn:uuid:c4b7a6c5-989c-4316-af6c-0a5e2113f090"
        }
      }
    },
    {
      "fullUrl": "urn:uuid:241b29f1-3ac3-4724-ac31-773be51b0ab4",
      "resource": {
        "resourceType": "Observation",
        "id": "241b29f1-3ac3-4724-ac31-773be51b0ab4",
        "meta": {
          "profile": [
            "http://hl7.eu/fhir/laboratory/StructureDefinition/Observation-resultslab-eu-lab"
          ]
        },
        "performer": [
          {
            "display": "The Central European Lab"
          }
        ],
        "category": [
          {
            "coding": [
              {
                "system": "http://terminology.hl7.org/CodeSystem/observation-category",
                "code": "laboratory"
              }
            ]
          }
        ],
        "code": {
          "coding": [
            {
              "code": "5767-9",
              "system": "http://loinc.org",
              "display": "Appearance of Urine"
            }
          ],
          "text": "Appearance of Urine"
        },
        "text": {
          "status": "generated",
          "div": "<div xmlns=\"http://www.w3.org/1999/xhtml\"><table class=\"hl7__eu__lab__report\"><tr><th>Test</th><th>12-Apr-2024</th><th>Reference&#xA0;Range</th><th>Unit</th></tr><tr><td>Appearance of Urine</td></tr></table></div>"
        },
        "status": "final",
        "subject": {
          "reference": "urn:uuid:e1137a91-714c-46c9-ada9-16a91fc7170b",
          "display": "Victor Lagarde"
        },
        "effectiveDateTime": "2024-04-12T04:48:18Z",
        "specimen": {
          "reference": "urn:uuid:63ccb4ac-d9bc-44fc-b08e-8d9e0a7b0693"
        }
      }
    },
    {
      "fullUrl": "urn:uuid:37bde96f-58ff-4956-bdf9-5f1f2b603743",
      "resource": {
        "resourceType": "Observation",
        "id": "37bde96f-58ff-4956-bdf9-5f1f2b603743",
        "meta": {
          "profile": [
            "http://hl7.eu/fhir/laboratory/StructureDefinition/Observation-resultslab-eu-lab"
          ]
        },
        "performer": [
          {
            "display": "The Central European Lab"
          }
        ],
        "category": [
          {
            "coding": [
              {
                "system": "http://terminology.hl7.org/CodeSystem/observation-category",
                "code": "laboratory"
              }
            ]
          }
        ],
        "code": {
          "coding": [
            {
              "code": "34533-0",
              "system": "http://loinc.org",
              "display": "Odor of Urine"
            }
          ],
          "text": "Odor of Urine"
        },
        "text": {
          "status": "generated",
          "div": "<div xmlns=\"http://www.w3.org/1999/xhtml\"><table class=\"hl7__eu__lab__report\"><tr><th>Test</th><th>12-Apr-2024</th><th>Reference&#xA0;Range</th><th>Unit</th></tr><tr><td>Odor of Urine</td></tr></table></div>"
        },
        "status": "final",
        "subject": {
          "reference": "urn:uuid:e1137a91-714c-46c9-ada9-16a91fc7170b",
          "display": "Victor Lagarde"
        },
        "effectiveDateTime": "2024-04-12T04:48:18Z",
        "specimen": {
          "reference": "urn:uuid:63ccb4ac-d9bc-44fc-b08e-8d9e0a7b0693"
        }
      }
    },
    {
      "fullUrl": "urn:uuid:0c2d2049-5416-42cf-ba98-f1545de30033",
      "resource": {
        "resourceType": "Observation",
        "id": "0c2d2049-5416-42cf-ba98-f1545de30033",
        "meta": {
          "profile": [
            "http://hl7.eu/fhir/laboratory/StructureDefinition/Observation-resultslab-eu-lab"
          ]
        },
        "performer": [
          {
            "display": "The Central European Lab"
          }
        ],
        "category": [
          {
            "coding": [
              {
                "system": "http://terminology.hl7.org/CodeSystem/observation-category",
                "code": "laboratory"
              }
            ]
          }
        ],
        "code": {
          "coding": [
            {
              "code": "32167-9",
              "system": "http://loinc.org",
              "display": "Clarity of Urine"
            }
          ],
          "text": "Clarity of Urine"
        },
        "text": {
          "status": "generated",
          "div": "<div xmlns=\"http://www.w3.org/1999/xhtml\"><table class=\"hl7__eu__lab__report\"><tr><th>Test</th><th>12-Apr-2024</th><th>Reference&#xA0;Range</th><th>Unit</th></tr><tr><td>Clarity of Urine</td></tr></table></div>"
        },
        "status": "final",
        "subject": {
          "reference": "urn:uuid:e1137a91-714c-46c9-ada9-16a91fc7170b",
          "display": "Victor Lagarde"
        },
        "effectiveDateTime": "2024-04-12T04:48:18Z",
        "specimen": {
          "reference": "urn:uuid:63ccb4ac-d9bc-44fc-b08e-8d9e0a7b0693"
        }
      }
    },
    {
      "fullUrl": "urn:uuid:ce6450eb-3620-4695-b1e1-671de0e79881",
      "resource": {
        "resourceType": "Observation",
        "id": "ce6450eb-3620-4695-b1e1-671de0e79881",
        "meta": {
          "profile": [
            "http://hl7.eu/fhir/laboratory/StructureDefinition/Observation-resultslab-eu-lab"
          ]
        },
        "performer": [
          {
            "display": "The Central European Lab"
          }
        ],
        "category": [
          {
            "coding": [
              {
                "system": "http://terminology.hl7.org/CodeSystem/observation-category",
                "code": "laboratory"
              }
            ]
          }
        ],
        "code": {
          "coding": [
            {
              "code": "5778-6",
              "system": "http://loinc.org",
              "display": "Color of Urine"
            }
          ],
          "text": "Color of Urine"
        },
        "text": {
          "status": "generated",
          "div": "<div xmlns=\"http://www.w3.org/1999/xhtml\"><table class=\"hl7__eu__lab__report\"><tr><th>Test</th><th>12-Apr-2024</th><th>Reference&#xA0;Range</th><th>Unit</th></tr><tr><td>Color of Urine</td></tr></table></div>"
        },
        "status": "final",
        "subject": {
          "reference": "urn:uuid:e1137a91-714c-46c9-ada9-16a91fc7170b",
          "display": "Victor Lagarde"
        },
        "effectiveDateTime": "2024-04-12T04:48:18Z",
        "specimen": {
          "reference": "urn:uuid:63ccb4ac-d9bc-44fc-b08e-8d9e0a7b0693"
        }
      }
    },
    {
      "fullUrl": "urn:uuid:d18b0899-bdd3-443f-ba76-f50c70d63fa5",
      "resource": {
        "resourceType": "Observation",
        "id": "d18b0899-bdd3-443f-ba76-f50c70d63fa5",
        "meta": {
          "profile": [
            "http://hl7.eu/fhir/laboratory/StructureDefinition/Observation-resultslab-eu-lab"
          ]
        },
        "performer": [
          {
            "display": "The Central European Lab"
          }
        ],
        "category": [
          {
            "coding": [
              {
                "system": "http://terminology.hl7.org/CodeSystem/observation-category",
                "code": "laboratory"
              }
            ]
          }
        ],
        "code": {
          "coding": [
            {
              "code": "5792-7",
              "system": "http://loinc.org",
              "display": "Glucose [Mass/volume] in Urine by Test strip"
            }
          ],
          "text": "Glucose [Mass/volume] in Urine by Test strip"
        },
        "valueQuantity": {
          "system": "http://unitsofmeasure.org",
          "value": 2.5,
          "unit": "mg/dL",
          "code": "mg/dL"
        },
        "referenceRange": [
          {
            "low": {
              "value": 0,
              "code": "mg/dL",
              "system": "http://unitsofmeasure.org"
            }
          },
          {
            "high": {
              "value": 0.8,
              "code": "mg/dL",
              "system": "http://unitsofmeasure.org"
            }
          }
        ],
        "interpretation": [
          {
            "coding": [
              {
                "code": "H",
                "system": "http://terminology.hl7.org/CodeSystem/v3-ObservationInterpretation",
                "display": "High"
              }
            ]
          }
        ],
        "text": {
          "status": "generated",
          "div": "<div xmlns=\"http://www.w3.org/1999/xhtml\"><table class=\"hl7__eu__lab__report\"><tr><th>Test</th><th>12-Apr-2024</th><th>Reference&#xA0;Range</th><th>Unit</th></tr><tr><td>Glucose [Mass/volume] in Urine by Test strip</td><td>2.5</td><td>0 - 0.8</td><td>H</td><td>mg/dL</td></tr></table></div>"
        },
        "status": "final",
        "subject": {
          "reference": "urn:uuid:e1137a91-714c-46c9-ada9-16a91fc7170b",
          "display": "Victor Lagarde"
        },
        "effectiveDateTime": "2024-04-12T04:48:18Z",
        "specimen": {
          "reference": "urn:uuid:63ccb4ac-d9bc-44fc-b08e-8d9e0a7b0693"
        }
      }
    },
    {
      "fullUrl": "urn:uuid:80de77e3-52ab-45e6-8fe5-87f81c824a48",
      "resource": {
        "resourceType": "Observation",
        "id": "80de77e3-52ab-45e6-8fe5-87f81c824a48",
        "meta": {
          "profile": [
            "http://hl7.eu/fhir/laboratory/StructureDefinition/Observation-resultslab-eu-lab"
          ]
        },
        "performer": [
          {
            "display": "The Central European Lab"
          }
        ],
        "category": [
          {
            "coding": [
              {
                "system": "http://terminology.hl7.org/CodeSystem/observation-category",
                "code": "laboratory"
              }
            ]
          }
        ],
        "code": {
          "coding": [
            {
              "code": "25428-4",
              "system": "http://loinc.org",
              "display": "Glucose [Presence] in Urine by Test strip"
            }
          ],
          "text": "Glucose [Presence] in Urine by Test strip"
        },
        "text": {
          "status": "generated",
          "div": "<div xmlns=\"http://www.w3.org/1999/xhtml\"><table class=\"hl7__eu__lab__report\"><tr><th>Test</th><th>12-Apr-2024</th><th>Reference&#xA0;Range</th><th>Unit</th></tr><tr><td>Glucose [Presence] in Urine by Test strip</td></tr></table></div>"
        },
        "status": "final",
        "subject": {
          "reference": "urn:uuid:e1137a91-714c-46c9-ada9-16a91fc7170b",
          "display": "Victor Lagarde"
        },
        "effectiveDateTime": "2024-04-12T04:48:18Z",
        "specimen": {
          "reference": "urn:uuid:63ccb4ac-d9bc-44fc-b08e-8d9e0a7b0693"
        }
      }
    },
    {
      "fullUrl": "urn:uuid:8b85aeeb-1797-43e5-b49b-36b408acb058",
      "resource": {
        "resourceType": "Observation",
        "id": "8b85aeeb-1797-43e5-b49b-36b408acb058",
        "meta": {
          "profile": [
            "http://hl7.eu/fhir/laboratory/StructureDefinition/Observation-resultslab-eu-lab"
          ]
        },
        "performer": [
          {
            "display": "The Central European Lab"
          }
        ],
        "category": [
          {
            "coding": [
              {
                "system": "http://terminology.hl7.org/CodeSystem/observation-category",
                "code": "laboratory"
              }
            ]
          }
        ],
        "code": {
          "coding": [
            {
              "code": "20505-4",
              "system": "http://loinc.org",
              "display": "Bilirubin.total [Mass/volume] in Urine by Test strip"
            }
          ],
          "text": "Bilirubin.total [Mass/volume] in Urine by Test strip"
        },
        "valueQuantity": {
          "system": "http://unitsofmeasure.org",
          "value": 0.4,
          "unit": "mg/dL",
          "code": "mg/dL"
        },
        "referenceRange": [
          {
            "low": {
              "value": 0,
              "code": "mg/dL",
              "system": "http://unitsofmeasure.org"
            }
          },
          {
            "high": {
              "value": 1.9,
              "code": "mg/dL",
              "system": "http://unitsofmeasure.org"
            }
          }
        ],
        "text": {
          "status": "generated",
          "div": "<div xmlns=\"http://www.w3.org/1999/xhtml\"><table class=\"hl7__eu__lab__report\"><tr><th>Test</th><th>12-Apr-2024</th><th>Reference&#xA0;Range</th><th>Unit</th></tr><tr><td>Bilirubin.total [Mass/volume] in Urine by Test strip</td><td>0.4</td><td>0 - 1.9</td><td></td><td>mg/dL</td></tr></table></div>"
        },
        "status": "final",
        "subject": {
          "reference": "urn:uuid:e1137a91-714c-46c9-ada9-16a91fc7170b",
          "display": "Victor Lagarde"
        },
        "effectiveDateTime": "2024-04-12T04:48:18Z",
        "specimen": {
          "reference": "urn:uuid:63ccb4ac-d9bc-44fc-b08e-8d9e0a7b0693"
        }
      }
    },
    {
      "fullUrl": "urn:uuid:1c07eb6c-5c19-44c1-bbdf-e913ae0437a9",
      "resource": {
        "resourceType": "Observation",
        "id": "1c07eb6c-5c19-44c1-bbdf-e913ae0437a9",
        "meta": {
          "profile": [
            "http://hl7.eu/fhir/laboratory/StructureDefinition/Observation-resultslab-eu-lab"
          ]
        },
        "performer": [
          {
            "display": "The Central European Lab"
          }
        ],
        "category": [
          {
            "coding": [
              {
                "system": "http://terminology.hl7.org/CodeSystem/observation-category",
                "code": "laboratory"
              }
            ]
          }
        ],
        "code": {
          "coding": [
            {
              "code": "5770-3",
              "system": "http://loinc.org",
              "display": "Bilirubin.total [Presence] in Urine by Test strip"
            }
          ],
          "text": "Bilirubin.total [Presence] in Urine by Test strip"
        },
        "text": {
          "status": "generated",
          "div": "<div xmlns=\"http://www.w3.org/1999/xhtml\"><table class=\"hl7__eu__lab__report\"><tr><th>Test</th><th>12-Apr-2024</th><th>Reference&#xA0;Range</th><th>Unit</th></tr><tr><td>Bilirubin.total [Presence] in Urine by Test strip</td></tr></table></div>"
        },
        "status": "final",
        "subject": {
          "reference": "urn:uuid:e1137a91-714c-46c9-ada9-16a91fc7170b",
          "display": "Victor Lagarde"
        },
        "effectiveDateTime": "2024-04-12T04:48:18Z",
        "specimen": {
          "reference": "urn:uuid:63ccb4ac-d9bc-44fc-b08e-8d9e0a7b0693"
        }
      }
    },
    {
      "fullUrl": "urn:uuid:45443ada-e10d-41d4-85ec-a5525ef0e1dd",
      "resource": {
        "resourceType": "Observation",
        "id": "45443ada-e10d-41d4-85ec-a5525ef0e1dd",
        "meta": {
          "profile": [
            "http://hl7.eu/fhir/laboratory/StructureDefinition/Observation-resultslab-eu-lab"
          ]
        },
        "performer": [
          {
            "display": "The Central European Lab"
          }
        ],
        "category": [
          {
            "coding": [
              {
                "system": "http://terminology.hl7.org/CodeSystem/observation-category",
                "code": "laboratory"
              }
            ]
          }
        ],
        "code": {
          "coding": [
            {
              "code": "5797-6",
              "system": "http://loinc.org",
              "display": "Ketones [Mass/volume] in Urine by Test strip"
            }
          ],
          "text": "Ketones [Mass/volume] in Urine by Test strip"
        },
        "valueQuantity": {
          "system": "http://unitsofmeasure.org",
          "value": 3.8,
          "unit": "mg/dL",
          "code": "mg/dL"
        },
        "referenceRange": [
          {
            "low": {
              "value": 0,
              "code": "mg/dL",
              "system": "http://unitsofmeasure.org"
            }
          },
          {
            "high": {
              "value": 3,
              "code": "mg/dL",
              "system": "http://unitsofmeasure.org"
            }
          }
        ],
        "interpretation": [
          {
            "coding": [
              {
                "code": "H",
                "system": "http://terminology.hl7.org/CodeSystem/v3-ObservationInterpretation",
                "display": "High"
              }
            ]
          }
        ],
        "text": {
          "status": "generated",
          "div": "<div xmlns=\"http://www.w3.org/1999/xhtml\"><table class=\"hl7__eu__lab__report\"><tr><th>Test</th><th>12-Apr-2024</th><th>Reference&#xA0;Range</th><th>Unit</th></tr><tr><td>Ketones [Mass/volume] in Urine by Test strip</td><td>3.8</td><td>0 - 3</td><td>H</td><td>mg/dL</td></tr></table></div>"
        },
        "status": "final",
        "subject": {
          "reference": "urn:uuid:e1137a91-714c-46c9-ada9-16a91fc7170b",
          "display": "Victor Lagarde"
        },
        "effectiveDateTime": "2024-04-12T04:48:18Z",
        "specimen": {
          "reference": "urn:uuid:63ccb4ac-d9bc-44fc-b08e-8d9e0a7b0693"
        }
      }
    },
    {
      "fullUrl": "urn:uuid:2e4b439f-6e4f-4784-9301-2ce717dd1bba",
      "resource": {
        "resourceType": "Observation",
        "id": "2e4b439f-6e4f-4784-9301-2ce717dd1bba",
        "meta": {
          "profile": [
            "http://hl7.eu/fhir/laboratory/StructureDefinition/Observation-resultslab-eu-lab"
          ]
        },
        "performer": [
          {
            "display": "The Central European Lab"
          }
        ],
        "category": [
          {
            "coding": [
              {
                "system": "http://terminology.hl7.org/CodeSystem/observation-category",
                "code": "laboratory"
              }
            ]
          }
        ],
        "code": {
          "coding": [
            {
              "code": "2514-8",
              "system": "http://loinc.org",
              "display": "Ketones [Presence] in Urine by Test strip"
            }
          ],
          "text": "Ketones [Presence] in Urine by Test strip"
        },
        "text": {
          "status": "generated",
          "div": "<div xmlns=\"http://www.w3.org/1999/xhtml\"><table class=\"hl7__eu__lab__report\"><tr><th>Test</th><th>12-Apr-2024</th><th>Reference&#xA0;Range</th><th>Unit</th></tr><tr><td>Ketones [Presence] in Urine by Test strip</td></tr></table></div>"
        },
        "status": "final",
        "subject": {
          "reference": "urn:uuid:e1137a91-714c-46c9-ada9-16a91fc7170b",
          "display": "Victor Lagarde"
        },
        "effectiveDateTime": "2024-04-12T04:48:18Z",
        "specimen": {
          "reference": "urn:uuid:63ccb4ac-d9bc-44fc-b08e-8d9e0a7b0693"
        }
      }
    },
    {
      "fullUrl": "urn:uuid:e1ee2c35-1d0b-416e-ba8f-0e66b22d0a22",
      "resource": {
        "resourceType": "Observation",
        "id": "e1ee2c35-1d0b-416e-ba8f-0e66b22d0a22",
        "meta": {
          "profile": [
            "http://hl7.eu/fhir/laboratory/StructureDefinition/Observation-resultslab-eu-lab"
          ]
        },
        "performer": [
          {
            "display": "The Central European Lab"
          }
        ],
        "category": [
          {
            "coding": [
              {
                "system": "http://terminology.hl7.org/CodeSystem/observation-category",
                "code": "laboratory"
              }
            ]
          }
        ],
        "code": {
          "coding": [
            {
              "code": "5811-5",
              "system": "http://loinc.org",
              "display": "Specific gravity of Urine by Test strip"
            }
          ],
          "text": "Specific gravity of Urine by Test strip"
        },
        "valueQuantity": {
          "system": "http://unitsofmeasure.org",
          "value": 1,
          "unit": "{nominal}",
          "code": "{nominal}"
        },
        "referenceRange": [
          {
            "low": {
              "value": 1.01,
              "code": "g/mL",
              "system": "http://unitsofmeasure.org"
            }
          },
          {
            "high": {
              "value": 1.03,
              "code": "g/mL",
              "system": "http://unitsofmeasure.org"
            }
          }
        ],
        "interpretation": [
          {
            "coding": [
              {
                "code": "L",
                "system": "http://terminology.hl7.org/CodeSystem/v3-ObservationInterpretation",
                "display": "Low"
              }
            ]
          }
        ],
        "text": {
          "status": "generated",
          "div": "<div xmlns=\"http://www.w3.org/1999/xhtml\"><table class=\"hl7__eu__lab__report\"><tr><th>Test</th><th>12-Apr-2024</th><th>Reference&#xA0;Range</th><th>Unit</th></tr><tr><td>Specific gravity of Urine by Test strip</td><td>1.0</td><td>1.01 - 1.03</td><td>L</td><td>{nominal}</td></tr></table></div>"
        },
        "status": "final",
        "subject": {
          "reference": "urn:uuid:e1137a91-714c-46c9-ada9-16a91fc7170b",
          "display": "Victor Lagarde"
        },
        "effectiveDateTime": "2024-04-12T04:48:18Z",
        "specimen": {
          "reference": "urn:uuid:63ccb4ac-d9bc-44fc-b08e-8d9e0a7b0693"
        }
      }
    },
    {
      "fullUrl": "urn:uuid:46f925b2-ac81-4306-b7b9-f7622d2a2453",
      "resource": {
        "resourceType": "Observation",
        "id": "46f925b2-ac81-4306-b7b9-f7622d2a2453",
        "meta": {
          "profile": [
            "http://hl7.eu/fhir/laboratory/StructureDefinition/Observation-resultslab-eu-lab"
          ]
        },
        "performer": [
          {
            "display": "The Central European Lab"
          }
        ],
        "category": [
          {
            "coding": [
              {
                "system": "http://terminology.hl7.org/CodeSystem/observation-category",
                "code": "laboratory"
              }
            ]
          }
        ],
        "code": {
          "coding": [
            {
              "code": "5803-2",
              "system": "http://loinc.org",
              "display": "pH of Urine by Test strip"
            }
          ],
          "text": "pH of Urine by Test strip"
        },
        "valueQuantity": {
          "system": "http://unitsofmeasure.org",
          "value": 5.3,
          "unit": "pH",
          "code": "pH"
        },
        "referenceRange": [
          {
            "low": {
              "value": 4.5,
              "code": "pH",
              "system": "http://unitsofmeasure.org"
            }
          },
          {
            "high": {
              "value": 7.5,
              "code": "pH",
              "system": "http://unitsofmeasure.org"
            }
          }
        ],
        "text": {
          "status": "generated",
          "div": "<div xmlns=\"http://www.w3.org/1999/xhtml\"><table class=\"hl7__eu__lab__report\"><tr><th>Test</th><th>12-Apr-2024</th><th>Reference&#xA0;Range</th><th>Unit</th></tr><tr><td>pH of Urine by Test strip</td><td>5.3</td><td>4.5 - 7.5</td><td></td><td>pH</td></tr></table></div>"
        },
        "status": "final",
        "subject": {
          "reference": "urn:uuid:e1137a91-714c-46c9-ada9-16a91fc7170b",
          "display": "Victor Lagarde"
        },
        "effectiveDateTime": "2024-04-12T04:48:18Z",
        "specimen": {
          "reference": "urn:uuid:63ccb4ac-d9bc-44fc-b08e-8d9e0a7b0693"
        }
      }
    },
    {
      "fullUrl": "urn:uuid:a721ee8a-eb56-4a3f-b085-1cea3d140e1e",
      "resource": {
        "resourceType": "Observation",
        "id": "a721ee8a-eb56-4a3f-b085-1cea3d140e1e",
        "meta": {
          "profile": [
            "http://hl7.eu/fhir/laboratory/StructureDefinition/Observation-resultslab-eu-lab"
          ]
        },
        "performer": [
          {
            "display": "The Central European Lab"
          }
        ],
        "category": [
          {
            "coding": [
              {
                "system": "http://terminology.hl7.org/CodeSystem/observation-category",
                "code": "laboratory"
              }
            ]
          }
        ],
        "code": {
          "coding": [
            {
              "code": "5804-0",
              "system": "http://loinc.org",
              "display": "Protein [Mass/volume] in Urine by Test strip"
            }
          ],
          "text": "Protein [Mass/volume] in Urine by Test strip"
        },
        "valueQuantity": {
          "system": "http://unitsofmeasure.org",
          "value": 355.3,
          "unit": "mg/dL",
          "code": "mg/dL"
        },
        "referenceRange": [
          {
            "low": {
              "value": 0,
              "code": "mg/dL",
              "system": "http://unitsofmeasure.org"
            }
          },
          {
            "high": {
              "value": 149,
              "code": "mg/dL",
              "system": "http://unitsofmeasure.org"
            }
          }
        ],
        "interpretation": [
          {
            "coding": [
              {
                "code": "H",
                "system": "http://terminology.hl7.org/CodeSystem/v3-ObservationInterpretation",
                "display": "High"
              }
            ]
          }
        ],
        "text": {
          "status": "generated",
          "div": "<div xmlns=\"http://www.w3.org/1999/xhtml\"><table class=\"hl7__eu__lab__report\"><tr><th>Test</th><th>12-Apr-2024</th><th>Reference&#xA0;Range</th><th>Unit</th></tr><tr><td>Protein [Mass/volume] in Urine by Test strip</td><td>355.3</td><td>0 - 149</td><td>H</td><td>mg/dL</td></tr></table></div>"
        },
        "status": "final",
        "subject": {
          "reference": "urn:uuid:e1137a91-714c-46c9-ada9-16a91fc7170b",
          "display": "Victor Lagarde"
        },
        "effectiveDateTime": "2024-04-12T04:48:18Z",
        "specimen": {
          "reference": "urn:uuid:63ccb4ac-d9bc-44fc-b08e-8d9e0a7b0693"
        }
      }
    },
    {
      "fullUrl": "urn:uuid:6b834e0b-037f-45bf-be2e-7b6d4adf871a",
      "resource": {
        "resourceType": "Observation",
        "id": "6b834e0b-037f-45bf-be2e-7b6d4adf871a",
        "meta": {
          "profile": [
            "http://hl7.eu/fhir/laboratory/StructureDefinition/Observation-resultslab-eu-lab"
          ]
        },
        "performer": [
          {
            "display": "The Central European Lab"
          }
        ],
        "category": [
          {
            "coding": [
              {
                "system": "http://terminology.hl7.org/CodeSystem/observation-category",
                "code": "laboratory"
              }
            ]
          }
        ],
        "code": {
          "coding": [
            {
              "code": "20454-5",
              "system": "http://loinc.org",
              "display": "Protein [Presence] in Urine by Test strip"
            }
          ],
          "text": "Protein [Presence] in Urine by Test strip"
        },
        "text": {
          "status": "generated",
          "div": "<div xmlns=\"http://www.w3.org/1999/xhtml\"><table class=\"hl7__eu__lab__report\"><tr><th>Test</th><th>12-Apr-2024</th><th>Reference&#xA0;Range</th><th>Unit</th></tr><tr><td>Protein [Presence] in Urine by Test strip</td></tr></table></div>"
        },
        "status": "final",
        "subject": {
          "reference": "urn:uuid:e1137a91-714c-46c9-ada9-16a91fc7170b",
          "display": "Victor Lagarde"
        },
        "effectiveDateTime": "2024-04-12T04:48:18Z",
        "specimen": {
          "reference": "urn:uuid:63ccb4ac-d9bc-44fc-b08e-8d9e0a7b0693"
        }
      }
    },
    {
      "fullUrl": "urn:uuid:a5c872c7-2061-488b-8785-85f154ea8a49",
      "resource": {
        "resourceType": "Observation",
        "id": "a5c872c7-2061-488b-8785-85f154ea8a49",
        "meta": {
          "profile": [
            "http://hl7.eu/fhir/laboratory/StructureDefinition/Observation-resultslab-eu-lab"
          ]
        },
        "performer": [
          {
            "display": "The Central European Lab"
          }
        ],
        "category": [
          {
            "coding": [
              {
                "system": "http://terminology.hl7.org/CodeSystem/observation-category",
                "code": "laboratory"
              }
            ]
          }
        ],
        "code": {
          "coding": [
            {
              "code": "5802-4",
              "system": "http://loinc.org",
              "display": "Nitrite [Presence] in Urine by Test strip"
            }
          ],
          "text": "Nitrite [Presence] in Urine by Test strip"
        },
        "text": {
          "status": "generated",
          "div": "<div xmlns=\"http://www.w3.org/1999/xhtml\"><table class=\"hl7__eu__lab__report\"><tr><th>Test</th><th>12-Apr-2024</th><th>Reference&#xA0;Range</th><th>Unit</th></tr><tr><td>Nitrite [Presence] in Urine by Test strip</td></tr></table></div>"
        },
        "status": "final",
        "subject": {
          "reference": "urn:uuid:e1137a91-714c-46c9-ada9-16a91fc7170b",
          "display": "Victor Lagarde"
        },
        "effectiveDateTime": "2024-04-12T04:48:18Z",
        "specimen": {
          "reference": "urn:uuid:63ccb4ac-d9bc-44fc-b08e-8d9e0a7b0693"
        }
      }
    },
    {
      "fullUrl": "urn:uuid:dc9666f9-ab07-4437-ab9d-d5851c85465c",
      "resource": {
        "resourceType": "Observation",
        "id": "dc9666f9-ab07-4437-ab9d-d5851c85465c",
        "meta": {
          "profile": [
            "http://hl7.eu/fhir/laboratory/StructureDefinition/Observation-resultslab-eu-lab"
          ]
        },
        "performer": [
          {
            "display": "The Central European Lab"
          }
        ],
        "category": [
          {
            "coding": [
              {
                "system": "http://terminology.hl7.org/CodeSystem/observation-category",
                "code": "laboratory"
              }
            ]
          }
        ],
        "code": {
          "coding": [
            {
              "code": "5794-3",
              "system": "http://loinc.org",
              "display": "Hemoglobin [Presence] in Urine by Test strip"
            }
          ],
          "text": "Hemoglobin [Presence] in Urine by Test strip"
        },
        "text": {
          "status": "generated",
          "div": "<div xmlns=\"http://www.w3.org/1999/xhtml\"><table class=\"hl7__eu__lab__report\"><tr><th>Test</th><th>12-Apr-2024</th><th>Reference&#xA0;Range</th><th>Unit</th></tr><tr><td>Hemoglobin [Presence] in Urine by Test strip</td></tr></table></div>"
        },
        "status": "final",
        "subject": {
          "reference": "urn:uuid:e1137a91-714c-46c9-ada9-16a91fc7170b",
          "display": "Victor Lagarde"
        },
        "effectiveDateTime": "2024-04-12T04:48:18Z",
        "specimen": {
          "reference": "urn:uuid:63ccb4ac-d9bc-44fc-b08e-8d9e0a7b0693"
        }
      }
    },
    {
      "fullUrl": "urn:uuid:2b5067af-a4ae-4580-8769-503cce54666e",
      "resource": {
        "resourceType": "Observation",
        "id": "2b5067af-a4ae-4580-8769-503cce54666e",
        "meta": {
          "profile": [
            "http://hl7.eu/fhir/laboratory/StructureDefinition/Observation-resultslab-eu-lab"
          ]
        },
        "performer": [
          {
            "display": "The Central European Lab"
          }
        ],
        "category": [
          {
            "coding": [
              {
                "system": "http://terminology.hl7.org/CodeSystem/observation-category",
                "code": "laboratory"
              }
            ]
          }
        ],
        "code": {
          "coding": [
            {
              "code": "5799-2",
              "system": "http://loinc.org",
              "display": "Leukocyte esterase [Presence] in Urine by Test strip"
            }
          ],
          "text": "Leukocyte esterase [Presence] in Urine by Test strip"
        },
        "text": {
          "status": "generated",
          "div": "<div xmlns=\"http://www.w3.org/1999/xhtml\"><table class=\"hl7__eu__lab__report\"><tr><th>Test</th><th>12-Apr-2024</th><th>Reference&#xA0;Range</th><th>Unit</th></tr><tr><td>Leukocyte esterase [Presence] in Urine by Test strip</td></tr></table></div>"
        },
        "status": "final",
        "subject": {
          "reference": "urn:uuid:e1137a91-714c-46c9-ada9-16a91fc7170b",
          "display": "Victor Lagarde"
        },
        "effectiveDateTime": "2024-04-12T04:48:18Z",
        "specimen": {
          "reference": "urn:uuid:63ccb4ac-d9bc-44fc-b08e-8d9e0a7b0693"
        }
      }
    },
    {
      "fullUrl": "urn:uuid:c28bb0bd-005d-4542-a8df-f9e5564e861a",
      "resource": {
        "resourceType": "Observation",
        "id": "c28bb0bd-005d-4542-a8df-f9e5564e861a",
        "meta": {
          "profile": [
            "http://hl7.eu/fhir/laboratory/StructureDefinition/Observation-resultslab-eu-lab"
          ]
        },
        "performer": [
          {
            "display": "The Central European Lab"
          }
        ],
        "category": [
          {
            "coding": [
              {
                "system": "http://terminology.hl7.org/CodeSystem/observation-category",
                "code": "laboratory"
              }
            ]
          }
        ],
        "code": {
          "coding": [
            {
              "code": "4548-4",
              "system": "http://loinc.org",
              "display": "Hemoglobin A1c/Hemoglobin.total in Blood"
            }
          ],
          "text": "Hemoglobin A1c/Hemoglobin.total in Blood"
        },
        "valueQuantity": {
          "system": "http://unitsofmeasure.org",
          "value": 2.8,
          "unit": "%",
          "code": "%"
        },
        "referenceRange": [
          {
            "low": {
              "value": 4.3,
              "code": "%",
              "system": "http://unitsofmeasure.org"
            }
          },
          {
            "high": {
              "value": 6,
              "code": "%",
              "system": "http://unitsofmeasure.org"
            }
          }
        ],
        "interpretation": [
          {
            "coding": [
              {
                "code": "L",
                "system": "http://terminology.hl7.org/CodeSystem/v3-ObservationInterpretation",
                "display": "Low"
              }
            ]
          }
        ],
        "text": {
          "status": "generated",
          "div": "<div xmlns=\"http://www.w3.org/1999/xhtml\"><table class=\"hl7__eu__lab__report\"><tr><th>Test</th><th>12-Apr-2024</th><th>Reference&#xA0;Range</th><th>Unit</th></tr><tr><td>Hemoglobin A1c/Hemoglobin.total in Blood</td><td>2.8</td><td>4.3 - 6</td><td>L</td><td>%</td></tr></table></div>"
        },
        "status": "final",
        "subject": {
          "reference": "urn:uuid:e1137a91-714c-46c9-ada9-16a91fc7170b",
          "display": "Victor Lagarde"
        },
        "effectiveDateTime": "2024-04-12T04:48:18Z",
        "specimen": {
          "reference": "urn:uuid:15aeea6b-058e-45a5-8d95-95059eca9560"
        }
      }
    },
    {
      "fullUrl": "urn:uuid:d6335b1b-8c9d-4da2-bedc-72df95ebefeb",
      "resource": {
        "resourceType": "Device",
        "id": "d6335b1b-8c9d-4da2-bedc-72df95ebefeb",
        "deviceName": [
          {
            "name": "SYNDERAI Synthetic Generator",
            "type": "manufacturer-name"
          }
        ],
        "version": [
          {
            "value": "5.0"
          }
        ],
        "text": {
          "status": "generated",
          "div": "<div xmlns=\"http://www.w3.org/1999/xhtml\">SYNDERAI Synthetic Generator v5.0</div>"
        },
        "status": "active\"",
        "distinctIdentifier": "synderai-generator-50",
        "manufacturer": "SYNDERAI Project"
      }
    },
    {
      "fullUrl": "urn:uuid:63064e4e-1e3d-4250-9bf9-69a757366c19",
      "resource": {
        "resourceType": "Provenance",
        "id": "63064e4e-1e3d-4250-9bf9-69a757366c19",
        "target": [
          {
            "reference": "Patient/e1137a91-714c-46c9-ada9-16a91fc7170b"
          },
          {
            "reference": "Bundle/655cf3e0-c715-46be-bbc5-5c1dcca58037"
          },
          {
            "reference": "Composition/3bb9c52c-bb51-438e-8431-f8bc503ca217"
          },
          {
            "reference": "PractitionerRole/0a7845d5-06a8-49f7-8b82-d2616db2b1f0"
          },
          {
            "reference": "Practitioner/3425e486-1540-4be8-80b4-8bec3a8f0d40"
          },
          {
            "reference": "PractitionerRole/70919663-cd18-450c-b6c9-5dbbce805ab1"
          },
          {
            "reference": "Organization/3f4901d3-e072-4e25-a970-d206c667b9d3"
          }
        ],
        "activity": {
          "text": "Synthetic Example Data Generation"
        },
        "policy": [
          "https://synderai.net/synderai-synthetic-data-policy"
        ],
        "agent": [
          {
            "type": {
              "text": "author"
            },
            "who": {
              "reference": "Device/d6335b1b-8c9d-4da2-bedc-72df95ebefeb"
            }
          }
        ],
        "reason": [
          {
            "text": "Interoperability Testing and Training (non-clinical use)"
          }
        ],
        "text": {
          "status": "generated",
          "div": "<div xmlns=\"http://www.w3.org/1999/xhtml\">Provenance for SYNDERAI Synthetic Example Data Resource</div>"
        },
        "recorded": "2024-04-12T06:48:18Z"
      }
    },
    {
      "fullUrl": "urn:uuid:0a7845d5-06a8-49f7-8b82-d2616db2b1f0",
      "resource": {
        "resourceType": "PractitionerRole",
        "id": "0a7845d5-06a8-49f7-8b82-d2616db2b1f0",
        "meta": {
          "profile": [
            "http://hl7.eu/fhir/base/StructureDefinition/practitionerRole-eu"
          ]
        },
        "text": {
          "status": "generated",
          "div": "<div xmlns=\"http://www.w3.org/1999/xhtml\">Laboratory Role Id: 0a7845d5-06a8-49f7-8b82-d2616db2b1f0</div>"
        },
        "practitioner": {
          "reference": "urn:uuid:3425e486-1540-4be8-80b4-8bec3a8f0d40"
        }
      }
    },
    {
      "fullUrl": "urn:uuid:3425e486-1540-4be8-80b4-8bec3a8f0d40",
      "resource": {
        "resourceType": "Practitioner",
        "id": "3425e486-1540-4be8-80b4-8bec3a8f0d40",
        "meta": {
          "profile": [
            "http://hl7.eu/fhir/base/StructureDefinition/practitioner-eu"
          ]
        },
        "identifier": [
          {
            "assigner": {
              "display": "HL7 Europe"
            },
            "system": "urn:oid:2.16.840.1.113883.2.51.999",
            "value": "64e96b68-fb90-46a9-9e2f-a245fa5cdec5"
          }
        ],
        "name": [
          {
            "prefix": [
              "dr"
            ],
            "given": [
              "Ex"
            ],
            "family": "Ample"
          }
        ],
        "address": [
          {
            "line": [
              "Laboratoire Central Européenne",
              "Boulevard du Jardin Botanique 32"
            ],
            "postalCode": "1000",
            "city": "Brussels",
            "country": "Belgium"
          }
        ],
        "text": {
          "status": "generated",
          "div": "<div xmlns=\"http://www.w3.org/1999/xhtml\">Laboratory: Laboratoire Central Européenne, 1000 Brussels, Belgium</div>"
        }
      }
    }
  ],
  "type": "document",
  "timestamp": "2024-04-12T06:48:18Z"
}
