{
  "resourceType": "Bundle",
  "id": "4e158251-ddc4-468b-a492-3a8038a8c458",
  "meta": {
    "profile": [
      "http://hl7.eu/fhir/laboratory/StructureDefinition/Bundle-eu-lab"
    ]
  },
  "identifier": {
    "assigner": {
      "display": "HL7 Europe"
    },
    "system": "urn:oid:2.16.840.1.113883.2.51.999",
    "value": "1b09b492-0175-4f88-a534-6cea35b2e263"
  },
  "entry": [
    {
      "fullUrl": "urn:uuid:a9d2d412-47cb-454a-a0d2-a632b710e228",
      "resource": {
        "resourceType": "Composition",
        "id": "a9d2d412-47cb-454a-a0d2-a632b710e228",
        "meta": {
          "profile": [
            "http://hl7.eu/fhir/laboratory/StructureDefinition/Composition-eu-lab"
          ]
        },
        "identifier": {
          "assigner": {
            "display": "HL7 Europe"
          },
          "system": "urn:oid:2.16.840.1.113883.2.51.999",
          "value": "478fcb48-e1e6-4796-8197-6d4baba7722d"
        },
        "author": [
          {
            "reference": "urn:uuid:745f0dcc-e310-4109-a72d-3018f1781b16"
          }
        ],
        "category": [
          {
            "coding": [
              {
                "code": "26436-6",
                "system": "http://loinc.org",
                "display": "Laboratory studies (set)"
              }
            ]
          }
        ],
        "type": {
          "coding": [
            {
              "code": "11502-2",
              "system": "http://loinc.org",
              "display": "Laboratory report"
            }
          ],
          "text": "Laboratory Report"
        },
        "section": [
          {
            "code": {
              "coding": [
                {
                  "code": "26436-6",
                  "system": "http://loinc.org",
                  "display": "Laboratory studies (set)"
                }
              ],
              "text": "Laboratory studies"
            },
            "section": [
              {
                "code": {
                  "coding": [
                    {
                      "code": "$18719-5",
                      "system": "http://loinc.org",
                      "display": "Chemistry studies (set)"
                    }
                  ],
                  "text": "Chemistry"
                },
                "entry": [
                  {
                    "reference": "urn:uuid:3745a7b0-ec71-41a9-b5d8-8d77b495a879"
                  },
                  {
                    "reference": "urn:uuid:1e7a63e7-1433-422e-95e2-ad8771b1f861"
                  },
                  {
                    "reference": "urn:uuid:26f31639-9cdb-4c7e-88d8-9606045cddc7"
                  },
                  {
                    "reference": "urn:uuid:d08cb4bc-ccc0-4744-8dd6-92a4bf522d79"
                  },
                  {
                    "reference": "urn:uuid:38b19852-2133-400a-b0c5-2a0a57c319a2"
                  },
                  {
                    "reference": "urn:uuid:64d67609-de8e-4859-80bc-3324039c94a5"
                  },
                  {
                    "reference": "urn:uuid:6ad5d06e-0e4d-4f95-b23d-56edf9d58fb3"
                  },
                  {
                    "reference": "urn:uuid:c3023573-9090-4a80-8dc2-28a17ea3ec32"
                  },
                  {
                    "reference": "urn:uuid:7075327c-80e4-47e9-8cb4-61efaa1ea9fa"
                  }
                ],
                "text": {
                  "status": "generated",
                  "div": "<div xmlns=\"http://www.w3.org/1999/xhtml\"><h3>Chemistry</h3><table class=\"hl7__eu__lab__report\"><thead><tr><th>Test</th><th>22-MAY-2019</th><th>Reference&#xA0;Range</th><th>Unit</th></tr></thead><tbody><tr><td>Hemoglobin A1c/Hemoglobin.total in Blood</td><td>6.2</td><td>4.5 - 6.4</td><td>%</td></tr><tr><td>Glucose [Mass/volume] in Blood</td><td>71.7</td><td>70 - 140</td><td>mg/dL</td></tr><tr><td>Urea nitrogen [Mass/volume] in Blood</td><td>17.9</td><td>7 - 20</td><td>mg/dL</td></tr><tr><td>Creatinine [Mass/volume] in Blood</td><td><strong>0.5 L</strong></td><td>0.6 - 1.1</td><td>mg/dL</td></tr><tr><td>Calcium [Mass/volume] in Blood</td><td>8.5</td><td>8.5 - 10.4</td><td>mg/dL</td></tr><tr><td>Sodium [Moles/volume] in Blood</td><td>141.2</td><td>135 - 145</td><td>mmol/L</td></tr><tr><td>Potassium [Moles/volume] in Blood</td><td>5.0</td><td>3.5 - 5.1</td><td>mmol/L</td></tr><tr><td>Chloride [Moles/volume] in Blood</td><td>103.0</td><td>98 - 107</td><td>mmol/L</td></tr><tr><td>Carbon dioxide, total [Moles/volume] in Blood</td><td>28.3</td><td>22 - 29</td><td>mmol/L</td></tr></tbody></table></div>"
                },
                "title": "Chemistry"
              }
            ],
            "title": "Laboratory Report"
          },
          {
            "text": {
              "status": "generated",
              "div": "<div xmlns=\"http://www.w3.org/1999/xhtml\"><h3>Annotation</h3><table class=\"hl7__eu__lab__report\"><tr><th>Conclusion and Recommendations based on this report and previous findings known to us</th></tr><tr><td>Laboratory results are largely within normal limits. HbA1c is at the upper end of normal, suggesting good glycemic control but close monitoring is advised. Creatinine is slightly below the reference range, which may be due to reduced muscle mass in elderly patients and is not typically concerning. No evidence of electrolyte imbalance or renal dysfunction. No acute abnormalities detected.</td></tr></table></div>"
            },
            "code": {
              "coding": [
                {
                  "system": "http://loinc.org",
                  "code": "48767-8",
                  "display": "Annotation comment"
                }
              ]
            },
            "title": "Annotation comment"
          }
        ],
        "status": "final",
        "subject": {
          "reference": "urn:uuid:784b877f-5994-4bc0-b46c-6fb918f58653",
          "display": "Magdolna Balog"
        },
        "date": "2019-05-22T15:34:16Z",
        "title": "Laboratory Report",
        "confidentiality": "N"
      }
    },
    {
      "fullUrl": "urn:uuid:b252f4ba-aa41-489d-8ea8-2c193e45875e",
      "resource": {
        "resourceType": "DiagnosticReport",
        "id": "b252f4ba-aa41-489d-8ea8-2c193e45875e",
        "meta": {
          "profile": [
            "http://hl7.eu/fhir/laboratory/StructureDefinition/DiagnosticReport-eu-lab"
          ]
        },
        "identifier": [
          {
            "assigner": {
              "display": "HL7 Europe"
            },
            "system": "urn:oid:2.16.840.1.113883.2.51.999",
            "value": "4f959cfa-c30e-48ca-98ab-2fb1b982debf"
          }
        ],
        "extension": [
          {
            "url": "http://hl7.org/fhir/5.0/StructureDefinition/extension-DiagnosticReport.composition",
            "valueReference": {
              "reference": "urn:uuid:478fcb48-e1e6-4796-8197-6d4baba7722d"
            }
          }
        ],
        "category": [
          {
            "coding": [
              {
                "code": "26436-6",
                "system": "http://loinc.org",
                "display": "Laboratory studies (set)"
              }
            ]
          }
        ],
        "specimen": [
          {
            "reference": "urn:uuid:fb254168-f3b2-4f54-831c-fe99ff47d134"
          }
        ],
        "result": [
          {
            "reference": "urn:uuid:3745a7b0-ec71-41a9-b5d8-8d77b495a879"
          },
          {
            "reference": "urn:uuid:1e7a63e7-1433-422e-95e2-ad8771b1f861"
          },
          {
            "reference": "urn:uuid:26f31639-9cdb-4c7e-88d8-9606045cddc7"
          },
          {
            "reference": "urn:uuid:d08cb4bc-ccc0-4744-8dd6-92a4bf522d79"
          },
          {
            "reference": "urn:uuid:38b19852-2133-400a-b0c5-2a0a57c319a2"
          },
          {
            "reference": "urn:uuid:64d67609-de8e-4859-80bc-3324039c94a5"
          },
          {
            "reference": "urn:uuid:6ad5d06e-0e4d-4f95-b23d-56edf9d58fb3"
          },
          {
            "reference": "urn:uuid:c3023573-9090-4a80-8dc2-28a17ea3ec32"
          },
          {
            "reference": "urn:uuid:7075327c-80e4-47e9-8cb4-61efaa1ea9fa"
          }
        ],
        "status": "registered",
        "code": {
          "coding": [
            {
              "code": "11502-2",
              "system": "http://loinc.org",
              "display": "Laboratory report"
            }
          ]
        },
        "subject": {
          "reference": "urn:uuid:784b877f-5994-4bc0-b46c-6fb918f58653",
          "display": "Magdolna Balog"
        }
      }
    },
    {
      "fullUrl": "urn:uuid:784b877f-5994-4bc0-b46c-6fb918f58653",
      "resource": {
        "resourceType": "Patient",
        "id": "784b877f-5994-4bc0-b46c-6fb918f58653",
        "meta": {
          "security": [
            {
              "system": "http://terminology.hl7.org/CodeSystem/v3-ActReason",
              "code": "HTEST"
            },
            {
              "system": "http://terminology.hl7.org/CodeSystem/v3-ActReason",
              "code": "TRAIN"
            }
          ],
          "tag": [
            {
              "system": "https://synderai.net/fhir/CodeSystem/tags",
              "code": "synthetic",
              "display": "SYNDERAI Synthetic data"
            }
          ],
          "profile": [
            "http://hl7.eu/fhir/base/StructureDefinition/patient-eu-core"
          ]
        },
        "identifier": [
          {
            "type": {
              "coding": [
                {
                  "code": "PT",
                  "system": "http://terminology.hl7.org/CodeSystem/v2-0203"
                }
              ]
            },
            "system": "http://ec.europa.eu/identifier/eci",
            "value": "2437-386280-4"
          },
          {
            "type": {
              "coding": [
                {
                  "code": "MR",
                  "system": "http://terminology.hl7.org/CodeSystem/v2-0203"
                }
              ]
            },
            "system": "http://local.setting.eu/identifier",
            "value": "1d8dc8c5-3a85-b1b5-4101-cca776d0be28"
          }
        ],
        "name": [
          {
            "family": "Balog"
          },
          {
            "given": [
              "Magdolna"
            ]
          },
          {
            "text": "Magdolna Balog"
          }
        ],
        "address": [
          {
            "line": [
              "Ady endre utca 160."
            ],
            "use": "home",
            "type": "physical",
            "postalCode": "3989",
            "city": "Némethídfa",
            "country": "Hungary"
          }
        ],
        "telecom": [
          {
            "system": "phone",
            "value": "+36 46 091-2914"
          }
        ],
        "extension": [
          {
            "url": "http://hl7.org/fhir/StructureDefinition/patient-nationality",
            "valueCodeableConcept": {
              "coding": [
                {
                  "code": "HU",
                  "system": "http://hl7.org/fhir/ValueSet/country"
                }
              ]
            }
          }
        ],
        "text": {
          "status": "generated",
          "div": "<div xmlns=\"http://www.w3.org/1999/xhtml\"><table class=\"hl7__ips\"><tr><td>Magdolna Balog</td><td>female</td><td>21-May-1946</td></tr></table></div>"
        },
        "gender": "female",
        "birthDate": "1946-05-21"
      }
    },
    {
      "fullUrl": "urn:uuid:0f97e165-63ae-42f3-867b-c43e5f70296e",
      "resource": {
        "resourceType": "ServiceRequest",
        "id": "0f97e165-63ae-42f3-867b-c43e5f70296e",
        "meta": {
          "profile": [
            "http://hl7.eu/fhir/laboratory/StructureDefinition/ServiceRequest-eu-lab"
          ]
        },
        "identifier": [
          {
            "system": "http://example.org",
            "value": "4461feba-c3e9-4ebf-9067-269541800ce4"
          }
        ],
        "specimen": [
          {
            "reference": "urn:uuid:fb254168-f3b2-4f54-831c-fe99ff47d134"
          }
        ],
        "reasonCode": [
          {
            "coding": [
              {
                "code": "26929004",
                "system": "http://snomed.info/sct",
                "display": "Alzheimer&#039;s disease"
              }
            ]
          },
          {
            "coding": [
              {
                "code": "414545008",
                "system": "http://snomed.info/sct",
                "display": "Ischemic heart disease"
              }
            ]
          },
          {
            "coding": [
              {
                "code": "49436004",
                "system": "http://snomed.info/sct",
                "display": "Atrial fibrillation"
              }
            ]
          },
          {
            "coding": [
              {
                "code": "64859006",
                "system": "http://snomed.info/sct",
                "display": "Osteoporosis"
              }
            ]
          },
          {
            "coding": [
              {
                "code": "15777000",
                "system": "http://snomed.info/sct",
                "display": "Prediabetes"
              }
            ]
          },
          {
            "coding": [
              {
                "code": "271737000",
                "system": "http://snomed.info/sct",
                "display": "Anemia"
              }
            ]
          }
        ],
        "status": "active",
        "intent": "order",
        "code": {
          "coding": [
            {
              "code": "108252007",
              "system": "http://snomed.info/sct",
              "display": "Laboratory procedure"
            }
          ]
        },
        "subject": {
          "reference": "urn:uuid:784b877f-5994-4bc0-b46c-6fb918f58653",
          "display": "Magdolna Balog"
        },
        "requester": {
          "reference": "urn:uuid:0e6fcac0-5bf4-4c1c-b310-d8ca1d7308de"
        }
      }
    },
    {
      "fullUrl": "urn:uuid:0e6fcac0-5bf4-4c1c-b310-d8ca1d7308de",
      "resource": {
        "resourceType": "PractitionerRole",
        "id": "0e6fcac0-5bf4-4c1c-b310-d8ca1d7308de",
        "meta": {
          "profile": [
            "http://hl7.eu/fhir/base/StructureDefinition/practitionerRole-eu"
          ]
        },
        "text": {
          "status": "generated",
          "div": "<div xmlns=\"http://www.w3.org/1999/xhtml\">Provider Role Id: 0e6fcac0-5bf4-4c1c-b310-d8ca1d7308de</div>"
        },
        "organization": {
          "reference": "urn:uuid:a0789924-d0ca-4b3b-bc35-c9bae3614b10"
        }
      }
    },
    {
      "fullUrl": "urn:uuid:a0789924-d0ca-4b3b-bc35-c9bae3614b10",
      "resource": {
        "resourceType": "Organization",
        "id": "a0789924-d0ca-4b3b-bc35-c9bae3614b10",
        "meta": {
          "profile": [
            "http://hl7.eu/fhir/base/StructureDefinition/organization-eu"
          ]
        },
        "identifier": [
          {
            "assigner": {
              "display": "HL7 Europe"
            },
            "system": "urn:oid:2.16.840.1.113883.2.51.999",
            "value": "b1de4c19-bbd7-41d4-af84-59412b37d1fd"
          }
        ],
        "address": [
          {
            "line": [
              "Csabai kapu 9-11"
            ],
            "city": "Miskolc",
            "postalCode": "3529",
            "country": "Hungary"
          }
        ],
        "text": {
          "status": "generated",
          "div": "<div xmlns=\"http://www.w3.org/1999/xhtml\">Provider Organization: Semmelweis Ignác Egészségügyi Központ és Egyetemi Oktató Kórház</div>"
        },
        "name": "Semmelweis Ignác Egészségügyi Központ és Egyetemi Oktató Kórház"
      }
    },
    {
      "fullUrl": "urn:uuid:fb254168-f3b2-4f54-831c-fe99ff47d134",
      "resource": {
        "resourceType": "Specimen",
        "id": "fb254168-f3b2-4f54-831c-fe99ff47d134",
        "meta": {
          "profile": [
            "http://hl7.eu/fhir/laboratory/StructureDefinition/Specimen-eu-lab"
          ]
        },
        "collection": {
          "collectedDateTime": "2019-05-22"
        },
        "text": {
          "status": "generated",
          "div": "<div xmlns=\"http://www.w3.org/1999/xhtml\"><table class=\"hl7__eu__lab__report\"><tr><th>Specimen</th><th>Collection Date</th></tr><tr><td>Whole blood specimen (specimen)</td><td><span class=\"nb\">22-May-2019</span></td></tr></table></div>"
        },
        "type": {
          "coding": [
            {
              "code": "258580003",
              "system": "http://snomed.info/sct",
              "display": "Whole blood specimen (specimen)"
            }
          ]
        }
      }
    },
    {
      "fullUrl": "urn:uuid:3745a7b0-ec71-41a9-b5d8-8d77b495a879",
      "resource": {
        "resourceType": "Observation",
        "id": "3745a7b0-ec71-41a9-b5d8-8d77b495a879",
        "meta": {
          "profile": [
            "http://hl7.eu/fhir/laboratory/StructureDefinition/Observation-resultslab-eu-lab"
          ]
        },
        "performer": [
          {
            "display": "The Central European Lab"
          }
        ],
        "category": [
          {
            "coding": [
              {
                "system": "http://terminology.hl7.org/CodeSystem/observation-category",
                "code": "laboratory"
              }
            ]
          }
        ],
        "code": {
          "coding": [
            {
              "code": "4548-4",
              "system": "http://loinc.org",
              "display": "Hemoglobin A1c/Hemoglobin.total in Blood"
            }
          ],
          "text": "Hemoglobin A1c/Hemoglobin.total in Blood"
        },
        "valueQuantity": {
          "system": "http://unitsofmeasure.org",
          "value": 6.2,
          "unit": "%",
          "code": "%"
        },
        "referenceRange": [
          {
            "low": {
              "value": 4.5,
              "code": "%",
              "system": "http://unitsofmeasure.org"
            }
          },
          {
            "high": {
              "value": 6.4,
              "code": "%",
              "system": "http://unitsofmeasure.org"
            }
          }
        ],
        "text": {
          "status": "generated",
          "div": "<div xmlns=\"http://www.w3.org/1999/xhtml\"><table class=\"hl7__eu__lab__report\"><tr><th>Test</th><th>22-May-2019</th><th>Reference&#xA0;Range</th><th>Unit</th></tr><tr><td>Hemoglobin A1c/Hemoglobin.total in Blood</td><td>6.2</td><td>4.5 - 6.4</td><td></td><td>%</td></tr></table></div>"
        },
        "status": "final",
        "subject": {
          "reference": "urn:uuid:784b877f-5994-4bc0-b46c-6fb918f58653",
          "display": "Magdolna Balog"
        },
        "effectiveDateTime": "2019-05-22T13:34:16Z",
        "specimen": {
          "reference": "urn:uuid:fb254168-f3b2-4f54-831c-fe99ff47d134"
        }
      }
    },
    {
      "fullUrl": "urn:uuid:1e7a63e7-1433-422e-95e2-ad8771b1f861",
      "resource": {
        "resourceType": "Observation",
        "id": "1e7a63e7-1433-422e-95e2-ad8771b1f861",
        "meta": {
          "profile": [
            "http://hl7.eu/fhir/laboratory/StructureDefinition/Observation-resultslab-eu-lab"
          ]
        },
        "performer": [
          {
            "display": "The Central European Lab"
          }
        ],
        "category": [
          {
            "coding": [
              {
                "system": "http://terminology.hl7.org/CodeSystem/observation-category",
                "code": "laboratory"
              }
            ]
          }
        ],
        "code": {
          "coding": [
            {
              "code": "2339-0",
              "system": "http://loinc.org",
              "display": "Glucose [Mass/volume] in Blood"
            }
          ],
          "text": "Glucose [Mass/volume] in Blood"
        },
        "valueQuantity": {
          "system": "http://unitsofmeasure.org",
          "value": 71.7,
          "unit": "mg/dL",
          "code": "mg/dL"
        },
        "referenceRange": [
          {
            "low": {
              "value": 70,
              "code": "mg/dL",
              "system": "http://unitsofmeasure.org"
            }
          },
          {
            "high": {
              "value": 140,
              "code": "mg/dL",
              "system": "http://unitsofmeasure.org"
            }
          }
        ],
        "text": {
          "status": "generated",
          "div": "<div xmlns=\"http://www.w3.org/1999/xhtml\"><table class=\"hl7__eu__lab__report\"><tr><th>Test</th><th>22-May-2019</th><th>Reference&#xA0;Range</th><th>Unit</th></tr><tr><td>Glucose [Mass/volume] in Blood</td><td>71.7</td><td>70 - 140</td><td></td><td>mg/dL</td></tr></table></div>"
        },
        "status": "final",
        "subject": {
          "reference": "urn:uuid:784b877f-5994-4bc0-b46c-6fb918f58653",
          "display": "Magdolna Balog"
        },
        "effectiveDateTime": "2019-05-22T13:34:16Z",
        "specimen": {
          "reference": "urn:uuid:fb254168-f3b2-4f54-831c-fe99ff47d134"
        }
      }
    },
    {
      "fullUrl": "urn:uuid:26f31639-9cdb-4c7e-88d8-9606045cddc7",
      "resource": {
        "resourceType": "Observation",
        "id": "26f31639-9cdb-4c7e-88d8-9606045cddc7",
        "meta": {
          "profile": [
            "http://hl7.eu/fhir/laboratory/StructureDefinition/Observation-resultslab-eu-lab"
          ]
        },
        "performer": [
          {
            "display": "The Central European Lab"
          }
        ],
        "category": [
          {
            "coding": [
              {
                "system": "http://terminology.hl7.org/CodeSystem/observation-category",
                "code": "laboratory"
              }
            ]
          }
        ],
        "code": {
          "coding": [
            {
              "code": "6299-2",
              "system": "http://loinc.org",
              "display": "Urea nitrogen [Mass/volume] in Blood"
            }
          ],
          "text": "Urea nitrogen [Mass/volume] in Blood"
        },
        "valueQuantity": {
          "system": "http://unitsofmeasure.org",
          "value": 17.9,
          "unit": "mg/dL",
          "code": "mg/dL"
        },
        "referenceRange": [
          {
            "low": {
              "value": 7,
              "code": "mg/dL",
              "system": "http://unitsofmeasure.org"
            }
          },
          {
            "high": {
              "value": 20,
              "code": "mg/dL",
              "system": "http://unitsofmeasure.org"
            }
          }
        ],
        "text": {
          "status": "generated",
          "div": "<div xmlns=\"http://www.w3.org/1999/xhtml\"><table class=\"hl7__eu__lab__report\"><tr><th>Test</th><th>22-May-2019</th><th>Reference&#xA0;Range</th><th>Unit</th></tr><tr><td>Urea nitrogen [Mass/volume] in Blood</td><td>17.9</td><td>7 - 20</td><td></td><td>mg/dL</td></tr></table></div>"
        },
        "status": "final",
        "subject": {
          "reference": "urn:uuid:784b877f-5994-4bc0-b46c-6fb918f58653",
          "display": "Magdolna Balog"
        },
        "effectiveDateTime": "2019-05-22T13:34:16Z",
        "specimen": {
          "reference": "urn:uuid:fb254168-f3b2-4f54-831c-fe99ff47d134"
        }
      }
    },
    {
      "fullUrl": "urn:uuid:d08cb4bc-ccc0-4744-8dd6-92a4bf522d79",
      "resource": {
        "resourceType": "Observation",
        "id": "d08cb4bc-ccc0-4744-8dd6-92a4bf522d79",
        "meta": {
          "profile": [
            "http://hl7.eu/fhir/laboratory/StructureDefinition/Observation-resultslab-eu-lab"
          ]
        },
        "performer": [
          {
            "display": "The Central European Lab"
          }
        ],
        "category": [
          {
            "coding": [
              {
                "system": "http://terminology.hl7.org/CodeSystem/observation-category",
                "code": "laboratory"
              }
            ]
          }
        ],
        "code": {
          "coding": [
            {
              "code": "38483-4",
              "system": "http://loinc.org",
              "display": "Creatinine [Mass/volume] in Blood"
            }
          ],
          "text": "Creatinine [Mass/volume] in Blood"
        },
        "valueQuantity": {
          "system": "http://unitsofmeasure.org",
          "value": 0.5,
          "unit": "mg/dL",
          "code": "mg/dL"
        },
        "referenceRange": [
          {
            "low": {
              "value": 0.6,
              "code": "mg/dL",
              "system": "http://unitsofmeasure.org"
            }
          },
          {
            "high": {
              "value": 1.1,
              "code": "mg/dL",
              "system": "http://unitsofmeasure.org"
            }
          }
        ],
        "interpretation": [
          {
            "coding": [
              {
                "code": "L",
                "system": "http://terminology.hl7.org/CodeSystem/v3-ObservationInterpretation",
                "display": "Low"
              }
            ]
          }
        ],
        "text": {
          "status": "generated",
          "div": "<div xmlns=\"http://www.w3.org/1999/xhtml\"><table class=\"hl7__eu__lab__report\"><tr><th>Test</th><th>22-May-2019</th><th>Reference&#xA0;Range</th><th>Unit</th></tr><tr><td>Creatinine [Mass/volume] in Blood</td><td>0.5</td><td>0.6 - 1.1</td><td>L</td><td>mg/dL</td></tr></table></div>"
        },
        "status": "final",
        "subject": {
          "reference": "urn:uuid:784b877f-5994-4bc0-b46c-6fb918f58653",
          "display": "Magdolna Balog"
        },
        "effectiveDateTime": "2019-05-22T13:34:16Z",
        "specimen": {
          "reference": "urn:uuid:fb254168-f3b2-4f54-831c-fe99ff47d134"
        }
      }
    },
    {
      "fullUrl": "urn:uuid:38b19852-2133-400a-b0c5-2a0a57c319a2",
      "resource": {
        "resourceType": "Observation",
        "id": "38b19852-2133-400a-b0c5-2a0a57c319a2",
        "meta": {
          "profile": [
            "http://hl7.eu/fhir/laboratory/StructureDefinition/Observation-resultslab-eu-lab"
          ]
        },
        "performer": [
          {
            "display": "The Central European Lab"
          }
        ],
        "category": [
          {
            "coding": [
              {
                "system": "http://terminology.hl7.org/CodeSystem/observation-category",
                "code": "laboratory"
              }
            ]
          }
        ],
        "code": {
          "coding": [
            {
              "code": "49765-1",
              "system": "http://loinc.org",
              "display": "Calcium [Mass/volume] in Blood"
            }
          ],
          "text": "Calcium [Mass/volume] in Blood"
        },
        "valueQuantity": {
          "system": "http://unitsofmeasure.org",
          "value": 8.5,
          "unit": "mg/dL",
          "code": "mg/dL"
        },
        "referenceRange": [
          {
            "low": {
              "value": 8.5,
              "code": "mg/dL",
              "system": "http://unitsofmeasure.org"
            }
          },
          {
            "high": {
              "value": 10.4,
              "code": "mg/dL",
              "system": "http://unitsofmeasure.org"
            }
          }
        ],
        "text": {
          "status": "generated",
          "div": "<div xmlns=\"http://www.w3.org/1999/xhtml\"><table class=\"hl7__eu__lab__report\"><tr><th>Test</th><th>22-May-2019</th><th>Reference&#xA0;Range</th><th>Unit</th></tr><tr><td>Calcium [Mass/volume] in Blood</td><td>8.5</td><td>8.5 - 10.4</td><td></td><td>mg/dL</td></tr></table></div>"
        },
        "status": "final",
        "subject": {
          "reference": "urn:uuid:784b877f-5994-4bc0-b46c-6fb918f58653",
          "display": "Magdolna Balog"
        },
        "effectiveDateTime": "2019-05-22T13:34:16Z",
        "specimen": {
          "reference": "urn:uuid:fb254168-f3b2-4f54-831c-fe99ff47d134"
        }
      }
    },
    {
      "fullUrl": "urn:uuid:64d67609-de8e-4859-80bc-3324039c94a5",
      "resource": {
        "resourceType": "Observation",
        "id": "64d67609-de8e-4859-80bc-3324039c94a5",
        "meta": {
          "profile": [
            "http://hl7.eu/fhir/laboratory/StructureDefinition/Observation-resultslab-eu-lab"
          ]
        },
        "performer": [
          {
            "display": "The Central European Lab"
          }
        ],
        "category": [
          {
            "coding": [
              {
                "system": "http://terminology.hl7.org/CodeSystem/observation-category",
                "code": "laboratory"
              }
            ]
          }
        ],
        "code": {
          "coding": [
            {
              "code": "2947-0",
              "system": "http://loinc.org",
              "display": "Sodium [Moles/volume] in Blood"
            }
          ],
          "text": "Sodium [Moles/volume] in Blood"
        },
        "valueQuantity": {
          "system": "http://unitsofmeasure.org",
          "value": 141.2,
          "unit": "mmol/L",
          "code": "mmol/L"
        },
        "referenceRange": [
          {
            "low": {
              "value": 135,
              "code": "mmol/L",
              "system": "http://unitsofmeasure.org"
            }
          },
          {
            "high": {
              "value": 145,
              "code": "mmol/L",
              "system": "http://unitsofmeasure.org"
            }
          }
        ],
        "text": {
          "status": "generated",
          "div": "<div xmlns=\"http://www.w3.org/1999/xhtml\"><table class=\"hl7__eu__lab__report\"><tr><th>Test</th><th>22-May-2019</th><th>Reference&#xA0;Range</th><th>Unit</th></tr><tr><td>Sodium [Moles/volume] in Blood</td><td>141.2</td><td>135 - 145</td><td></td><td>mmol/L</td></tr></table></div>"
        },
        "status": "final",
        "subject": {
          "reference": "urn:uuid:784b877f-5994-4bc0-b46c-6fb918f58653",
          "display": "Magdolna Balog"
        },
        "effectiveDateTime": "2019-05-22T13:34:16Z",
        "specimen": {
          "reference": "urn:uuid:fb254168-f3b2-4f54-831c-fe99ff47d134"
        }
      }
    },
    {
      "fullUrl": "urn:uuid:6ad5d06e-0e4d-4f95-b23d-56edf9d58fb3",
      "resource": {
        "resourceType": "Observation",
        "id": "6ad5d06e-0e4d-4f95-b23d-56edf9d58fb3",
        "meta": {
          "profile": [
            "http://hl7.eu/fhir/laboratory/StructureDefinition/Observation-resultslab-eu-lab"
          ]
        },
        "performer": [
          {
            "display": "The Central European Lab"
          }
        ],
        "category": [
          {
            "coding": [
              {
                "system": "http://terminology.hl7.org/CodeSystem/observation-category",
                "code": "laboratory"
              }
            ]
          }
        ],
        "code": {
          "coding": [
            {
              "code": "6298-4",
              "system": "http://loinc.org",
              "display": "Potassium [Moles/volume] in Blood"
            }
          ],
          "text": "Potassium [Moles/volume] in Blood"
        },
        "valueQuantity": {
          "system": "http://unitsofmeasure.org",
          "value": 5,
          "unit": "mmol/L",
          "code": "mmol/L"
        },
        "referenceRange": [
          {
            "low": {
              "value": 3.5,
              "code": "mmol/L",
              "system": "http://unitsofmeasure.org"
            }
          },
          {
            "high": {
              "value": 5.1,
              "code": "mmol/L",
              "system": "http://unitsofmeasure.org"
            }
          }
        ],
        "text": {
          "status": "generated",
          "div": "<div xmlns=\"http://www.w3.org/1999/xhtml\"><table class=\"hl7__eu__lab__report\"><tr><th>Test</th><th>22-May-2019</th><th>Reference&#xA0;Range</th><th>Unit</th></tr><tr><td>Potassium [Moles/volume] in Blood</td><td>5.0</td><td>3.5 - 5.1</td><td></td><td>mmol/L</td></tr></table></div>"
        },
        "status": "final",
        "subject": {
          "reference": "urn:uuid:784b877f-5994-4bc0-b46c-6fb918f58653",
          "display": "Magdolna Balog"
        },
        "effectiveDateTime": "2019-05-22T13:34:16Z",
        "specimen": {
          "reference": "urn:uuid:fb254168-f3b2-4f54-831c-fe99ff47d134"
        }
      }
    },
    {
      "fullUrl": "urn:uuid:c3023573-9090-4a80-8dc2-28a17ea3ec32",
      "resource": {
        "resourceType": "Observation",
        "id": "c3023573-9090-4a80-8dc2-28a17ea3ec32",
        "meta": {
          "profile": [
            "http://hl7.eu/fhir/laboratory/StructureDefinition/Observation-resultslab-eu-lab"
          ]
        },
        "performer": [
          {
            "display": "The Central European Lab"
          }
        ],
        "category": [
          {
            "coding": [
              {
                "system": "http://terminology.hl7.org/CodeSystem/observation-category",
                "code": "laboratory"
              }
            ]
          }
        ],
        "code": {
          "coding": [
            {
              "code": "2069-3",
              "system": "http://loinc.org",
              "display": "Chloride [Moles/volume] in Blood"
            }
          ],
          "text": "Chloride [Moles/volume] in Blood"
        },
        "valueQuantity": {
          "system": "http://unitsofmeasure.org",
          "value": 103,
          "unit": "mmol/L",
          "code": "mmol/L"
        },
        "referenceRange": [
          {
            "low": {
              "value": 98,
              "code": "mmol/L",
              "system": "http://unitsofmeasure.org"
            }
          },
          {
            "high": {
              "value": 107,
              "code": "mmol/L",
              "system": "http://unitsofmeasure.org"
            }
          }
        ],
        "text": {
          "status": "generated",
          "div": "<div xmlns=\"http://www.w3.org/1999/xhtml\"><table class=\"hl7__eu__lab__report\"><tr><th>Test</th><th>22-May-2019</th><th>Reference&#xA0;Range</th><th>Unit</th></tr><tr><td>Chloride [Moles/volume] in Blood</td><td>103.0</td><td>98 - 107</td><td></td><td>mmol/L</td></tr></table></div>"
        },
        "status": "final",
        "subject": {
          "reference": "urn:uuid:784b877f-5994-4bc0-b46c-6fb918f58653",
          "display": "Magdolna Balog"
        },
        "effectiveDateTime": "2019-05-22T13:34:16Z",
        "specimen": {
          "reference": "urn:uuid:fb254168-f3b2-4f54-831c-fe99ff47d134"
        }
      }
    },
    {
      "fullUrl": "urn:uuid:7075327c-80e4-47e9-8cb4-61efaa1ea9fa",
      "resource": {
        "resourceType": "Observation",
        "id": "7075327c-80e4-47e9-8cb4-61efaa1ea9fa",
        "meta": {
          "profile": [
            "http://hl7.eu/fhir/laboratory/StructureDefinition/Observation-resultslab-eu-lab"
          ]
        },
        "performer": [
          {
            "display": "The Central European Lab"
          }
        ],
        "category": [
          {
            "coding": [
              {
                "system": "http://terminology.hl7.org/CodeSystem/observation-category",
                "code": "laboratory"
              }
            ]
          }
        ],
        "code": {
          "coding": [
            {
              "code": "20565-8",
              "system": "http://loinc.org",
              "display": "Carbon dioxide, total [Moles/volume] in Blood"
            }
          ],
          "text": "Carbon dioxide, total [Moles/volume] in Blood"
        },
        "valueQuantity": {
          "system": "http://unitsofmeasure.org",
          "value": 28.3,
          "unit": "mmol/L",
          "code": "mmol/L"
        },
        "referenceRange": [
          {
            "low": {
              "value": 22,
              "code": "mmol/L",
              "system": "http://unitsofmeasure.org"
            }
          },
          {
            "high": {
              "value": 29,
              "code": "mmol/L",
              "system": "http://unitsofmeasure.org"
            }
          }
        ],
        "text": {
          "status": "generated",
          "div": "<div xmlns=\"http://www.w3.org/1999/xhtml\"><table class=\"hl7__eu__lab__report\"><tr><th>Test</th><th>22-May-2019</th><th>Reference&#xA0;Range</th><th>Unit</th></tr><tr><td>Carbon dioxide, total [Moles/volume] in Blood</td><td>28.3</td><td>22 - 29</td><td></td><td>mmol/L</td></tr></table></div>"
        },
        "status": "final",
        "subject": {
          "reference": "urn:uuid:784b877f-5994-4bc0-b46c-6fb918f58653",
          "display": "Magdolna Balog"
        },
        "effectiveDateTime": "2019-05-22T13:34:16Z",
        "specimen": {
          "reference": "urn:uuid:fb254168-f3b2-4f54-831c-fe99ff47d134"
        }
      }
    },
    {
      "fullUrl": "urn:uuid:f53ca39a-3328-4a7a-8a1b-d8af23de2f46",
      "resource": {
        "resourceType": "Device",
        "id": "f53ca39a-3328-4a7a-8a1b-d8af23de2f46",
        "deviceName": [
          {
            "name": "SYNDERAI Synthetic Generator",
            "type": "manufacturer-name"
          }
        ],
        "version": [
          {
            "value": "5.0"
          }
        ],
        "text": {
          "status": "generated",
          "div": "<div xmlns=\"http://www.w3.org/1999/xhtml\">SYNDERAI Synthetic Generator v5.0</div>"
        },
        "status": "active\"",
        "distinctIdentifier": "synderai-generator-50",
        "manufacturer": "SYNDERAI Project"
      }
    },
    {
      "fullUrl": "urn:uuid:8da37a1b-f006-4be2-8579-94b4283c3e6e",
      "resource": {
        "resourceType": "Provenance",
        "id": "8da37a1b-f006-4be2-8579-94b4283c3e6e",
        "target": [
          {
            "reference": "Patient/784b877f-5994-4bc0-b46c-6fb918f58653"
          },
          {
            "reference": "Bundle/4e158251-ddc4-468b-a492-3a8038a8c458"
          },
          {
            "reference": "Composition/a9d2d412-47cb-454a-a0d2-a632b710e228"
          },
          {
            "reference": "PractitionerRole/745f0dcc-e310-4109-a72d-3018f1781b16"
          },
          {
            "reference": "Practitioner/82ba11a7-2b00-414a-a80e-24818e26a560"
          },
          {
            "reference": "PractitionerRole/0e6fcac0-5bf4-4c1c-b310-d8ca1d7308de"
          },
          {
            "reference": "Organization/a0789924-d0ca-4b3b-bc35-c9bae3614b10"
          }
        ],
        "activity": {
          "text": "Synthetic Example Data Generation"
        },
        "policy": [
          "https://synderai.net/synderai-synthetic-data-policy"
        ],
        "agent": [
          {
            "type": {
              "text": "author"
            },
            "who": {
              "reference": "Device/f53ca39a-3328-4a7a-8a1b-d8af23de2f46"
            }
          }
        ],
        "reason": [
          {
            "text": "Interoperability Testing and Training (non-clinical use)"
          }
        ],
        "text": {
          "status": "generated",
          "div": "<div xmlns=\"http://www.w3.org/1999/xhtml\">Provenance for SYNDERAI Synthetic Example Data Resource</div>"
        },
        "recorded": "2019-05-22T15:34:16Z"
      }
    },
    {
      "fullUrl": "urn:uuid:745f0dcc-e310-4109-a72d-3018f1781b16",
      "resource": {
        "resourceType": "PractitionerRole",
        "id": "745f0dcc-e310-4109-a72d-3018f1781b16",
        "meta": {
          "profile": [
            "http://hl7.eu/fhir/base/StructureDefinition/practitionerRole-eu"
          ]
        },
        "text": {
          "status": "generated",
          "div": "<div xmlns=\"http://www.w3.org/1999/xhtml\">Laboratory Role Id: 745f0dcc-e310-4109-a72d-3018f1781b16</div>"
        },
        "practitioner": {
          "reference": "urn:uuid:82ba11a7-2b00-414a-a80e-24818e26a560"
        }
      }
    },
    {
      "fullUrl": "urn:uuid:82ba11a7-2b00-414a-a80e-24818e26a560",
      "resource": {
        "resourceType": "Practitioner",
        "id": "82ba11a7-2b00-414a-a80e-24818e26a560",
        "meta": {
          "profile": [
            "http://hl7.eu/fhir/base/StructureDefinition/practitioner-eu"
          ]
        },
        "identifier": [
          {
            "assigner": {
              "display": "HL7 Europe"
            },
            "system": "urn:oid:2.16.840.1.113883.2.51.999",
            "value": "b29c7655-16e8-42c7-834e-fa9982329bcf"
          }
        ],
        "name": [
          {
            "prefix": [
              "dr"
            ],
            "given": [
              "Ex"
            ],
            "family": "Ample"
          }
        ],
        "address": [
          {
            "line": [
              "Laboratoire Central Européenne",
              "Boulevard du Jardin Botanique 32"
            ],
            "postalCode": "1000",
            "city": "Brussels",
            "country": "Belgium"
          }
        ],
        "text": {
          "status": "generated",
          "div": "<div xmlns=\"http://www.w3.org/1999/xhtml\">Laboratory: Laboratoire Central Européenne, 1000 Brussels, Belgium</div>"
        }
      }
    }
  ],
  "type": "document",
  "timestamp": "2019-05-22T15:34:16Z"
}
