{
  "resourceType": "Bundle",
  "id": "8c9d6e91-545c-42f9-8c2c-5275d559a16c",
  "meta": {
    "profile": [
      "http://hl7.eu/fhir/laboratory/StructureDefinition/Bundle-eu-lab"
    ]
  },
  "identifier": {
    "assigner": {
      "display": "HL7 Europe"
    },
    "system": "urn:oid:2.16.840.1.113883.2.51.999",
    "value": "208efc66-7c0e-4efc-ab8e-3b638c2f2ada"
  },
  "entry": [
    {
      "fullUrl": "urn:uuid:c1223a1e-228f-4168-bf58-cc8d7a5c5409",
      "resource": {
        "resourceType": "Composition",
        "id": "c1223a1e-228f-4168-bf58-cc8d7a5c5409",
        "meta": {
          "profile": [
            "http://hl7.eu/fhir/laboratory/StructureDefinition/Composition-eu-lab"
          ]
        },
        "identifier": {
          "assigner": {
            "display": "HL7 Europe"
          },
          "system": "urn:oid:2.16.840.1.113883.2.51.999",
          "value": "5b8f9982-3bf6-4f41-9204-2b28da557be7"
        },
        "author": [
          {
            "reference": "urn:uuid:0ebcbccf-d526-452e-a705-0e7fdb2d5af7"
          }
        ],
        "category": [
          {
            "coding": [
              {
                "code": "26436-6",
                "system": "http://loinc.org",
                "display": "Laboratory studies (set)"
              }
            ]
          }
        ],
        "type": {
          "coding": [
            {
              "code": "11502-2",
              "system": "http://loinc.org",
              "display": "Laboratory report"
            }
          ],
          "text": "Laboratory Report"
        },
        "section": [
          {
            "code": {
              "coding": [
                {
                  "code": "26436-6",
                  "system": "http://loinc.org",
                  "display": "Laboratory studies (set)"
                }
              ],
              "text": "Laboratory studies"
            },
            "section": [
              {
                "code": {
                  "coding": [
                    {
                      "code": "$18723-7",
                      "system": "http://loinc.org",
                      "display": "Hematology studies (set)"
                    }
                  ],
                  "text": "Hematology"
                },
                "entry": [
                  {
                    "reference": "urn:uuid:c795e593-89f3-4ddf-a238-f847cc5b2706"
                  },
                  {
                    "reference": "urn:uuid:88ebd885-cf22-4d1a-a512-bd2dafa6adb9"
                  },
                  {
                    "reference": "urn:uuid:2c4fdde7-8af3-455d-84fa-3064ce14a150"
                  },
                  {
                    "reference": "urn:uuid:77902df1-5cb4-4eb1-a198-cb298615d356"
                  },
                  {
                    "reference": "urn:uuid:ccd4fddd-7499-48e3-8cc3-7a5e36fbbcb3"
                  },
                  {
                    "reference": "urn:uuid:bf5a2287-57cb-469b-a93f-cc817709579c"
                  },
                  {
                    "reference": "urn:uuid:67c8e6b5-034a-429c-a315-3286dca993db"
                  },
                  {
                    "reference": "urn:uuid:d19ec220-7081-427a-b0a6-abbed0242e63"
                  },
                  {
                    "reference": "urn:uuid:51cfa901-e57c-499a-bbf2-7d20ca8db17f"
                  },
                  {
                    "reference": "urn:uuid:0871350b-33d9-49f6-ba24-7671215f4652"
                  },
                  {
                    "reference": "urn:uuid:d41f53d5-582b-479d-9df3-bfb1c63379e9"
                  }
                ],
                "text": {
                  "status": "generated",
                  "div": "<div xmlns=\"http://www.w3.org/1999/xhtml\"><h3>Hematology</h3><table class=\"hl7__eu__lab__report\"><thead><tr><th>Test</th><th>07-AUG-2015</th><th>Reference&#xA0;Range</th><th>Unit</th></tr></thead><tbody><tr><td>Leukocytes [#/volume] in Blood by Automated count</td><td>9.3</td><td>3.5 - 10.5</td><td>10*3/uL</td></tr><tr><td>Erythrocytes [#/volume] in Blood by Automated count</td><td>4.7</td><td>4.5 - 5.7</td><td>10*6/uL</td></tr><tr><td>Hemoglobin [Mass/volume] in Blood</td><td>15.9</td><td>13.5 - 17.5</td><td>g/dL</td></tr><tr><td>Hematocrit [Volume Fraction] of Blood by Automated count</td><td>43.3</td><td>38 - 50</td><td>%</td></tr><tr><td>MCV [Entitic volume] by Automated count</td><td>88.6</td><td>76 - 98</td><td>fL</td></tr><tr><td>MCH [Entitic mass] by Automated count</td><td>30.3</td><td>27 - 33</td><td>pg</td></tr><tr><td>MCHC [Mass/volume] by Automated count</td><td>33.5</td><td>31 - 35</td><td>g/dL</td></tr><tr><td>Erythrocyte distribution width [Entitic volume] by Automated count</td><td>43.7</td><td>36 - 55</td><td>fL</td></tr><tr><td>Platelets [#/volume] in Blood by Automated count</td><td>230.8</td><td>140 - 363</td><td>10*3/uL</td></tr><tr><td>Platelet distribution width [Entitic volume] in Blood by Automated count</td><td><strong>193.2 H</strong></td><td>11.6 - 17.4</td><td>fL</td></tr><tr><td>Platelet mean volume [Entitic volume] in Blood by Automated count</td><td>11.1</td><td>9.8 - 13.8</td><td>fL</td></tr></tbody></table></div>"
                },
                "title": "Hematology"
              },
              {
                "code": {
                  "coding": [
                    {
                      "code": "$18719-5",
                      "system": "http://loinc.org",
                      "display": "Chemistry studies (set)"
                    }
                  ],
                  "text": "Chemistry"
                },
                "entry": [
                  {
                    "reference": "urn:uuid:cdc995f5-6b0f-451e-9f76-454099c5e725"
                  },
                  {
                    "reference": "urn:uuid:bb4bc4da-2714-472e-a38b-a3f50646264d"
                  },
                  {
                    "reference": "urn:uuid:b4628102-db7d-416c-9f75-48af77d4936c"
                  },
                  {
                    "reference": "urn:uuid:29a8a84c-1f5d-4757-972b-8b52246ffaa1"
                  },
                  {
                    "reference": "urn:uuid:70c6d268-4aa1-492f-b090-71413cb827e1"
                  },
                  {
                    "reference": "urn:uuid:fcf8c8cf-df81-428c-90d1-a7da810bccc1"
                  },
                  {
                    "reference": "urn:uuid:934d8e73-9caa-4cf3-846e-cd0a4a84efd6"
                  },
                  {
                    "reference": "urn:uuid:27462a89-4a5d-46af-b83f-980cf6d0d082"
                  },
                  {
                    "reference": "urn:uuid:193acc58-0e85-4336-8554-e944937efdec"
                  }
                ],
                "text": {
                  "status": "generated",
                  "div": "<div xmlns=\"http://www.w3.org/1999/xhtml\"><h3>Chemistry</h3><table class=\"hl7__eu__lab__report\"><thead><tr><th>Test</th><th>07-AUG-2015</th><th>Reference&#xA0;Range</th><th>Unit</th></tr></thead><tbody><tr><td>Hemoglobin A1c/Hemoglobin.total in Blood</td><td><strong>6.2 H</strong></td><td>4.8 - 5.7</td><td>%</td></tr><tr><td>Glucose [Mass/volume] in Blood</td><td>84.9</td><td>70 - 140</td><td>mg/dL</td></tr><tr><td>Urea nitrogen [Mass/volume] in Blood</td><td>11.4</td><td>7 - 20</td><td>mg/dL</td></tr><tr><td>Creatinine [Mass/volume] in Blood</td><td>1.1</td><td>0.6 - 1.3</td><td>mg/dL</td></tr><tr><td>Calcium [Mass/volume] in Blood</td><td>9.7</td><td>8.5 - 10.5</td><td>mg/dL</td></tr><tr><td>Sodium [Moles/volume] in Blood</td><td>143.5</td><td>135 - 145</td><td>mmol/L</td></tr><tr><td>Potassium [Moles/volume] in Blood</td><td>4.7</td><td>3.5 - 5.1</td><td>mmol/L</td></tr><tr><td>Chloride [Moles/volume] in Blood</td><td><strong>109.8 H</strong></td><td>98 - 108</td><td>mmol/L</td></tr><tr><td>Carbon dioxide, total [Moles/volume] in Blood</td><td>24.9</td><td>22 - 32</td><td>mmol/L</td></tr></tbody></table></div>"
                },
                "title": "Chemistry"
              }
            ],
            "title": "Laboratory Report"
          },
          {
            "text": {
              "status": "generated",
              "div": "<div xmlns=\"http://www.w3.org/1999/xhtml\"><h3>Annotation</h3><table class=\"hl7__eu__lab__report\"><tr><th>Conclusion and Recommendations based on this report and previous findings known to us</th></tr><tr><td>The patient shows mildly elevated HbA1c, indicating impaired glucose metabolism or possible prediabetes, despite normal fasting glucose. Chloride is slightly elevated, which may reflect mild dehydration or metabolic changes but is not clinically significant in isolation. Platelet distribution width is high, suggesting increased platelet size variability, which can be seen in various conditions but requires correlation with clinical context. Other parameters, including renal function, electrolytes, and blood counts, are within normal limits. No acute laboratory abnormalities detected. Recommend monitoring glucose metabolism and clinical correlation for platelet findings.</td></tr></table></div>"
            },
            "code": {
              "coding": [
                {
                  "system": "http://loinc.org",
                  "code": "48767-8",
                  "display": "Annotation comment"
                }
              ]
            },
            "title": "Annotation comment"
          }
        ],
        "status": "final",
        "subject": {
          "reference": "urn:uuid:0b9527dd-82fc-460f-ab92-f81cecddbf45",
          "display": "Leonhard Köhler"
        },
        "date": "2015-08-07T04:48:23Z",
        "title": "Laboratory Report",
        "confidentiality": "N"
      }
    },
    {
      "fullUrl": "urn:uuid:c8145e63-187f-42a6-af3d-ddfc6ca32bf3",
      "resource": {
        "resourceType": "DiagnosticReport",
        "id": "c8145e63-187f-42a6-af3d-ddfc6ca32bf3",
        "meta": {
          "profile": [
            "http://hl7.eu/fhir/laboratory/StructureDefinition/DiagnosticReport-eu-lab"
          ]
        },
        "identifier": [
          {
            "assigner": {
              "display": "HL7 Europe"
            },
            "system": "urn:oid:2.16.840.1.113883.2.51.999",
            "value": "8beadcfa-10a3-4963-a92a-a73975dab5cb"
          }
        ],
        "extension": [
          {
            "url": "http://hl7.org/fhir/5.0/StructureDefinition/extension-DiagnosticReport.composition",
            "valueReference": {
              "reference": "urn:uuid:5b8f9982-3bf6-4f41-9204-2b28da557be7"
            }
          }
        ],
        "category": [
          {
            "coding": [
              {
                "code": "26436-6",
                "system": "http://loinc.org",
                "display": "Laboratory studies (set)"
              }
            ]
          }
        ],
        "specimen": [
          {
            "reference": "urn:uuid:9d2f2373-c167-4f9e-8946-dfb6bf72b2e3"
          },
          {
            "reference": "urn:uuid:9d2f2373-c167-4f9e-8946-dfb6bf72b2e3"
          }
        ],
        "result": [
          {
            "reference": "urn:uuid:cdc995f5-6b0f-451e-9f76-454099c5e725"
          },
          {
            "reference": "urn:uuid:bb4bc4da-2714-472e-a38b-a3f50646264d"
          },
          {
            "reference": "urn:uuid:b4628102-db7d-416c-9f75-48af77d4936c"
          },
          {
            "reference": "urn:uuid:29a8a84c-1f5d-4757-972b-8b52246ffaa1"
          },
          {
            "reference": "urn:uuid:70c6d268-4aa1-492f-b090-71413cb827e1"
          },
          {
            "reference": "urn:uuid:fcf8c8cf-df81-428c-90d1-a7da810bccc1"
          },
          {
            "reference": "urn:uuid:934d8e73-9caa-4cf3-846e-cd0a4a84efd6"
          },
          {
            "reference": "urn:uuid:27462a89-4a5d-46af-b83f-980cf6d0d082"
          },
          {
            "reference": "urn:uuid:193acc58-0e85-4336-8554-e944937efdec"
          },
          {
            "reference": "urn:uuid:c795e593-89f3-4ddf-a238-f847cc5b2706"
          },
          {
            "reference": "urn:uuid:88ebd885-cf22-4d1a-a512-bd2dafa6adb9"
          },
          {
            "reference": "urn:uuid:2c4fdde7-8af3-455d-84fa-3064ce14a150"
          },
          {
            "reference": "urn:uuid:77902df1-5cb4-4eb1-a198-cb298615d356"
          },
          {
            "reference": "urn:uuid:ccd4fddd-7499-48e3-8cc3-7a5e36fbbcb3"
          },
          {
            "reference": "urn:uuid:bf5a2287-57cb-469b-a93f-cc817709579c"
          },
          {
            "reference": "urn:uuid:67c8e6b5-034a-429c-a315-3286dca993db"
          },
          {
            "reference": "urn:uuid:d19ec220-7081-427a-b0a6-abbed0242e63"
          },
          {
            "reference": "urn:uuid:51cfa901-e57c-499a-bbf2-7d20ca8db17f"
          },
          {
            "reference": "urn:uuid:0871350b-33d9-49f6-ba24-7671215f4652"
          },
          {
            "reference": "urn:uuid:d41f53d5-582b-479d-9df3-bfb1c63379e9"
          }
        ],
        "status": "registered",
        "code": {
          "coding": [
            {
              "code": "11502-2",
              "system": "http://loinc.org",
              "display": "Laboratory report"
            }
          ]
        },
        "subject": {
          "reference": "urn:uuid:0b9527dd-82fc-460f-ab92-f81cecddbf45",
          "display": "Leonhard Köhler"
        }
      }
    },
    {
      "fullUrl": "urn:uuid:0b9527dd-82fc-460f-ab92-f81cecddbf45",
      "resource": {
        "resourceType": "Patient",
        "id": "0b9527dd-82fc-460f-ab92-f81cecddbf45",
        "meta": {
          "security": [
            {
              "system": "http://terminology.hl7.org/CodeSystem/v3-ActReason",
              "code": "HTEST"
            },
            {
              "system": "http://terminology.hl7.org/CodeSystem/v3-ActReason",
              "code": "TRAIN"
            }
          ],
          "tag": [
            {
              "system": "https://synderai.net/fhir/CodeSystem/tags",
              "code": "synthetic",
              "display": "SYNDERAI Synthetic data"
            }
          ],
          "profile": [
            "http://hl7.eu/fhir/base/StructureDefinition/patient-eu-core"
          ]
        },
        "identifier": [
          {
            "type": {
              "coding": [
                {
                  "code": "PT",
                  "system": "http://terminology.hl7.org/CodeSystem/v2-0203"
                }
              ]
            },
            "system": "http://ec.europa.eu/identifier/eci",
            "value": "5321-442678-4"
          },
          {
            "type": {
              "coding": [
                {
                  "code": "MR",
                  "system": "http://terminology.hl7.org/CodeSystem/v2-0203"
                }
              ]
            },
            "system": "http://local.setting.eu/identifier",
            "value": "ffa9f0d8-c016-d46c-e666-000f53715b47"
          }
        ],
        "name": [
          {
            "family": "Köhler"
          },
          {
            "given": [
              "Leonhard"
            ]
          },
          {
            "text": "Leonhard Köhler"
          }
        ],
        "address": [
          {
            "line": [
              "Henckweg 97/34"
            ],
            "use": "home",
            "type": "physical",
            "postalCode": "87629",
            "city": "Füssen",
            "country": "Germany"
          }
        ],
        "telecom": [
          {
            "system": "phone",
            "value": "00028839855"
          }
        ],
        "extension": [
          {
            "url": "http://hl7.org/fhir/StructureDefinition/patient-nationality",
            "valueCodeableConcept": {
              "coding": [
                {
                  "code": "DE",
                  "system": "http://hl7.org/fhir/ValueSet/country"
                }
              ]
            }
          }
        ],
        "text": {
          "status": "generated",
          "div": "<div xmlns=\"http://www.w3.org/1999/xhtml\"><table class=\"hl7__ips\"><tr><td>Leonhard Köhler</td><td>male</td><td>19-Dec-1949</td></tr></table></div>"
        },
        "gender": "male",
        "birthDate": "1949-12-19"
      }
    },
    {
      "fullUrl": "urn:uuid:9b216c21-5e35-4f01-a32d-311b90546bdd",
      "resource": {
        "resourceType": "ServiceRequest",
        "id": "9b216c21-5e35-4f01-a32d-311b90546bdd",
        "meta": {
          "profile": [
            "http://hl7.eu/fhir/laboratory/StructureDefinition/ServiceRequest-eu-lab"
          ]
        },
        "identifier": [
          {
            "system": "http://example.org",
            "value": "4de753a7-5f24-4a71-b21d-6a7c8a472e99"
          }
        ],
        "specimen": [
          {
            "reference": "urn:uuid:9d2f2373-c167-4f9e-8946-dfb6bf72b2e3"
          }
        ],
        "reasonCode": [
          {
            "coding": [
              {
                "code": "55822004",
                "system": "http://snomed.info/sct",
                "display": "Hyperlipidemia"
              }
            ]
          },
          {
            "coding": [
              {
                "code": "414545008",
                "system": "http://snomed.info/sct",
                "display": "Ischemic heart disease"
              }
            ]
          },
          {
            "coding": [
              {
                "code": "59621000",
                "system": "http://snomed.info/sct",
                "display": "Essential hypertension"
              }
            ]
          },
          {
            "coding": [
              {
                "code": "239873007",
                "system": "http://snomed.info/sct",
                "display": "Osteoarthritis of knee"
              }
            ]
          },
          {
            "coding": [
              {
                "code": "271737000",
                "system": "http://snomed.info/sct",
                "display": "Anemia"
              }
            ]
          },
          {
            "coding": [
              {
                "code": "15777000",
                "system": "http://snomed.info/sct",
                "display": "Prediabetes"
              }
            ]
          }
        ],
        "status": "active",
        "intent": "order",
        "code": {
          "coding": [
            {
              "code": "108252007",
              "system": "http://snomed.info/sct",
              "display": "Laboratory procedure"
            }
          ]
        },
        "subject": {
          "reference": "urn:uuid:0b9527dd-82fc-460f-ab92-f81cecddbf45",
          "display": "Leonhard Köhler"
        },
        "requester": {
          "reference": "urn:uuid:dc67d6c1-4b95-4686-9b08-c91559c6f240"
        }
      }
    },
    {
      "fullUrl": "urn:uuid:dc67d6c1-4b95-4686-9b08-c91559c6f240",
      "resource": {
        "resourceType": "PractitionerRole",
        "id": "dc67d6c1-4b95-4686-9b08-c91559c6f240",
        "meta": {
          "profile": [
            "http://hl7.eu/fhir/base/StructureDefinition/practitionerRole-eu"
          ]
        },
        "text": {
          "status": "generated",
          "div": "<div xmlns=\"http://www.w3.org/1999/xhtml\">Provider Role Id: dc67d6c1-4b95-4686-9b08-c91559c6f240</div>"
        },
        "organization": {
          "reference": "urn:uuid:cb8d3381-5e18-4e38-b628-d7db080c2ec4"
        }
      }
    },
    {
      "fullUrl": "urn:uuid:cb8d3381-5e18-4e38-b628-d7db080c2ec4",
      "resource": {
        "resourceType": "Organization",
        "id": "cb8d3381-5e18-4e38-b628-d7db080c2ec4",
        "meta": {
          "profile": [
            "http://hl7.eu/fhir/base/StructureDefinition/organization-eu"
          ]
        },
        "identifier": [
          {
            "assigner": {
              "display": "HL7 Europe"
            },
            "system": "urn:oid:2.16.840.1.113883.2.51.999",
            "value": "a3adf185-6ed6-42fc-bbd6-e706effcdc3e"
          }
        ],
        "address": [
          {
            "line": [
              "Feistlestraße 2"
            ],
            "city": "Füssen",
            "postalCode": "87629",
            "country": "Germany"
          }
        ],
        "text": {
          "status": "generated",
          "div": "<div xmlns=\"http://www.w3.org/1999/xhtml\">Provider Organization: hier ist kein Ärztehaus</div>"
        },
        "name": "hier ist kein Ärztehaus"
      }
    },
    {
      "fullUrl": "urn:uuid:9d2f2373-c167-4f9e-8946-dfb6bf72b2e3",
      "resource": {
        "resourceType": "Specimen",
        "id": "9d2f2373-c167-4f9e-8946-dfb6bf72b2e3",
        "meta": {
          "profile": [
            "http://hl7.eu/fhir/laboratory/StructureDefinition/Specimen-eu-lab"
          ]
        },
        "collection": {
          "collectedDateTime": "2015-08-07"
        },
        "text": {
          "status": "generated",
          "div": "<div xmlns=\"http://www.w3.org/1999/xhtml\"><table class=\"hl7__eu__lab__report\"><tr><th>Specimen</th><th>Collection Date</th></tr><tr><td>Whole blood specimen (specimen)</td><td><span class=\"nb\">07-Aug-2015</span></td></tr></table></div>"
        },
        "type": {
          "coding": [
            {
              "code": "258580003",
              "system": "http://snomed.info/sct",
              "display": "Whole blood specimen (specimen)"
            }
          ]
        }
      }
    },
    {
      "fullUrl": "urn:uuid:9d2f2373-c167-4f9e-8946-dfb6bf72b2e3",
      "resource": {
        "resourceType": "Specimen",
        "id": "9d2f2373-c167-4f9e-8946-dfb6bf72b2e3",
        "meta": {
          "profile": [
            "http://hl7.eu/fhir/laboratory/StructureDefinition/Specimen-eu-lab"
          ]
        },
        "collection": {
          "collectedDateTime": "2015-08-07"
        },
        "text": {
          "status": "generated",
          "div": "<div xmlns=\"http://www.w3.org/1999/xhtml\"><table class=\"hl7__eu__lab__report\"><tr><th>Specimen</th><th>Collection Date</th></tr><tr><td>Whole blood specimen (specimen)</td><td><span class=\"nb\">07-Aug-2015</span></td></tr></table></div>"
        },
        "type": {
          "coding": [
            {
              "code": "258580003",
              "system": "http://snomed.info/sct",
              "display": "Whole blood specimen (specimen)"
            }
          ]
        }
      }
    },
    {
      "fullUrl": "urn:uuid:cdc995f5-6b0f-451e-9f76-454099c5e725",
      "resource": {
        "resourceType": "Observation",
        "id": "cdc995f5-6b0f-451e-9f76-454099c5e725",
        "meta": {
          "profile": [
            "http://hl7.eu/fhir/laboratory/StructureDefinition/Observation-resultslab-eu-lab"
          ]
        },
        "performer": [
          {
            "display": "The Central European Lab"
          }
        ],
        "category": [
          {
            "coding": [
              {
                "system": "http://terminology.hl7.org/CodeSystem/observation-category",
                "code": "laboratory"
              }
            ]
          }
        ],
        "code": {
          "coding": [
            {
              "code": "4548-4",
              "system": "http://loinc.org",
              "display": "Hemoglobin A1c/Hemoglobin.total in Blood"
            }
          ],
          "text": "Hemoglobin A1c/Hemoglobin.total in Blood"
        },
        "valueQuantity": {
          "system": "http://unitsofmeasure.org",
          "value": 6.2,
          "unit": "%",
          "code": "%"
        },
        "referenceRange": [
          {
            "low": {
              "value": 4.8,
              "code": "%",
              "system": "http://unitsofmeasure.org"
            }
          },
          {
            "high": {
              "value": 5.7,
              "code": "%",
              "system": "http://unitsofmeasure.org"
            }
          }
        ],
        "interpretation": [
          {
            "coding": [
              {
                "code": "H",
                "system": "http://terminology.hl7.org/CodeSystem/v3-ObservationInterpretation",
                "display": "High"
              }
            ]
          }
        ],
        "text": {
          "status": "generated",
          "div": "<div xmlns=\"http://www.w3.org/1999/xhtml\"><table class=\"hl7__eu__lab__report\"><tr><th>Test</th><th>07-Aug-2015</th><th>Reference&#xA0;Range</th><th>Unit</th></tr><tr><td>Hemoglobin A1c/Hemoglobin.total in Blood</td><td>6.2</td><td>4.8 - 5.7</td><td>H</td><td>%</td></tr></table></div>"
        },
        "status": "final",
        "subject": {
          "reference": "urn:uuid:0b9527dd-82fc-460f-ab92-f81cecddbf45",
          "display": "Leonhard Köhler"
        },
        "effectiveDateTime": "2015-08-07T02:48:23Z",
        "specimen": {
          "reference": "urn:uuid:9d2f2373-c167-4f9e-8946-dfb6bf72b2e3"
        }
      }
    },
    {
      "fullUrl": "urn:uuid:bb4bc4da-2714-472e-a38b-a3f50646264d",
      "resource": {
        "resourceType": "Observation",
        "id": "bb4bc4da-2714-472e-a38b-a3f50646264d",
        "meta": {
          "profile": [
            "http://hl7.eu/fhir/laboratory/StructureDefinition/Observation-resultslab-eu-lab"
          ]
        },
        "performer": [
          {
            "display": "The Central European Lab"
          }
        ],
        "category": [
          {
            "coding": [
              {
                "system": "http://terminology.hl7.org/CodeSystem/observation-category",
                "code": "laboratory"
              }
            ]
          }
        ],
        "code": {
          "coding": [
            {
              "code": "2339-0",
              "system": "http://loinc.org",
              "display": "Glucose [Mass/volume] in Blood"
            }
          ],
          "text": "Glucose [Mass/volume] in Blood"
        },
        "valueQuantity": {
          "system": "http://unitsofmeasure.org",
          "value": 84.9,
          "unit": "mg/dL",
          "code": "mg/dL"
        },
        "referenceRange": [
          {
            "low": {
              "value": 70,
              "code": "mg/dL",
              "system": "http://unitsofmeasure.org"
            }
          },
          {
            "high": {
              "value": 140,
              "code": "mg/dL",
              "system": "http://unitsofmeasure.org"
            }
          }
        ],
        "text": {
          "status": "generated",
          "div": "<div xmlns=\"http://www.w3.org/1999/xhtml\"><table class=\"hl7__eu__lab__report\"><tr><th>Test</th><th>07-Aug-2015</th><th>Reference&#xA0;Range</th><th>Unit</th></tr><tr><td>Glucose [Mass/volume] in Blood</td><td>84.9</td><td>70 - 140</td><td></td><td>mg/dL</td></tr></table></div>"
        },
        "status": "final",
        "subject": {
          "reference": "urn:uuid:0b9527dd-82fc-460f-ab92-f81cecddbf45",
          "display": "Leonhard Köhler"
        },
        "effectiveDateTime": "2015-08-07T02:48:23Z",
        "specimen": {
          "reference": "urn:uuid:9d2f2373-c167-4f9e-8946-dfb6bf72b2e3"
        }
      }
    },
    {
      "fullUrl": "urn:uuid:b4628102-db7d-416c-9f75-48af77d4936c",
      "resource": {
        "resourceType": "Observation",
        "id": "b4628102-db7d-416c-9f75-48af77d4936c",
        "meta": {
          "profile": [
            "http://hl7.eu/fhir/laboratory/StructureDefinition/Observation-resultslab-eu-lab"
          ]
        },
        "performer": [
          {
            "display": "The Central European Lab"
          }
        ],
        "category": [
          {
            "coding": [
              {
                "system": "http://terminology.hl7.org/CodeSystem/observation-category",
                "code": "laboratory"
              }
            ]
          }
        ],
        "code": {
          "coding": [
            {
              "code": "6299-2",
              "system": "http://loinc.org",
              "display": "Urea nitrogen [Mass/volume] in Blood"
            }
          ],
          "text": "Urea nitrogen [Mass/volume] in Blood"
        },
        "valueQuantity": {
          "system": "http://unitsofmeasure.org",
          "value": 11.4,
          "unit": "mg/dL",
          "code": "mg/dL"
        },
        "referenceRange": [
          {
            "low": {
              "value": 7,
              "code": "mg/dL",
              "system": "http://unitsofmeasure.org"
            }
          },
          {
            "high": {
              "value": 20,
              "code": "mg/dL",
              "system": "http://unitsofmeasure.org"
            }
          }
        ],
        "text": {
          "status": "generated",
          "div": "<div xmlns=\"http://www.w3.org/1999/xhtml\"><table class=\"hl7__eu__lab__report\"><tr><th>Test</th><th>07-Aug-2015</th><th>Reference&#xA0;Range</th><th>Unit</th></tr><tr><td>Urea nitrogen [Mass/volume] in Blood</td><td>11.4</td><td>7 - 20</td><td></td><td>mg/dL</td></tr></table></div>"
        },
        "status": "final",
        "subject": {
          "reference": "urn:uuid:0b9527dd-82fc-460f-ab92-f81cecddbf45",
          "display": "Leonhard Köhler"
        },
        "effectiveDateTime": "2015-08-07T02:48:23Z",
        "specimen": {
          "reference": "urn:uuid:9d2f2373-c167-4f9e-8946-dfb6bf72b2e3"
        }
      }
    },
    {
      "fullUrl": "urn:uuid:29a8a84c-1f5d-4757-972b-8b52246ffaa1",
      "resource": {
        "resourceType": "Observation",
        "id": "29a8a84c-1f5d-4757-972b-8b52246ffaa1",
        "meta": {
          "profile": [
            "http://hl7.eu/fhir/laboratory/StructureDefinition/Observation-resultslab-eu-lab"
          ]
        },
        "performer": [
          {
            "display": "The Central European Lab"
          }
        ],
        "category": [
          {
            "coding": [
              {
                "system": "http://terminology.hl7.org/CodeSystem/observation-category",
                "code": "laboratory"
              }
            ]
          }
        ],
        "code": {
          "coding": [
            {
              "code": "38483-4",
              "system": "http://loinc.org",
              "display": "Creatinine [Mass/volume] in Blood"
            }
          ],
          "text": "Creatinine [Mass/volume] in Blood"
        },
        "valueQuantity": {
          "system": "http://unitsofmeasure.org",
          "value": 1.1,
          "unit": "mg/dL",
          "code": "mg/dL"
        },
        "referenceRange": [
          {
            "low": {
              "value": 0.6,
              "code": "mg/dL",
              "system": "http://unitsofmeasure.org"
            }
          },
          {
            "high": {
              "value": 1.3,
              "code": "mg/dL",
              "system": "http://unitsofmeasure.org"
            }
          }
        ],
        "text": {
          "status": "generated",
          "div": "<div xmlns=\"http://www.w3.org/1999/xhtml\"><table class=\"hl7__eu__lab__report\"><tr><th>Test</th><th>07-Aug-2015</th><th>Reference&#xA0;Range</th><th>Unit</th></tr><tr><td>Creatinine [Mass/volume] in Blood</td><td>1.1</td><td>0.6 - 1.3</td><td></td><td>mg/dL</td></tr></table></div>"
        },
        "status": "final",
        "subject": {
          "reference": "urn:uuid:0b9527dd-82fc-460f-ab92-f81cecddbf45",
          "display": "Leonhard Köhler"
        },
        "effectiveDateTime": "2015-08-07T02:48:23Z",
        "specimen": {
          "reference": "urn:uuid:9d2f2373-c167-4f9e-8946-dfb6bf72b2e3"
        }
      }
    },
    {
      "fullUrl": "urn:uuid:70c6d268-4aa1-492f-b090-71413cb827e1",
      "resource": {
        "resourceType": "Observation",
        "id": "70c6d268-4aa1-492f-b090-71413cb827e1",
        "meta": {
          "profile": [
            "http://hl7.eu/fhir/laboratory/StructureDefinition/Observation-resultslab-eu-lab"
          ]
        },
        "performer": [
          {
            "display": "The Central European Lab"
          }
        ],
        "category": [
          {
            "coding": [
              {
                "system": "http://terminology.hl7.org/CodeSystem/observation-category",
                "code": "laboratory"
              }
            ]
          }
        ],
        "code": {
          "coding": [
            {
              "code": "49765-1",
              "system": "http://loinc.org",
              "display": "Calcium [Mass/volume] in Blood"
            }
          ],
          "text": "Calcium [Mass/volume] in Blood"
        },
        "valueQuantity": {
          "system": "http://unitsofmeasure.org",
          "value": 9.7,
          "unit": "mg/dL",
          "code": "mg/dL"
        },
        "referenceRange": [
          {
            "low": {
              "value": 8.5,
              "code": "mg/dL",
              "system": "http://unitsofmeasure.org"
            }
          },
          {
            "high": {
              "value": 10.5,
              "code": "mg/dL",
              "system": "http://unitsofmeasure.org"
            }
          }
        ],
        "text": {
          "status": "generated",
          "div": "<div xmlns=\"http://www.w3.org/1999/xhtml\"><table class=\"hl7__eu__lab__report\"><tr><th>Test</th><th>07-Aug-2015</th><th>Reference&#xA0;Range</th><th>Unit</th></tr><tr><td>Calcium [Mass/volume] in Blood</td><td>9.7</td><td>8.5 - 10.5</td><td></td><td>mg/dL</td></tr></table></div>"
        },
        "status": "final",
        "subject": {
          "reference": "urn:uuid:0b9527dd-82fc-460f-ab92-f81cecddbf45",
          "display": "Leonhard Köhler"
        },
        "effectiveDateTime": "2015-08-07T02:48:23Z",
        "specimen": {
          "reference": "urn:uuid:9d2f2373-c167-4f9e-8946-dfb6bf72b2e3"
        }
      }
    },
    {
      "fullUrl": "urn:uuid:fcf8c8cf-df81-428c-90d1-a7da810bccc1",
      "resource": {
        "resourceType": "Observation",
        "id": "fcf8c8cf-df81-428c-90d1-a7da810bccc1",
        "meta": {
          "profile": [
            "http://hl7.eu/fhir/laboratory/StructureDefinition/Observation-resultslab-eu-lab"
          ]
        },
        "performer": [
          {
            "display": "The Central European Lab"
          }
        ],
        "category": [
          {
            "coding": [
              {
                "system": "http://terminology.hl7.org/CodeSystem/observation-category",
                "code": "laboratory"
              }
            ]
          }
        ],
        "code": {
          "coding": [
            {
              "code": "2947-0",
              "system": "http://loinc.org",
              "display": "Sodium [Moles/volume] in Blood"
            }
          ],
          "text": "Sodium [Moles/volume] in Blood"
        },
        "valueQuantity": {
          "system": "http://unitsofmeasure.org",
          "value": 143.5,
          "unit": "mmol/L",
          "code": "mmol/L"
        },
        "referenceRange": [
          {
            "low": {
              "value": 135,
              "code": "mmol/L",
              "system": "http://unitsofmeasure.org"
            }
          },
          {
            "high": {
              "value": 145,
              "code": "mmol/L",
              "system": "http://unitsofmeasure.org"
            }
          }
        ],
        "text": {
          "status": "generated",
          "div": "<div xmlns=\"http://www.w3.org/1999/xhtml\"><table class=\"hl7__eu__lab__report\"><tr><th>Test</th><th>07-Aug-2015</th><th>Reference&#xA0;Range</th><th>Unit</th></tr><tr><td>Sodium [Moles/volume] in Blood</td><td>143.5</td><td>135 - 145</td><td></td><td>mmol/L</td></tr></table></div>"
        },
        "status": "final",
        "subject": {
          "reference": "urn:uuid:0b9527dd-82fc-460f-ab92-f81cecddbf45",
          "display": "Leonhard Köhler"
        },
        "effectiveDateTime": "2015-08-07T02:48:23Z",
        "specimen": {
          "reference": "urn:uuid:9d2f2373-c167-4f9e-8946-dfb6bf72b2e3"
        }
      }
    },
    {
      "fullUrl": "urn:uuid:934d8e73-9caa-4cf3-846e-cd0a4a84efd6",
      "resource": {
        "resourceType": "Observation",
        "id": "934d8e73-9caa-4cf3-846e-cd0a4a84efd6",
        "meta": {
          "profile": [
            "http://hl7.eu/fhir/laboratory/StructureDefinition/Observation-resultslab-eu-lab"
          ]
        },
        "performer": [
          {
            "display": "The Central European Lab"
          }
        ],
        "category": [
          {
            "coding": [
              {
                "system": "http://terminology.hl7.org/CodeSystem/observation-category",
                "code": "laboratory"
              }
            ]
          }
        ],
        "code": {
          "coding": [
            {
              "code": "6298-4",
              "system": "http://loinc.org",
              "display": "Potassium [Moles/volume] in Blood"
            }
          ],
          "text": "Potassium [Moles/volume] in Blood"
        },
        "valueQuantity": {
          "system": "http://unitsofmeasure.org",
          "value": 4.7,
          "unit": "mmol/L",
          "code": "mmol/L"
        },
        "referenceRange": [
          {
            "low": {
              "value": 3.5,
              "code": "mmol/L",
              "system": "http://unitsofmeasure.org"
            }
          },
          {
            "high": {
              "value": 5.1,
              "code": "mmol/L",
              "system": "http://unitsofmeasure.org"
            }
          }
        ],
        "text": {
          "status": "generated",
          "div": "<div xmlns=\"http://www.w3.org/1999/xhtml\"><table class=\"hl7__eu__lab__report\"><tr><th>Test</th><th>07-Aug-2015</th><th>Reference&#xA0;Range</th><th>Unit</th></tr><tr><td>Potassium [Moles/volume] in Blood</td><td>4.7</td><td>3.5 - 5.1</td><td></td><td>mmol/L</td></tr></table></div>"
        },
        "status": "final",
        "subject": {
          "reference": "urn:uuid:0b9527dd-82fc-460f-ab92-f81cecddbf45",
          "display": "Leonhard Köhler"
        },
        "effectiveDateTime": "2015-08-07T02:48:23Z",
        "specimen": {
          "reference": "urn:uuid:9d2f2373-c167-4f9e-8946-dfb6bf72b2e3"
        }
      }
    },
    {
      "fullUrl": "urn:uuid:27462a89-4a5d-46af-b83f-980cf6d0d082",
      "resource": {
        "resourceType": "Observation",
        "id": "27462a89-4a5d-46af-b83f-980cf6d0d082",
        "meta": {
          "profile": [
            "http://hl7.eu/fhir/laboratory/StructureDefinition/Observation-resultslab-eu-lab"
          ]
        },
        "performer": [
          {
            "display": "The Central European Lab"
          }
        ],
        "category": [
          {
            "coding": [
              {
                "system": "http://terminology.hl7.org/CodeSystem/observation-category",
                "code": "laboratory"
              }
            ]
          }
        ],
        "code": {
          "coding": [
            {
              "code": "2069-3",
              "system": "http://loinc.org",
              "display": "Chloride [Moles/volume] in Blood"
            }
          ],
          "text": "Chloride [Moles/volume] in Blood"
        },
        "valueQuantity": {
          "system": "http://unitsofmeasure.org",
          "value": 109.8,
          "unit": "mmol/L",
          "code": "mmol/L"
        },
        "referenceRange": [
          {
            "low": {
              "value": 98,
              "code": "mmol/L",
              "system": "http://unitsofmeasure.org"
            }
          },
          {
            "high": {
              "value": 108,
              "code": "mmol/L",
              "system": "http://unitsofmeasure.org"
            }
          }
        ],
        "interpretation": [
          {
            "coding": [
              {
                "code": "H",
                "system": "http://terminology.hl7.org/CodeSystem/v3-ObservationInterpretation",
                "display": "High"
              }
            ]
          }
        ],
        "text": {
          "status": "generated",
          "div": "<div xmlns=\"http://www.w3.org/1999/xhtml\"><table class=\"hl7__eu__lab__report\"><tr><th>Test</th><th>07-Aug-2015</th><th>Reference&#xA0;Range</th><th>Unit</th></tr><tr><td>Chloride [Moles/volume] in Blood</td><td>109.8</td><td>98 - 108</td><td>H</td><td>mmol/L</td></tr></table></div>"
        },
        "status": "final",
        "subject": {
          "reference": "urn:uuid:0b9527dd-82fc-460f-ab92-f81cecddbf45",
          "display": "Leonhard Köhler"
        },
        "effectiveDateTime": "2015-08-07T02:48:23Z",
        "specimen": {
          "reference": "urn:uuid:9d2f2373-c167-4f9e-8946-dfb6bf72b2e3"
        }
      }
    },
    {
      "fullUrl": "urn:uuid:193acc58-0e85-4336-8554-e944937efdec",
      "resource": {
        "resourceType": "Observation",
        "id": "193acc58-0e85-4336-8554-e944937efdec",
        "meta": {
          "profile": [
            "http://hl7.eu/fhir/laboratory/StructureDefinition/Observation-resultslab-eu-lab"
          ]
        },
        "performer": [
          {
            "display": "The Central European Lab"
          }
        ],
        "category": [
          {
            "coding": [
              {
                "system": "http://terminology.hl7.org/CodeSystem/observation-category",
                "code": "laboratory"
              }
            ]
          }
        ],
        "code": {
          "coding": [
            {
              "code": "20565-8",
              "system": "http://loinc.org",
              "display": "Carbon dioxide, total [Moles/volume] in Blood"
            }
          ],
          "text": "Carbon dioxide, total [Moles/volume] in Blood"
        },
        "valueQuantity": {
          "system": "http://unitsofmeasure.org",
          "value": 24.9,
          "unit": "mmol/L",
          "code": "mmol/L"
        },
        "referenceRange": [
          {
            "low": {
              "value": 22,
              "code": "mmol/L",
              "system": "http://unitsofmeasure.org"
            }
          },
          {
            "high": {
              "value": 32,
              "code": "mmol/L",
              "system": "http://unitsofmeasure.org"
            }
          }
        ],
        "text": {
          "status": "generated",
          "div": "<div xmlns=\"http://www.w3.org/1999/xhtml\"><table class=\"hl7__eu__lab__report\"><tr><th>Test</th><th>07-Aug-2015</th><th>Reference&#xA0;Range</th><th>Unit</th></tr><tr><td>Carbon dioxide, total [Moles/volume] in Blood</td><td>24.9</td><td>22 - 32</td><td></td><td>mmol/L</td></tr></table></div>"
        },
        "status": "final",
        "subject": {
          "reference": "urn:uuid:0b9527dd-82fc-460f-ab92-f81cecddbf45",
          "display": "Leonhard Köhler"
        },
        "effectiveDateTime": "2015-08-07T02:48:23Z",
        "specimen": {
          "reference": "urn:uuid:9d2f2373-c167-4f9e-8946-dfb6bf72b2e3"
        }
      }
    },
    {
      "fullUrl": "urn:uuid:c795e593-89f3-4ddf-a238-f847cc5b2706",
      "resource": {
        "resourceType": "Observation",
        "id": "c795e593-89f3-4ddf-a238-f847cc5b2706",
        "meta": {
          "profile": [
            "http://hl7.eu/fhir/laboratory/StructureDefinition/Observation-resultslab-eu-lab"
          ]
        },
        "performer": [
          {
            "display": "The Central European Lab"
          }
        ],
        "category": [
          {
            "coding": [
              {
                "system": "http://terminology.hl7.org/CodeSystem/observation-category",
                "code": "laboratory"
              }
            ]
          }
        ],
        "code": {
          "coding": [
            {
              "code": "6690-2",
              "system": "http://loinc.org",
              "display": "Leukocytes [#/volume] in Blood by Automated count"
            }
          ],
          "text": "Leukocytes [#/volume] in Blood by Automated count"
        },
        "valueQuantity": {
          "system": "http://unitsofmeasure.org",
          "value": 9.3,
          "unit": "10*3/uL",
          "code": "10*3/uL"
        },
        "referenceRange": [
          {
            "low": {
              "value": 3.5,
              "code": "10*3/uL",
              "system": "http://unitsofmeasure.org"
            }
          },
          {
            "high": {
              "value": 10.5,
              "code": "10*3/uL",
              "system": "http://unitsofmeasure.org"
            }
          }
        ],
        "text": {
          "status": "generated",
          "div": "<div xmlns=\"http://www.w3.org/1999/xhtml\"><table class=\"hl7__eu__lab__report\"><tr><th>Test</th><th>07-Aug-2015</th><th>Reference&#xA0;Range</th><th>Unit</th></tr><tr><td>Leukocytes [#/volume] in Blood by Automated count</td><td>9.3</td><td>3.5 - 10.5</td><td></td><td>10*3/uL</td></tr></table></div>"
        },
        "status": "final",
        "subject": {
          "reference": "urn:uuid:0b9527dd-82fc-460f-ab92-f81cecddbf45",
          "display": "Leonhard Köhler"
        },
        "effectiveDateTime": "2015-08-07T02:48:23Z",
        "specimen": {
          "reference": "urn:uuid:9d2f2373-c167-4f9e-8946-dfb6bf72b2e3"
        }
      }
    },
    {
      "fullUrl": "urn:uuid:88ebd885-cf22-4d1a-a512-bd2dafa6adb9",
      "resource": {
        "resourceType": "Observation",
        "id": "88ebd885-cf22-4d1a-a512-bd2dafa6adb9",
        "meta": {
          "profile": [
            "http://hl7.eu/fhir/laboratory/StructureDefinition/Observation-resultslab-eu-lab"
          ]
        },
        "performer": [
          {
            "display": "The Central European Lab"
          }
        ],
        "category": [
          {
            "coding": [
              {
                "system": "http://terminology.hl7.org/CodeSystem/observation-category",
                "code": "laboratory"
              }
            ]
          }
        ],
        "code": {
          "coding": [
            {
              "code": "789-8",
              "system": "http://loinc.org",
              "display": "Erythrocytes [#/volume] in Blood by Automated count"
            }
          ],
          "text": "Erythrocytes [#/volume] in Blood by Automated count"
        },
        "valueQuantity": {
          "system": "http://unitsofmeasure.org",
          "value": 4.7,
          "unit": "10*6/uL",
          "code": "10*6/uL"
        },
        "referenceRange": [
          {
            "low": {
              "value": 4.5,
              "code": "10*6/uL",
              "system": "http://unitsofmeasure.org"
            }
          },
          {
            "high": {
              "value": 5.7,
              "code": "10*6/uL",
              "system": "http://unitsofmeasure.org"
            }
          }
        ],
        "text": {
          "status": "generated",
          "div": "<div xmlns=\"http://www.w3.org/1999/xhtml\"><table class=\"hl7__eu__lab__report\"><tr><th>Test</th><th>07-Aug-2015</th><th>Reference&#xA0;Range</th><th>Unit</th></tr><tr><td>Erythrocytes [#/volume] in Blood by Automated count</td><td>4.7</td><td>4.5 - 5.7</td><td></td><td>10*6/uL</td></tr></table></div>"
        },
        "status": "final",
        "subject": {
          "reference": "urn:uuid:0b9527dd-82fc-460f-ab92-f81cecddbf45",
          "display": "Leonhard Köhler"
        },
        "effectiveDateTime": "2015-08-07T02:48:23Z",
        "specimen": {
          "reference": "urn:uuid:9d2f2373-c167-4f9e-8946-dfb6bf72b2e3"
        }
      }
    },
    {
      "fullUrl": "urn:uuid:2c4fdde7-8af3-455d-84fa-3064ce14a150",
      "resource": {
        "resourceType": "Observation",
        "id": "2c4fdde7-8af3-455d-84fa-3064ce14a150",
        "meta": {
          "profile": [
            "http://hl7.eu/fhir/laboratory/StructureDefinition/Observation-resultslab-eu-lab"
          ]
        },
        "performer": [
          {
            "display": "The Central European Lab"
          }
        ],
        "category": [
          {
            "coding": [
              {
                "system": "http://terminology.hl7.org/CodeSystem/observation-category",
                "code": "laboratory"
              }
            ]
          }
        ],
        "code": {
          "coding": [
            {
              "code": "718-7",
              "system": "http://loinc.org",
              "display": "Hemoglobin [Mass/volume] in Blood"
            }
          ],
          "text": "Hemoglobin [Mass/volume] in Blood"
        },
        "valueQuantity": {
          "system": "http://unitsofmeasure.org",
          "value": 15.9,
          "unit": "g/dL",
          "code": "g/dL"
        },
        "referenceRange": [
          {
            "low": {
              "value": 13.5,
              "code": "g/dL",
              "system": "http://unitsofmeasure.org"
            }
          },
          {
            "high": {
              "value": 17.5,
              "code": "g/dL",
              "system": "http://unitsofmeasure.org"
            }
          }
        ],
        "text": {
          "status": "generated",
          "div": "<div xmlns=\"http://www.w3.org/1999/xhtml\"><table class=\"hl7__eu__lab__report\"><tr><th>Test</th><th>07-Aug-2015</th><th>Reference&#xA0;Range</th><th>Unit</th></tr><tr><td>Hemoglobin [Mass/volume] in Blood</td><td>15.9</td><td>13.5 - 17.5</td><td></td><td>g/dL</td></tr></table></div>"
        },
        "status": "final",
        "subject": {
          "reference": "urn:uuid:0b9527dd-82fc-460f-ab92-f81cecddbf45",
          "display": "Leonhard Köhler"
        },
        "effectiveDateTime": "2015-08-07T02:48:23Z",
        "specimen": {
          "reference": "urn:uuid:9d2f2373-c167-4f9e-8946-dfb6bf72b2e3"
        }
      }
    },
    {
      "fullUrl": "urn:uuid:77902df1-5cb4-4eb1-a198-cb298615d356",
      "resource": {
        "resourceType": "Observation",
        "id": "77902df1-5cb4-4eb1-a198-cb298615d356",
        "meta": {
          "profile": [
            "http://hl7.eu/fhir/laboratory/StructureDefinition/Observation-resultslab-eu-lab"
          ]
        },
        "performer": [
          {
            "display": "The Central European Lab"
          }
        ],
        "category": [
          {
            "coding": [
              {
                "system": "http://terminology.hl7.org/CodeSystem/observation-category",
                "code": "laboratory"
              }
            ]
          }
        ],
        "code": {
          "coding": [
            {
              "code": "4544-3",
              "system": "http://loinc.org",
              "display": "Hematocrit [Volume Fraction] of Blood by Automated count"
            }
          ],
          "text": "Hematocrit [Volume Fraction] of Blood by Automated count"
        },
        "valueQuantity": {
          "system": "http://unitsofmeasure.org",
          "value": 43.3,
          "unit": "%",
          "code": "%"
        },
        "referenceRange": [
          {
            "low": {
              "value": 38,
              "code": "%",
              "system": "http://unitsofmeasure.org"
            }
          },
          {
            "high": {
              "value": 50,
              "code": "%",
              "system": "http://unitsofmeasure.org"
            }
          }
        ],
        "text": {
          "status": "generated",
          "div": "<div xmlns=\"http://www.w3.org/1999/xhtml\"><table class=\"hl7__eu__lab__report\"><tr><th>Test</th><th>07-Aug-2015</th><th>Reference&#xA0;Range</th><th>Unit</th></tr><tr><td>Hematocrit [Volume Fraction] of Blood by Automated count</td><td>43.3</td><td>38 - 50</td><td></td><td>%</td></tr></table></div>"
        },
        "status": "final",
        "subject": {
          "reference": "urn:uuid:0b9527dd-82fc-460f-ab92-f81cecddbf45",
          "display": "Leonhard Köhler"
        },
        "effectiveDateTime": "2015-08-07T02:48:23Z",
        "specimen": {
          "reference": "urn:uuid:9d2f2373-c167-4f9e-8946-dfb6bf72b2e3"
        }
      }
    },
    {
      "fullUrl": "urn:uuid:ccd4fddd-7499-48e3-8cc3-7a5e36fbbcb3",
      "resource": {
        "resourceType": "Observation",
        "id": "ccd4fddd-7499-48e3-8cc3-7a5e36fbbcb3",
        "meta": {
          "profile": [
            "http://hl7.eu/fhir/laboratory/StructureDefinition/Observation-resultslab-eu-lab"
          ]
        },
        "performer": [
          {
            "display": "The Central European Lab"
          }
        ],
        "category": [
          {
            "coding": [
              {
                "system": "http://terminology.hl7.org/CodeSystem/observation-category",
                "code": "laboratory"
              }
            ]
          }
        ],
        "code": {
          "coding": [
            {
              "code": "787-2",
              "system": "http://loinc.org",
              "display": "MCV [Entitic volume] by Automated count"
            }
          ],
          "text": "MCV [Entitic volume] by Automated count"
        },
        "valueQuantity": {
          "system": "http://unitsofmeasure.org",
          "value": 88.6,
          "unit": "fL",
          "code": "fL"
        },
        "referenceRange": [
          {
            "low": {
              "value": 76,
              "code": "fL",
              "system": "http://unitsofmeasure.org"
            }
          },
          {
            "high": {
              "value": 98,
              "code": "fL",
              "system": "http://unitsofmeasure.org"
            }
          }
        ],
        "text": {
          "status": "generated",
          "div": "<div xmlns=\"http://www.w3.org/1999/xhtml\"><table class=\"hl7__eu__lab__report\"><tr><th>Test</th><th>07-Aug-2015</th><th>Reference&#xA0;Range</th><th>Unit</th></tr><tr><td>MCV [Entitic volume] by Automated count</td><td>88.6</td><td>76 - 98</td><td></td><td>fL</td></tr></table></div>"
        },
        "status": "final",
        "subject": {
          "reference": "urn:uuid:0b9527dd-82fc-460f-ab92-f81cecddbf45",
          "display": "Leonhard Köhler"
        },
        "effectiveDateTime": "2015-08-07T02:48:23Z",
        "specimen": {
          "reference": "urn:uuid:9d2f2373-c167-4f9e-8946-dfb6bf72b2e3"
        }
      }
    },
    {
      "fullUrl": "urn:uuid:bf5a2287-57cb-469b-a93f-cc817709579c",
      "resource": {
        "resourceType": "Observation",
        "id": "bf5a2287-57cb-469b-a93f-cc817709579c",
        "meta": {
          "profile": [
            "http://hl7.eu/fhir/laboratory/StructureDefinition/Observation-resultslab-eu-lab"
          ]
        },
        "performer": [
          {
            "display": "The Central European Lab"
          }
        ],
        "category": [
          {
            "coding": [
              {
                "system": "http://terminology.hl7.org/CodeSystem/observation-category",
                "code": "laboratory"
              }
            ]
          }
        ],
        "code": {
          "coding": [
            {
              "code": "785-6",
              "system": "http://loinc.org",
              "display": "MCH [Entitic mass] by Automated count"
            }
          ],
          "text": "MCH [Entitic mass] by Automated count"
        },
        "valueQuantity": {
          "system": "http://unitsofmeasure.org",
          "value": 30.3,
          "unit": "pg",
          "code": "pg"
        },
        "referenceRange": [
          {
            "low": {
              "value": 27,
              "code": "pg",
              "system": "http://unitsofmeasure.org"
            }
          },
          {
            "high": {
              "value": 33,
              "code": "pg",
              "system": "http://unitsofmeasure.org"
            }
          }
        ],
        "text": {
          "status": "generated",
          "div": "<div xmlns=\"http://www.w3.org/1999/xhtml\"><table class=\"hl7__eu__lab__report\"><tr><th>Test</th><th>07-Aug-2015</th><th>Reference&#xA0;Range</th><th>Unit</th></tr><tr><td>MCH [Entitic mass] by Automated count</td><td>30.3</td><td>27 - 33</td><td></td><td>pg</td></tr></table></div>"
        },
        "status": "final",
        "subject": {
          "reference": "urn:uuid:0b9527dd-82fc-460f-ab92-f81cecddbf45",
          "display": "Leonhard Köhler"
        },
        "effectiveDateTime": "2015-08-07T02:48:23Z",
        "specimen": {
          "reference": "urn:uuid:9d2f2373-c167-4f9e-8946-dfb6bf72b2e3"
        }
      }
    },
    {
      "fullUrl": "urn:uuid:67c8e6b5-034a-429c-a315-3286dca993db",
      "resource": {
        "resourceType": "Observation",
        "id": "67c8e6b5-034a-429c-a315-3286dca993db",
        "meta": {
          "profile": [
            "http://hl7.eu/fhir/laboratory/StructureDefinition/Observation-resultslab-eu-lab"
          ]
        },
        "performer": [
          {
            "display": "The Central European Lab"
          }
        ],
        "category": [
          {
            "coding": [
              {
                "system": "http://terminology.hl7.org/CodeSystem/observation-category",
                "code": "laboratory"
              }
            ]
          }
        ],
        "code": {
          "coding": [
            {
              "code": "786-4",
              "system": "http://loinc.org",
              "display": "MCHC [Mass/volume] by Automated count"
            }
          ],
          "text": "MCHC [Mass/volume] by Automated count"
        },
        "valueQuantity": {
          "system": "http://unitsofmeasure.org",
          "value": 33.5,
          "unit": "g/dL",
          "code": "g/dL"
        },
        "referenceRange": [
          {
            "low": {
              "value": 31,
              "code": "g/dL",
              "system": "http://unitsofmeasure.org"
            }
          },
          {
            "high": {
              "value": 35,
              "code": "g/dL",
              "system": "http://unitsofmeasure.org"
            }
          }
        ],
        "text": {
          "status": "generated",
          "div": "<div xmlns=\"http://www.w3.org/1999/xhtml\"><table class=\"hl7__eu__lab__report\"><tr><th>Test</th><th>07-Aug-2015</th><th>Reference&#xA0;Range</th><th>Unit</th></tr><tr><td>MCHC [Mass/volume] by Automated count</td><td>33.5</td><td>31 - 35</td><td></td><td>g/dL</td></tr></table></div>"
        },
        "status": "final",
        "subject": {
          "reference": "urn:uuid:0b9527dd-82fc-460f-ab92-f81cecddbf45",
          "display": "Leonhard Köhler"
        },
        "effectiveDateTime": "2015-08-07T02:48:23Z",
        "specimen": {
          "reference": "urn:uuid:9d2f2373-c167-4f9e-8946-dfb6bf72b2e3"
        }
      }
    },
    {
      "fullUrl": "urn:uuid:d19ec220-7081-427a-b0a6-abbed0242e63",
      "resource": {
        "resourceType": "Observation",
        "id": "d19ec220-7081-427a-b0a6-abbed0242e63",
        "meta": {
          "profile": [
            "http://hl7.eu/fhir/laboratory/StructureDefinition/Observation-resultslab-eu-lab"
          ]
        },
        "performer": [
          {
            "display": "The Central European Lab"
          }
        ],
        "category": [
          {
            "coding": [
              {
                "system": "http://terminology.hl7.org/CodeSystem/observation-category",
                "code": "laboratory"
              }
            ]
          }
        ],
        "code": {
          "coding": [
            {
              "code": "21000-5",
              "system": "http://loinc.org",
              "display": "Erythrocyte distribution width [Entitic volume] by Automated count"
            }
          ],
          "text": "Erythrocyte distribution width [Entitic volume] by Automated count"
        },
        "valueQuantity": {
          "system": "http://unitsofmeasure.org",
          "value": 43.7,
          "unit": "fL",
          "code": "fL"
        },
        "referenceRange": [
          {
            "low": {
              "value": 36,
              "code": "fL",
              "system": "http://unitsofmeasure.org"
            }
          },
          {
            "high": {
              "value": 55,
              "code": "fL",
              "system": "http://unitsofmeasure.org"
            }
          }
        ],
        "text": {
          "status": "generated",
          "div": "<div xmlns=\"http://www.w3.org/1999/xhtml\"><table class=\"hl7__eu__lab__report\"><tr><th>Test</th><th>07-Aug-2015</th><th>Reference&#xA0;Range</th><th>Unit</th></tr><tr><td>Erythrocyte distribution width [Entitic volume] by Automated count</td><td>43.7</td><td>36 - 55</td><td></td><td>fL</td></tr></table></div>"
        },
        "status": "final",
        "subject": {
          "reference": "urn:uuid:0b9527dd-82fc-460f-ab92-f81cecddbf45",
          "display": "Leonhard Köhler"
        },
        "effectiveDateTime": "2015-08-07T02:48:23Z",
        "specimen": {
          "reference": "urn:uuid:9d2f2373-c167-4f9e-8946-dfb6bf72b2e3"
        }
      }
    },
    {
      "fullUrl": "urn:uuid:51cfa901-e57c-499a-bbf2-7d20ca8db17f",
      "resource": {
        "resourceType": "Observation",
        "id": "51cfa901-e57c-499a-bbf2-7d20ca8db17f",
        "meta": {
          "profile": [
            "http://hl7.eu/fhir/laboratory/StructureDefinition/Observation-resultslab-eu-lab"
          ]
        },
        "performer": [
          {
            "display": "The Central European Lab"
          }
        ],
        "category": [
          {
            "coding": [
              {
                "system": "http://terminology.hl7.org/CodeSystem/observation-category",
                "code": "laboratory"
              }
            ]
          }
        ],
        "code": {
          "coding": [
            {
              "code": "777-3",
              "system": "http://loinc.org",
              "display": "Platelets [#/volume] in Blood by Automated count"
            }
          ],
          "text": "Platelets [#/volume] in Blood by Automated count"
        },
        "valueQuantity": {
          "system": "http://unitsofmeasure.org",
          "value": 230.8,
          "unit": "10*3/uL",
          "code": "10*3/uL"
        },
        "referenceRange": [
          {
            "low": {
              "value": 140,
              "code": "10*3/uL",
              "system": "http://unitsofmeasure.org"
            }
          },
          {
            "high": {
              "value": 363,
              "code": "10*3/uL",
              "system": "http://unitsofmeasure.org"
            }
          }
        ],
        "text": {
          "status": "generated",
          "div": "<div xmlns=\"http://www.w3.org/1999/xhtml\"><table class=\"hl7__eu__lab__report\"><tr><th>Test</th><th>07-Aug-2015</th><th>Reference&#xA0;Range</th><th>Unit</th></tr><tr><td>Platelets [#/volume] in Blood by Automated count</td><td>230.8</td><td>140 - 363</td><td></td><td>10*3/uL</td></tr></table></div>"
        },
        "status": "final",
        "subject": {
          "reference": "urn:uuid:0b9527dd-82fc-460f-ab92-f81cecddbf45",
          "display": "Leonhard Köhler"
        },
        "effectiveDateTime": "2015-08-07T02:48:23Z",
        "specimen": {
          "reference": "urn:uuid:9d2f2373-c167-4f9e-8946-dfb6bf72b2e3"
        }
      }
    },
    {
      "fullUrl": "urn:uuid:0871350b-33d9-49f6-ba24-7671215f4652",
      "resource": {
        "resourceType": "Observation",
        "id": "0871350b-33d9-49f6-ba24-7671215f4652",
        "meta": {
          "profile": [
            "http://hl7.eu/fhir/laboratory/StructureDefinition/Observation-resultslab-eu-lab"
          ]
        },
        "performer": [
          {
            "display": "The Central European Lab"
          }
        ],
        "category": [
          {
            "coding": [
              {
                "system": "http://terminology.hl7.org/CodeSystem/observation-category",
                "code": "laboratory"
              }
            ]
          }
        ],
        "code": {
          "coding": [
            {
              "code": "32207-3",
              "system": "http://loinc.org",
              "display": "Platelet distribution width [Entitic volume] in Blood by Automated count"
            }
          ],
          "text": "Platelet distribution width [Entitic volume] in Blood by Automated count"
        },
        "valueQuantity": {
          "system": "http://unitsofmeasure.org",
          "value": 193.2,
          "unit": "fL",
          "code": "fL"
        },
        "referenceRange": [
          {
            "low": {
              "value": 11.6,
              "code": "fL",
              "system": "http://unitsofmeasure.org"
            }
          },
          {
            "high": {
              "value": 17.4,
              "code": "fL",
              "system": "http://unitsofmeasure.org"
            }
          }
        ],
        "interpretation": [
          {
            "coding": [
              {
                "code": "H",
                "system": "http://terminology.hl7.org/CodeSystem/v3-ObservationInterpretation",
                "display": "High"
              }
            ]
          }
        ],
        "text": {
          "status": "generated",
          "div": "<div xmlns=\"http://www.w3.org/1999/xhtml\"><table class=\"hl7__eu__lab__report\"><tr><th>Test</th><th>07-Aug-2015</th><th>Reference&#xA0;Range</th><th>Unit</th></tr><tr><td>Platelet distribution width [Entitic volume] in Blood by Automated count</td><td>193.2</td><td>11.6 - 17.4</td><td>H</td><td>fL</td></tr></table></div>"
        },
        "status": "final",
        "subject": {
          "reference": "urn:uuid:0b9527dd-82fc-460f-ab92-f81cecddbf45",
          "display": "Leonhard Köhler"
        },
        "effectiveDateTime": "2015-08-07T02:48:23Z",
        "specimen": {
          "reference": "urn:uuid:9d2f2373-c167-4f9e-8946-dfb6bf72b2e3"
        }
      }
    },
    {
      "fullUrl": "urn:uuid:d41f53d5-582b-479d-9df3-bfb1c63379e9",
      "resource": {
        "resourceType": "Observation",
        "id": "d41f53d5-582b-479d-9df3-bfb1c63379e9",
        "meta": {
          "profile": [
            "http://hl7.eu/fhir/laboratory/StructureDefinition/Observation-resultslab-eu-lab"
          ]
        },
        "performer": [
          {
            "display": "The Central European Lab"
          }
        ],
        "category": [
          {
            "coding": [
              {
                "system": "http://terminology.hl7.org/CodeSystem/observation-category",
                "code": "laboratory"
              }
            ]
          }
        ],
        "code": {
          "coding": [
            {
              "code": "32623-1",
              "system": "http://loinc.org",
              "display": "Platelet mean volume [Entitic volume] in Blood by Automated count"
            }
          ],
          "text": "Platelet mean volume [Entitic volume] in Blood by Automated count"
        },
        "valueQuantity": {
          "system": "http://unitsofmeasure.org",
          "value": 11.1,
          "unit": "fL",
          "code": "fL"
        },
        "referenceRange": [
          {
            "low": {
              "value": 9.8,
              "code": "fL",
              "system": "http://unitsofmeasure.org"
            }
          },
          {
            "high": {
              "value": 13.8,
              "code": "fL",
              "system": "http://unitsofmeasure.org"
            }
          }
        ],
        "text": {
          "status": "generated",
          "div": "<div xmlns=\"http://www.w3.org/1999/xhtml\"><table class=\"hl7__eu__lab__report\"><tr><th>Test</th><th>07-Aug-2015</th><th>Reference&#xA0;Range</th><th>Unit</th></tr><tr><td>Platelet mean volume [Entitic volume] in Blood by Automated count</td><td>11.1</td><td>9.8 - 13.8</td><td></td><td>fL</td></tr></table></div>"
        },
        "status": "final",
        "subject": {
          "reference": "urn:uuid:0b9527dd-82fc-460f-ab92-f81cecddbf45",
          "display": "Leonhard Köhler"
        },
        "effectiveDateTime": "2015-08-07T02:48:23Z",
        "specimen": {
          "reference": "urn:uuid:9d2f2373-c167-4f9e-8946-dfb6bf72b2e3"
        }
      }
    },
    {
      "fullUrl": "urn:uuid:2e14e3b5-8c87-45d9-a91f-6265c38bb743",
      "resource": {
        "resourceType": "Device",
        "id": "2e14e3b5-8c87-45d9-a91f-6265c38bb743",
        "deviceName": [
          {
            "name": "SYNDERAI Synthetic Generator",
            "type": "manufacturer-name"
          }
        ],
        "version": [
          {
            "value": "5.0"
          }
        ],
        "text": {
          "status": "generated",
          "div": "<div xmlns=\"http://www.w3.org/1999/xhtml\">SYNDERAI Synthetic Generator v5.0</div>"
        },
        "status": "active\"",
        "distinctIdentifier": "synderai-generator-50",
        "manufacturer": "SYNDERAI Project"
      }
    },
    {
      "fullUrl": "urn:uuid:93734e50-6b4a-40c1-9bae-7d786999eb85",
      "resource": {
        "resourceType": "Provenance",
        "id": "93734e50-6b4a-40c1-9bae-7d786999eb85",
        "target": [
          {
            "reference": "Patient/0b9527dd-82fc-460f-ab92-f81cecddbf45"
          },
          {
            "reference": "Bundle/8c9d6e91-545c-42f9-8c2c-5275d559a16c"
          },
          {
            "reference": "Composition/c1223a1e-228f-4168-bf58-cc8d7a5c5409"
          },
          {
            "reference": "PractitionerRole/0ebcbccf-d526-452e-a705-0e7fdb2d5af7"
          },
          {
            "reference": "Practitioner/01850543-72fc-44d5-89fc-e8f808ce4822"
          },
          {
            "reference": "PractitionerRole/dc67d6c1-4b95-4686-9b08-c91559c6f240"
          },
          {
            "reference": "Organization/cb8d3381-5e18-4e38-b628-d7db080c2ec4"
          }
        ],
        "activity": {
          "text": "Synthetic Example Data Generation"
        },
        "policy": [
          "https://synderai.net/synderai-synthetic-data-policy"
        ],
        "agent": [
          {
            "type": {
              "text": "author"
            },
            "who": {
              "reference": "Device/2e14e3b5-8c87-45d9-a91f-6265c38bb743"
            }
          }
        ],
        "reason": [
          {
            "text": "Interoperability Testing and Training (non-clinical use)"
          }
        ],
        "text": {
          "status": "generated",
          "div": "<div xmlns=\"http://www.w3.org/1999/xhtml\">Provenance for SYNDERAI Synthetic Example Data Resource</div>"
        },
        "recorded": "2015-08-07T04:48:23Z"
      }
    },
    {
      "fullUrl": "urn:uuid:0ebcbccf-d526-452e-a705-0e7fdb2d5af7",
      "resource": {
        "resourceType": "PractitionerRole",
        "id": "0ebcbccf-d526-452e-a705-0e7fdb2d5af7",
        "meta": {
          "profile": [
            "http://hl7.eu/fhir/base/StructureDefinition/practitionerRole-eu"
          ]
        },
        "text": {
          "status": "generated",
          "div": "<div xmlns=\"http://www.w3.org/1999/xhtml\">Laboratory Role Id: 0ebcbccf-d526-452e-a705-0e7fdb2d5af7</div>"
        },
        "practitioner": {
          "reference": "urn:uuid:01850543-72fc-44d5-89fc-e8f808ce4822"
        }
      }
    },
    {
      "fullUrl": "urn:uuid:01850543-72fc-44d5-89fc-e8f808ce4822",
      "resource": {
        "resourceType": "Practitioner",
        "id": "01850543-72fc-44d5-89fc-e8f808ce4822",
        "meta": {
          "profile": [
            "http://hl7.eu/fhir/base/StructureDefinition/practitioner-eu"
          ]
        },
        "identifier": [
          {
            "assigner": {
              "display": "HL7 Europe"
            },
            "system": "urn:oid:2.16.840.1.113883.2.51.999",
            "value": "2b72e2b2-da37-476b-bde5-bbd78775e68d"
          }
        ],
        "name": [
          {
            "prefix": [
              "dr"
            ],
            "given": [
              "Ex"
            ],
            "family": "Ample"
          }
        ],
        "address": [
          {
            "line": [
              "Laboratoire Central Européenne",
              "Boulevard du Jardin Botanique 32"
            ],
            "postalCode": "1000",
            "city": "Brussels",
            "country": "Belgium"
          }
        ],
        "text": {
          "status": "generated",
          "div": "<div xmlns=\"http://www.w3.org/1999/xhtml\">Laboratory: Laboratoire Central Européenne, 1000 Brussels, Belgium</div>"
        }
      }
    }
  ],
  "type": "document",
  "timestamp": "2015-08-07T04:48:23Z"
}
