{
  "resourceType": "Bundle",
  "id": "29b3801c-dd05-4423-9750-b56c299c7c64",
  "meta": {
    "profile": [
      "http://hl7.eu/fhir/laboratory/StructureDefinition/Bundle-eu-lab"
    ]
  },
  "identifier": {
    "assigner": {
      "display": "HL7 Europe"
    },
    "system": "urn:oid:2.16.840.1.113883.2.51.999",
    "value": "89104b8e-b526-40bc-a017-a62f0db6db07"
  },
  "entry": [
    {
      "fullUrl": "urn:uuid:49dfb834-09d7-42f9-9257-8d47ef5d9fc9",
      "resource": {
        "resourceType": "Composition",
        "id": "49dfb834-09d7-42f9-9257-8d47ef5d9fc9",
        "meta": {
          "profile": [
            "http://hl7.eu/fhir/laboratory/StructureDefinition/Composition-eu-lab"
          ]
        },
        "identifier": {
          "assigner": {
            "display": "HL7 Europe"
          },
          "system": "urn:oid:2.16.840.1.113883.2.51.999",
          "value": "1cd0a80d-e584-4827-bba3-901bbe537b46"
        },
        "author": [
          {
            "reference": "urn:uuid:2362d5fb-5851-436b-9dc9-ab69f2e0e770"
          }
        ],
        "category": [
          {
            "coding": [
              {
                "code": "26436-6",
                "system": "http://loinc.org",
                "display": "Laboratory studies (set)"
              }
            ]
          }
        ],
        "type": {
          "coding": [
            {
              "code": "11502-2",
              "system": "http://loinc.org",
              "display": "Laboratory report"
            }
          ],
          "text": "Laboratory Report"
        },
        "section": [
          {
            "code": {
              "coding": [
                {
                  "code": "26436-6",
                  "system": "http://loinc.org",
                  "display": "Laboratory studies (set)"
                }
              ],
              "text": "Laboratory studies"
            },
            "section": [
              {
                "code": {
                  "coding": [
                    {
                      "code": "$18719-5",
                      "system": "http://loinc.org",
                      "display": "Chemistry studies (set)"
                    }
                  ],
                  "text": "Chemistry"
                },
                "entry": [
                  {
                    "reference": "urn:uuid:3dc99c2f-caf1-4ef0-a094-6f69c92c6258"
                  },
                  {
                    "reference": "urn:uuid:00f47e62-3147-461f-bf55-5746b1f1201e"
                  },
                  {
                    "reference": "urn:uuid:a961ed3e-91e8-41b7-9cd0-c98e412d10f4"
                  },
                  {
                    "reference": "urn:uuid:f48b9054-3725-4537-b808-25d543514f02"
                  },
                  {
                    "reference": "urn:uuid:3ed7e1ea-77e3-4b38-909b-a58528542a8d"
                  },
                  {
                    "reference": "urn:uuid:d7eddc2d-2577-40cb-8c20-07d94407f0b4"
                  },
                  {
                    "reference": "urn:uuid:64a0bc7b-765b-4d8a-9cab-9b41040db534"
                  },
                  {
                    "reference": "urn:uuid:e36ab31d-f612-4452-9ba9-fcbbd666dc88"
                  },
                  {
                    "reference": "urn:uuid:ad7c5b47-f166-41fb-b8e8-92aab1d27f8e"
                  },
                  {
                    "reference": "urn:uuid:5884dd69-004a-40fe-90fe-0d80345f689f"
                  },
                  {
                    "reference": "urn:uuid:b705d636-6615-418d-a374-752eded1d2e1"
                  },
                  {
                    "reference": "urn:uuid:2db916f0-796d-46b5-8ef0-040bc2ada637"
                  },
                  {
                    "reference": "urn:uuid:22f36ddb-9999-42c3-93c7-8aebf90fcba7"
                  },
                  {
                    "reference": "urn:uuid:7f3c3a70-3568-4955-80c9-df0e218b9850"
                  },
                  {
                    "reference": "urn:uuid:820ab3f0-18c4-4b34-9748-bd53b1d3e429"
                  },
                  {
                    "reference": "urn:uuid:b3fe9ec1-4f6c-47c5-9624-b4d91e3b551b"
                  },
                  {
                    "reference": "urn:uuid:9ecbedad-2291-4ddb-bc12-997e62639f78"
                  },
                  {
                    "reference": "urn:uuid:0ae66608-a7df-477b-8fc6-ef081df12818"
                  }
                ],
                "text": {
                  "status": "generated",
                  "div": "<div xmlns=\"http://www.w3.org/1999/xhtml\"><h3>Chemistry</h3><table class=\"hl7__eu__lab__report\"><thead><tr><th>Test</th><th>14-NOV-2016</th><th>Reference&#xA0;Range</th><th>Unit</th></tr></thead><tbody><tr><td>Glucose [Mass/volume] in Serum or Plasma</td><td>82.4</td><td>70 - 99</td><td>mg/dL</td></tr><tr><td>Urea nitrogen [Mass/volume] in Serum or Plasma</td><td>9.1</td><td>7 - 50</td><td>mg/dL</td></tr><tr><td>Creatinine [Mass/volume] in Serum or Plasma</td><td><strong>1.9 H</strong></td><td>0.6 - 1.1</td><td>mg/dL</td></tr><tr><td>Calcium [Mass/volume] in Serum or Plasma</td><td>9.4</td><td>8.6 - 10.4</td><td>mg/dL</td></tr><tr><td>Sodium [Moles/volume] in Serum or Plasma</td><td>142.0</td><td>135 - 145</td><td>mmol/L</td></tr><tr><td>Potassium [Moles/volume] in Serum or Plasma</td><td>3.8</td><td>3.5 - 5.1</td><td>mmol/L</td></tr><tr><td>Chloride [Moles/volume] in Serum or Plasma</td><td>102.3</td><td>98 - 108</td><td>mmol/L</td></tr><tr><td>Carbon dioxide, total [Moles/volume] in Serum or Plasma</td><td><strong>20.9 L</strong></td><td>22 - 32</td><td>mmol/L</td></tr><tr><td>Ketones [Presence] in Urine by Test strip</td><td>Urine ketone test = +</td><td></td><td></td></tr><tr><td>Hemoglobin A1c/Hemoglobin.total in Blood</td><td><strong>2.9 L</strong></td><td>4 - 6.4</td><td>%</td></tr><tr><td>Glucose [Mass/volume] in Blood</td><td>82.4</td><td>70 - 100</td><td>mg/dL</td></tr><tr><td>Urea nitrogen [Mass/volume] in Blood</td><td>9.1</td><td>7 - 43</td><td>mg/dL</td></tr><tr><td>Creatinine [Mass/volume] in Blood</td><td><strong>1.4 H</strong></td><td>0.6 - 1.1</td><td>mg/dL</td></tr><tr><td>Calcium [Mass/volume] in Blood</td><td>9.4</td><td>8.5 - 10.5</td><td>mg/dL</td></tr><tr><td>Sodium [Moles/volume] in Blood</td><td>142.0</td><td>135 - 145</td><td>mmol/L</td></tr><tr><td>Potassium [Moles/volume] in Blood</td><td>3.8</td><td>3.5 - 5.1</td><td>mmol/L</td></tr><tr><td>Chloride [Moles/volume] in Blood</td><td>102.3</td><td>98 - 108</td><td>mmol/L</td></tr><tr><td>Carbon dioxide, total [Moles/volume] in Blood</td><td><strong>20.9 L</strong></td><td>22 - 29</td><td>mmol/L</td></tr></tbody></table></div>"
                },
                "title": "Chemistry"
              },
              {
                "code": {
                  "coding": [
                    {
                      "code": "$18729-4",
                      "system": "http://loinc.org",
                      "display": "Urinalysis studies (set)"
                    }
                  ],
                  "text": "Urinalysis"
                },
                "entry": [
                  {
                    "reference": "urn:uuid:6e0a4430-3bf4-411d-8aee-ffd1c70e9cb0"
                  },
                  {
                    "reference": "urn:uuid:127d2c78-e0f5-4cef-96ca-d439c88ee64f"
                  },
                  {
                    "reference": "urn:uuid:b4f4f7c1-1647-4f45-b7c2-608348986a18"
                  },
                  {
                    "reference": "urn:uuid:6c5bd3ac-737b-4a80-ab8c-2c1188e497b8"
                  },
                  {
                    "reference": "urn:uuid:eef9857e-f8ab-4211-9efd-645aba1954a1"
                  },
                  {
                    "reference": "urn:uuid:c8286ab4-535a-4fc1-8bf7-9a0ab8cd42ba"
                  },
                  {
                    "reference": "urn:uuid:e3a5a9fc-069c-496f-aac0-622be595dae7"
                  },
                  {
                    "reference": "urn:uuid:655b7df6-429c-470d-9acc-78749d4c5703"
                  },
                  {
                    "reference": "urn:uuid:17a42ee8-8c50-4f3b-ac8c-4a1325bb5705"
                  },
                  {
                    "reference": "urn:uuid:e45582d0-8f83-41a6-864f-5f9988335ce8"
                  },
                  {
                    "reference": "urn:uuid:91387f3a-7af1-4b46-94d8-7a2eea437334"
                  },
                  {
                    "reference": "urn:uuid:7510433f-e9a6-47ae-81a9-dd2b0d6f5fc6"
                  }
                ],
                "text": {
                  "status": "generated",
                  "div": "<div xmlns=\"http://www.w3.org/1999/xhtml\"><h3>Urinalysis</h3><table class=\"hl7__eu__lab__report\"><thead><tr><th>Test</th><th>14-NOV-2016</th><th>Reference&#xA0;Range</th><th>Unit</th></tr></thead><tbody><tr><td>Glucose [Mass/volume] in Urine by Test strip</td><td><strong>2.1 H</strong></td><td>0.8 - 0</td><td>mg/dL</td></tr><tr><td>Glucose [Presence] in Urine by Test strip</td><td>++</td><td></td><td></td></tr><tr><td>Bilirubin.total [Mass/volume] in Urine by Test strip</td><td>0.6</td><td>0 - 1</td><td>mg/dL</td></tr><tr><td>Bilirubin.total [Presence] in Urine by Test strip</td><td>Finding of bilirubin in urine</td><td></td><td></td></tr><tr><td>Ketones [Mass/volume] in Urine by Test strip</td><td><strong>14.8 H</strong></td><td>0 - 4</td><td>mg/dL</td></tr><tr><td>Specific gravity of Urine by Test strip</td><td><strong>1.0 L</strong></td><td>1.005 - 1.03</td><td>{nominal}</td></tr><tr><td>pH of Urine by Test strip</td><td>6.8</td><td>4.6 - 7</td><td>pH</td></tr><tr><td>Protein [Mass/volume] in Urine by Test strip</td><td><strong>330.9 H</strong></td><td>0 - 14</td><td>mg/dL</td></tr><tr><td>Protein [Presence] in Urine by Test strip</td><td>Urine protein test = ++</td><td></td><td></td></tr><tr><td>Nitrite [Presence] in Urine by Test strip</td><td>Urine nitrite negative</td><td></td><td></td></tr><tr><td>Hemoglobin [Presence] in Urine by Test strip</td><td>Urine blood test = negative</td><td></td><td></td></tr><tr><td>Leukocyte esterase [Presence] in Urine by Test strip</td><td>Urine leukocyte test negative</td><td></td><td></td></tr></tbody></table></div>"
                },
                "title": "Urinalysis"
              },
              {
                "code": {
                  "coding": [
                    {
                      "code": "$LP7846-1",
                      "system": "http://loinc.org",
                      "display": "Specimen information"
                    }
                  ],
                  "text": "Specimen information"
                },
                "entry": [
                  {
                    "reference": "urn:uuid:4c9c54cd-5e3e-423a-883d-a7358cf18857"
                  },
                  {
                    "reference": "urn:uuid:9407b872-d888-4edf-a2b3-ea6030462da1"
                  },
                  {
                    "reference": "urn:uuid:642538e3-cd4b-4428-8342-a57022a5059d"
                  },
                  {
                    "reference": "urn:uuid:06a4f1ad-f95b-4948-b99c-9cc031ac4777"
                  }
                ],
                "text": {
                  "status": "generated",
                  "div": "<div xmlns=\"http://www.w3.org/1999/xhtml\"><h3>Specimen information</h3><table class=\"hl7__eu__lab__report\"><thead><tr><th>Test</th><th>14-NOV-2016</th><th>Specimen</th><th></th></tr></thead><tbody><tr><td>Appearance of Urine</td><td>Cloudy urine</td><td>Urine</td><td></td></tr><tr><td>Odor of Urine</td><td>Urine smell ammoniacal</td><td>Urine</td><td></td></tr><tr><td>Clarity of Urine</td><td>Translucent</td><td>Urine</td><td></td></tr><tr><td>Color of Urine</td><td>Brown color</td><td>Urine</td><td></td></tr></tbody></table></div>"
                },
                "title": "Specimen information"
              }
            ],
            "title": "Laboratory Report"
          },
          {
            "text": {
              "status": "generated",
              "div": "<div xmlns=\"http://www.w3.org/1999/xhtml\"><h3>Annotation</h3><table class=\"hl7__eu__lab__report\"><tr><th>Conclusion and Recommendations based on this report and previous findings known to us</th></tr><tr><td>The patient shows elevated creatinine, significant proteinuria, glucosuria, and ketonuria, with low urine specific gravity and mildly low total CO₂, suggesting impaired renal function and possible tubular dysfunction. The low HbA1c with normal glucose argues against chronic hyperglycemia. Urine findings (cloudy, brown, ammoniacal) may indicate underlying renal or urinary tract pathology. Recommend further nephrological evaluation and assessment for possible acute or chronic kidney disease.</td></tr></table></div>"
            },
            "code": {
              "coding": [
                {
                  "system": "http://loinc.org",
                  "code": "48767-8",
                  "display": "Annotation comment"
                }
              ]
            },
            "title": "Annotation comment"
          }
        ],
        "status": "final",
        "subject": {
          "reference": "urn:uuid:8785bef7-acd0-471a-a29b-d1f38468632e",
          "display": "Meaghan Neary"
        },
        "date": "2016-11-14T23:11:04Z",
        "title": "Laboratory Report",
        "confidentiality": "N"
      }
    },
    {
      "fullUrl": "urn:uuid:d8d3835b-953b-4478-9307-8eab7297ddbf",
      "resource": {
        "resourceType": "DiagnosticReport",
        "id": "d8d3835b-953b-4478-9307-8eab7297ddbf",
        "meta": {
          "profile": [
            "http://hl7.eu/fhir/laboratory/StructureDefinition/DiagnosticReport-eu-lab"
          ]
        },
        "identifier": [
          {
            "assigner": {
              "display": "HL7 Europe"
            },
            "system": "urn:oid:2.16.840.1.113883.2.51.999",
            "value": "5be85150-0093-4628-80df-c9527fc1c748"
          }
        ],
        "extension": [
          {
            "url": "http://hl7.org/fhir/5.0/StructureDefinition/extension-DiagnosticReport.composition",
            "valueReference": {
              "reference": "urn:uuid:1cd0a80d-e584-4827-bba3-901bbe537b46"
            }
          }
        ],
        "category": [
          {
            "coding": [
              {
                "code": "26436-6",
                "system": "http://loinc.org",
                "display": "Laboratory studies (set)"
              }
            ]
          }
        ],
        "specimen": [
          {
            "reference": "urn:uuid:4baf6d3c-6cdb-4945-a924-a77a1a990127"
          },
          {
            "reference": "urn:uuid:0353876e-13c0-4044-bef4-31ccdcbf451c"
          },
          {
            "reference": "urn:uuid:3882ad9b-c4dd-45a5-8302-beede7a7630a"
          }
        ],
        "result": [
          {
            "reference": "urn:uuid:3dc99c2f-caf1-4ef0-a094-6f69c92c6258"
          },
          {
            "reference": "urn:uuid:00f47e62-3147-461f-bf55-5746b1f1201e"
          },
          {
            "reference": "urn:uuid:a961ed3e-91e8-41b7-9cd0-c98e412d10f4"
          },
          {
            "reference": "urn:uuid:f48b9054-3725-4537-b808-25d543514f02"
          },
          {
            "reference": "urn:uuid:3ed7e1ea-77e3-4b38-909b-a58528542a8d"
          },
          {
            "reference": "urn:uuid:d7eddc2d-2577-40cb-8c20-07d94407f0b4"
          },
          {
            "reference": "urn:uuid:64a0bc7b-765b-4d8a-9cab-9b41040db534"
          },
          {
            "reference": "urn:uuid:e36ab31d-f612-4452-9ba9-fcbbd666dc88"
          },
          {
            "reference": "urn:uuid:4c9c54cd-5e3e-423a-883d-a7358cf18857"
          },
          {
            "reference": "urn:uuid:9407b872-d888-4edf-a2b3-ea6030462da1"
          },
          {
            "reference": "urn:uuid:642538e3-cd4b-4428-8342-a57022a5059d"
          },
          {
            "reference": "urn:uuid:06a4f1ad-f95b-4948-b99c-9cc031ac4777"
          },
          {
            "reference": "urn:uuid:6e0a4430-3bf4-411d-8aee-ffd1c70e9cb0"
          },
          {
            "reference": "urn:uuid:127d2c78-e0f5-4cef-96ca-d439c88ee64f"
          },
          {
            "reference": "urn:uuid:b4f4f7c1-1647-4f45-b7c2-608348986a18"
          },
          {
            "reference": "urn:uuid:6c5bd3ac-737b-4a80-ab8c-2c1188e497b8"
          },
          {
            "reference": "urn:uuid:eef9857e-f8ab-4211-9efd-645aba1954a1"
          },
          {
            "reference": "urn:uuid:ad7c5b47-f166-41fb-b8e8-92aab1d27f8e"
          },
          {
            "reference": "urn:uuid:c8286ab4-535a-4fc1-8bf7-9a0ab8cd42ba"
          },
          {
            "reference": "urn:uuid:e3a5a9fc-069c-496f-aac0-622be595dae7"
          },
          {
            "reference": "urn:uuid:655b7df6-429c-470d-9acc-78749d4c5703"
          },
          {
            "reference": "urn:uuid:17a42ee8-8c50-4f3b-ac8c-4a1325bb5705"
          },
          {
            "reference": "urn:uuid:e45582d0-8f83-41a6-864f-5f9988335ce8"
          },
          {
            "reference": "urn:uuid:91387f3a-7af1-4b46-94d8-7a2eea437334"
          },
          {
            "reference": "urn:uuid:7510433f-e9a6-47ae-81a9-dd2b0d6f5fc6"
          },
          {
            "reference": "urn:uuid:5884dd69-004a-40fe-90fe-0d80345f689f"
          },
          {
            "reference": "urn:uuid:b705d636-6615-418d-a374-752eded1d2e1"
          },
          {
            "reference": "urn:uuid:2db916f0-796d-46b5-8ef0-040bc2ada637"
          },
          {
            "reference": "urn:uuid:22f36ddb-9999-42c3-93c7-8aebf90fcba7"
          },
          {
            "reference": "urn:uuid:7f3c3a70-3568-4955-80c9-df0e218b9850"
          },
          {
            "reference": "urn:uuid:820ab3f0-18c4-4b34-9748-bd53b1d3e429"
          },
          {
            "reference": "urn:uuid:b3fe9ec1-4f6c-47c5-9624-b4d91e3b551b"
          },
          {
            "reference": "urn:uuid:9ecbedad-2291-4ddb-bc12-997e62639f78"
          },
          {
            "reference": "urn:uuid:0ae66608-a7df-477b-8fc6-ef081df12818"
          }
        ],
        "status": "registered",
        "code": {
          "coding": [
            {
              "code": "11502-2",
              "system": "http://loinc.org",
              "display": "Laboratory report"
            }
          ]
        },
        "subject": {
          "reference": "urn:uuid:8785bef7-acd0-471a-a29b-d1f38468632e",
          "display": "Meaghan Neary"
        }
      }
    },
    {
      "fullUrl": "urn:uuid:8785bef7-acd0-471a-a29b-d1f38468632e",
      "resource": {
        "resourceType": "Patient",
        "id": "8785bef7-acd0-471a-a29b-d1f38468632e",
        "meta": {
          "security": [
            {
              "system": "http://terminology.hl7.org/CodeSystem/v3-ActReason",
              "code": "HTEST"
            },
            {
              "system": "http://terminology.hl7.org/CodeSystem/v3-ActReason",
              "code": "TRAIN"
            }
          ],
          "tag": [
            {
              "system": "https://synderai.net/fhir/CodeSystem/tags",
              "code": "synthetic",
              "display": "SYNDERAI Synthetic data"
            }
          ],
          "profile": [
            "http://hl7.eu/fhir/base/StructureDefinition/patient-eu-core"
          ]
        },
        "identifier": [
          {
            "type": {
              "coding": [
                {
                  "code": "PT",
                  "system": "http://terminology.hl7.org/CodeSystem/v2-0203"
                }
              ]
            },
            "system": "http://ec.europa.eu/identifier/eci",
            "value": "1586-567257-8"
          },
          {
            "type": {
              "coding": [
                {
                  "code": "MR",
                  "system": "http://terminology.hl7.org/CodeSystem/v2-0203"
                }
              ]
            },
            "system": "http://local.setting.eu/identifier",
            "value": "443e6379-f231-b364-3ccb-644740a1aa2a"
          }
        ],
        "name": [
          {
            "family": "Neary"
          },
          {
            "given": [
              "Meaghan"
            ]
          },
          {
            "text": "Meaghan Neary"
          }
        ],
        "address": [
          {
            "line": [
              "64 Linskey Street"
            ],
            "use": "home",
            "type": "physical",
            "postalCode": "D02",
            "city": "Dublin",
            "country": "Ireland"
          }
        ],
        "telecom": [
          {
            "system": "phone",
            "value": "001-967-573-0911x465"
          }
        ],
        "extension": [
          {
            "url": "http://hl7.org/fhir/StructureDefinition/patient-nationality",
            "valueCodeableConcept": {
              "coding": [
                {
                  "code": "IE",
                  "system": "http://hl7.org/fhir/ValueSet/country"
                }
              ]
            }
          }
        ],
        "text": {
          "status": "generated",
          "div": "<div xmlns=\"http://www.w3.org/1999/xhtml\"><table class=\"hl7__ips\"><tr><td>Meaghan Neary</td><td>female</td><td>19-Dec-1960</td></tr></table></div>"
        },
        "gender": "female",
        "birthDate": "1960-12-19"
      }
    },
    {
      "fullUrl": "urn:uuid:584805ac-e6dd-4a42-9a04-7d79218ca364",
      "resource": {
        "resourceType": "ServiceRequest",
        "id": "584805ac-e6dd-4a42-9a04-7d79218ca364",
        "meta": {
          "profile": [
            "http://hl7.eu/fhir/laboratory/StructureDefinition/ServiceRequest-eu-lab"
          ]
        },
        "identifier": [
          {
            "system": "http://example.org",
            "value": "62ca1a68-b5a1-48bc-9bb7-4ecfe1d8281a"
          }
        ],
        "specimen": [
          {
            "reference": "urn:uuid:4baf6d3c-6cdb-4945-a924-a77a1a990127"
          },
          {
            "reference": "urn:uuid:0353876e-13c0-4044-bef4-31ccdcbf451c"
          },
          {
            "reference": "urn:uuid:3882ad9b-c4dd-45a5-8302-beede7a7630a"
          }
        ],
        "reasonCode": [
          {
            "coding": [
              {
                "code": "55822004",
                "system": "http://snomed.info/sct",
                "display": "Hyperlipidemia"
              }
            ]
          },
          {
            "coding": [
              {
                "code": "433144002",
                "system": "http://snomed.info/sct",
                "display": "Chronic kidney disease stage 3"
              }
            ]
          },
          {
            "coding": [
              {
                "code": "157141000119108",
                "system": "http://snomed.info/sct",
                "display": "Proteinuria due to type 2 diabetes mellitus"
              }
            ]
          },
          {
            "coding": [
              {
                "code": "431856006",
                "system": "http://snomed.info/sct",
                "display": "Chronic kidney disease stage 2"
              }
            ]
          },
          {
            "coding": [
              {
                "code": "90781000119102",
                "system": "http://snomed.info/sct",
                "display": "Microalbuminuria due to type 2 diabetes mellitus"
              }
            ]
          },
          {
            "coding": [
              {
                "code": "127013003",
                "system": "http://snomed.info/sct",
                "display": "Disorder of kidney due to diabetes mellitus"
              }
            ]
          },
          {
            "coding": [
              {
                "code": "431855005",
                "system": "http://snomed.info/sct",
                "display": "Chronic kidney disease stage 1"
              }
            ]
          },
          {
            "coding": [
              {
                "code": "237602007",
                "system": "http://snomed.info/sct",
                "display": "Metabolic syndrome X"
              }
            ]
          },
          {
            "coding": [
              {
                "code": "271737000",
                "system": "http://snomed.info/sct",
                "display": "Anemia"
              }
            ]
          },
          {
            "coding": [
              {
                "code": "15777000",
                "system": "http://snomed.info/sct",
                "display": "Prediabetes"
              }
            ]
          },
          {
            "coding": [
              {
                "code": "59621000",
                "system": "http://snomed.info/sct",
                "display": "Essential hypertension"
              }
            ]
          }
        ],
        "status": "active",
        "intent": "order",
        "code": {
          "coding": [
            {
              "code": "108252007",
              "system": "http://snomed.info/sct",
              "display": "Laboratory procedure"
            }
          ]
        },
        "subject": {
          "reference": "urn:uuid:8785bef7-acd0-471a-a29b-d1f38468632e",
          "display": "Meaghan Neary"
        },
        "requester": {
          "reference": "urn:uuid:2ed9ff0e-b805-40b1-9d49-8f93ec1301e5"
        }
      }
    },
    {
      "fullUrl": "urn:uuid:2ed9ff0e-b805-40b1-9d49-8f93ec1301e5",
      "resource": {
        "resourceType": "PractitionerRole",
        "id": "2ed9ff0e-b805-40b1-9d49-8f93ec1301e5",
        "meta": {
          "profile": [
            "http://hl7.eu/fhir/base/StructureDefinition/practitionerRole-eu"
          ]
        },
        "text": {
          "status": "generated",
          "div": "<div xmlns=\"http://www.w3.org/1999/xhtml\">Provider Role Id: 2ed9ff0e-b805-40b1-9d49-8f93ec1301e5</div>"
        },
        "organization": {
          "reference": "urn:uuid:46fbde1e-e45c-4d4e-88a3-4bdef8f3bcae"
        }
      }
    },
    {
      "fullUrl": "urn:uuid:46fbde1e-e45c-4d4e-88a3-4bdef8f3bcae",
      "resource": {
        "resourceType": "Organization",
        "id": "46fbde1e-e45c-4d4e-88a3-4bdef8f3bcae",
        "meta": {
          "profile": [
            "http://hl7.eu/fhir/base/StructureDefinition/organization-eu"
          ]
        },
        "identifier": [
          {
            "assigner": {
              "display": "HL7 Europe"
            },
            "system": "urn:oid:2.16.840.1.113883.2.51.999",
            "value": "fb4d3a15-35b9-451f-af4b-671f17e26afb"
          }
        ],
        "address": [
          {
            "line": [
              "Parnell Square West nan"
            ],
            "city": "Dublin",
            "postalCode": "D01",
            "country": "Ireland"
          }
        ],
        "text": {
          "status": "generated",
          "div": "<div xmlns=\"http://www.w3.org/1999/xhtml\">Provider Organization: Rotunda Hospital</div>"
        },
        "name": "Rotunda Hospital"
      }
    },
    {
      "fullUrl": "urn:uuid:4baf6d3c-6cdb-4945-a924-a77a1a990127",
      "resource": {
        "resourceType": "Specimen",
        "id": "4baf6d3c-6cdb-4945-a924-a77a1a990127",
        "meta": {
          "profile": [
            "http://hl7.eu/fhir/laboratory/StructureDefinition/Specimen-eu-lab"
          ]
        },
        "collection": {
          "collectedDateTime": "2016-11-14"
        },
        "text": {
          "status": "generated",
          "div": "<div xmlns=\"http://www.w3.org/1999/xhtml\"><table class=\"hl7__eu__lab__report\"><tr><th>Specimen</th><th>Collection Date</th></tr><tr><td>Acellular blood (serum or plasma) specimen</td><td><span class=\"nb\">14-Nov-2016</span></td></tr></table></div>"
        },
        "type": {
          "coding": [
            {
              "code": "122592007",
              "system": "http://snomed.info/sct",
              "display": "Acellular blood (serum or plasma) specimen"
            }
          ]
        }
      }
    },
    {
      "fullUrl": "urn:uuid:0353876e-13c0-4044-bef4-31ccdcbf451c",
      "resource": {
        "resourceType": "Specimen",
        "id": "0353876e-13c0-4044-bef4-31ccdcbf451c",
        "meta": {
          "profile": [
            "http://hl7.eu/fhir/laboratory/StructureDefinition/Specimen-eu-lab"
          ]
        },
        "collection": {
          "collectedDateTime": "2016-11-14"
        },
        "text": {
          "status": "generated",
          "div": "<div xmlns=\"http://www.w3.org/1999/xhtml\"><table class=\"hl7__eu__lab__report\"><tr><th>Specimen</th><th>Collection Date</th></tr><tr><td>Urine specimen</td><td><span class=\"nb\">14-Nov-2016</span></td></tr></table></div>"
        },
        "type": {
          "coding": [
            {
              "code": "122575003",
              "system": "http://snomed.info/sct",
              "display": "Urine specimen"
            }
          ]
        }
      }
    },
    {
      "fullUrl": "urn:uuid:3882ad9b-c4dd-45a5-8302-beede7a7630a",
      "resource": {
        "resourceType": "Specimen",
        "id": "3882ad9b-c4dd-45a5-8302-beede7a7630a",
        "meta": {
          "profile": [
            "http://hl7.eu/fhir/laboratory/StructureDefinition/Specimen-eu-lab"
          ]
        },
        "collection": {
          "collectedDateTime": "2016-11-14"
        },
        "text": {
          "status": "generated",
          "div": "<div xmlns=\"http://www.w3.org/1999/xhtml\"><table class=\"hl7__eu__lab__report\"><tr><th>Specimen</th><th>Collection Date</th></tr><tr><td>Whole blood specimen (specimen)</td><td><span class=\"nb\">14-Nov-2016</span></td></tr></table></div>"
        },
        "type": {
          "coding": [
            {
              "code": "258580003",
              "system": "http://snomed.info/sct",
              "display": "Whole blood specimen (specimen)"
            }
          ]
        }
      }
    },
    {
      "fullUrl": "urn:uuid:3dc99c2f-caf1-4ef0-a094-6f69c92c6258",
      "resource": {
        "resourceType": "Observation",
        "id": "3dc99c2f-caf1-4ef0-a094-6f69c92c6258",
        "meta": {
          "profile": [
            "http://hl7.eu/fhir/laboratory/StructureDefinition/Observation-resultslab-eu-lab"
          ]
        },
        "performer": [
          {
            "display": "The Central European Lab"
          }
        ],
        "category": [
          {
            "coding": [
              {
                "system": "http://terminology.hl7.org/CodeSystem/observation-category",
                "code": "laboratory"
              }
            ]
          }
        ],
        "code": {
          "coding": [
            {
              "code": "2345-7",
              "system": "http://loinc.org",
              "display": "Glucose [Mass/volume] in Serum or Plasma"
            }
          ],
          "text": "Glucose [Mass/volume] in Serum or Plasma"
        },
        "valueQuantity": {
          "system": "http://unitsofmeasure.org",
          "value": 82.4,
          "unit": "mg/dL",
          "code": "mg/dL"
        },
        "referenceRange": [
          {
            "low": {
              "value": 70,
              "code": "mg/dL",
              "system": "http://unitsofmeasure.org"
            }
          },
          {
            "high": {
              "value": 99,
              "code": "mg/dL",
              "system": "http://unitsofmeasure.org"
            }
          }
        ],
        "text": {
          "status": "generated",
          "div": "<div xmlns=\"http://www.w3.org/1999/xhtml\"><table class=\"hl7__eu__lab__report\"><tr><th>Test</th><th>14-Nov-2016</th><th>Reference&#xA0;Range</th><th>Unit</th></tr><tr><td>Glucose [Mass/volume] in Serum or Plasma</td><td>82.4</td><td>70 - 99</td><td></td><td>mg/dL</td></tr></table></div>"
        },
        "status": "final",
        "subject": {
          "reference": "urn:uuid:8785bef7-acd0-471a-a29b-d1f38468632e",
          "display": "Meaghan Neary"
        },
        "effectiveDateTime": "2016-11-14T22:11:04Z",
        "specimen": {
          "reference": "urn:uuid:4baf6d3c-6cdb-4945-a924-a77a1a990127"
        }
      }
    },
    {
      "fullUrl": "urn:uuid:00f47e62-3147-461f-bf55-5746b1f1201e",
      "resource": {
        "resourceType": "Observation",
        "id": "00f47e62-3147-461f-bf55-5746b1f1201e",
        "meta": {
          "profile": [
            "http://hl7.eu/fhir/laboratory/StructureDefinition/Observation-resultslab-eu-lab"
          ]
        },
        "performer": [
          {
            "display": "The Central European Lab"
          }
        ],
        "category": [
          {
            "coding": [
              {
                "system": "http://terminology.hl7.org/CodeSystem/observation-category",
                "code": "laboratory"
              }
            ]
          }
        ],
        "code": {
          "coding": [
            {
              "code": "3094-0",
              "system": "http://loinc.org",
              "display": "Urea nitrogen [Mass/volume] in Serum or Plasma"
            }
          ],
          "text": "Urea nitrogen [Mass/volume] in Serum or Plasma"
        },
        "valueQuantity": {
          "system": "http://unitsofmeasure.org",
          "value": 9.1,
          "unit": "mg/dL",
          "code": "mg/dL"
        },
        "referenceRange": [
          {
            "low": {
              "value": 7,
              "code": "mg/dL",
              "system": "http://unitsofmeasure.org"
            }
          },
          {
            "high": {
              "value": 50,
              "code": "mg/dL",
              "system": "http://unitsofmeasure.org"
            }
          }
        ],
        "text": {
          "status": "generated",
          "div": "<div xmlns=\"http://www.w3.org/1999/xhtml\"><table class=\"hl7__eu__lab__report\"><tr><th>Test</th><th>14-Nov-2016</th><th>Reference&#xA0;Range</th><th>Unit</th></tr><tr><td>Urea nitrogen [Mass/volume] in Serum or Plasma</td><td>9.1</td><td>7 - 50</td><td></td><td>mg/dL</td></tr></table></div>"
        },
        "status": "final",
        "subject": {
          "reference": "urn:uuid:8785bef7-acd0-471a-a29b-d1f38468632e",
          "display": "Meaghan Neary"
        },
        "effectiveDateTime": "2016-11-14T22:11:04Z",
        "specimen": {
          "reference": "urn:uuid:4baf6d3c-6cdb-4945-a924-a77a1a990127"
        }
      }
    },
    {
      "fullUrl": "urn:uuid:a961ed3e-91e8-41b7-9cd0-c98e412d10f4",
      "resource": {
        "resourceType": "Observation",
        "id": "a961ed3e-91e8-41b7-9cd0-c98e412d10f4",
        "meta": {
          "profile": [
            "http://hl7.eu/fhir/laboratory/StructureDefinition/Observation-resultslab-eu-lab"
          ]
        },
        "performer": [
          {
            "display": "The Central European Lab"
          }
        ],
        "category": [
          {
            "coding": [
              {
                "system": "http://terminology.hl7.org/CodeSystem/observation-category",
                "code": "laboratory"
              }
            ]
          }
        ],
        "code": {
          "coding": [
            {
              "code": "2160-0",
              "system": "http://loinc.org",
              "display": "Creatinine [Mass/volume] in Serum or Plasma"
            }
          ],
          "text": "Creatinine [Mass/volume] in Serum or Plasma"
        },
        "valueQuantity": {
          "system": "http://unitsofmeasure.org",
          "value": 1.9,
          "unit": "mg/dL",
          "code": "mg/dL"
        },
        "referenceRange": [
          {
            "low": {
              "value": 0.6,
              "code": "mg/dL",
              "system": "http://unitsofmeasure.org"
            }
          },
          {
            "high": {
              "value": 1.1,
              "code": "mg/dL",
              "system": "http://unitsofmeasure.org"
            }
          }
        ],
        "interpretation": [
          {
            "coding": [
              {
                "code": "H",
                "system": "http://terminology.hl7.org/CodeSystem/v3-ObservationInterpretation",
                "display": "High"
              }
            ]
          }
        ],
        "text": {
          "status": "generated",
          "div": "<div xmlns=\"http://www.w3.org/1999/xhtml\"><table class=\"hl7__eu__lab__report\"><tr><th>Test</th><th>14-Nov-2016</th><th>Reference&#xA0;Range</th><th>Unit</th></tr><tr><td>Creatinine [Mass/volume] in Serum or Plasma</td><td>1.9</td><td>0.6 - 1.1</td><td>H</td><td>mg/dL</td></tr></table></div>"
        },
        "status": "final",
        "subject": {
          "reference": "urn:uuid:8785bef7-acd0-471a-a29b-d1f38468632e",
          "display": "Meaghan Neary"
        },
        "effectiveDateTime": "2016-11-14T22:11:04Z",
        "specimen": {
          "reference": "urn:uuid:4baf6d3c-6cdb-4945-a924-a77a1a990127"
        }
      }
    },
    {
      "fullUrl": "urn:uuid:f48b9054-3725-4537-b808-25d543514f02",
      "resource": {
        "resourceType": "Observation",
        "id": "f48b9054-3725-4537-b808-25d543514f02",
        "meta": {
          "profile": [
            "http://hl7.eu/fhir/laboratory/StructureDefinition/Observation-resultslab-eu-lab"
          ]
        },
        "performer": [
          {
            "display": "The Central European Lab"
          }
        ],
        "category": [
          {
            "coding": [
              {
                "system": "http://terminology.hl7.org/CodeSystem/observation-category",
                "code": "laboratory"
              }
            ]
          }
        ],
        "code": {
          "coding": [
            {
              "code": "17861-6",
              "system": "http://loinc.org",
              "display": "Calcium [Mass/volume] in Serum or Plasma"
            }
          ],
          "text": "Calcium [Mass/volume] in Serum or Plasma"
        },
        "valueQuantity": {
          "system": "http://unitsofmeasure.org",
          "value": 9.4,
          "unit": "mg/dL",
          "code": "mg/dL"
        },
        "referenceRange": [
          {
            "low": {
              "value": 8.6,
              "code": "mg/dL",
              "system": "http://unitsofmeasure.org"
            }
          },
          {
            "high": {
              "value": 10.4,
              "code": "mg/dL",
              "system": "http://unitsofmeasure.org"
            }
          }
        ],
        "text": {
          "status": "generated",
          "div": "<div xmlns=\"http://www.w3.org/1999/xhtml\"><table class=\"hl7__eu__lab__report\"><tr><th>Test</th><th>14-Nov-2016</th><th>Reference&#xA0;Range</th><th>Unit</th></tr><tr><td>Calcium [Mass/volume] in Serum or Plasma</td><td>9.4</td><td>8.6 - 10.4</td><td></td><td>mg/dL</td></tr></table></div>"
        },
        "status": "final",
        "subject": {
          "reference": "urn:uuid:8785bef7-acd0-471a-a29b-d1f38468632e",
          "display": "Meaghan Neary"
        },
        "effectiveDateTime": "2016-11-14T22:11:04Z",
        "specimen": {
          "reference": "urn:uuid:4baf6d3c-6cdb-4945-a924-a77a1a990127"
        }
      }
    },
    {
      "fullUrl": "urn:uuid:3ed7e1ea-77e3-4b38-909b-a58528542a8d",
      "resource": {
        "resourceType": "Observation",
        "id": "3ed7e1ea-77e3-4b38-909b-a58528542a8d",
        "meta": {
          "profile": [
            "http://hl7.eu/fhir/laboratory/StructureDefinition/Observation-resultslab-eu-lab"
          ]
        },
        "performer": [
          {
            "display": "The Central European Lab"
          }
        ],
        "category": [
          {
            "coding": [
              {
                "system": "http://terminology.hl7.org/CodeSystem/observation-category",
                "code": "laboratory"
              }
            ]
          }
        ],
        "code": {
          "coding": [
            {
              "code": "2951-2",
              "system": "http://loinc.org",
              "display": "Sodium [Moles/volume] in Serum or Plasma"
            }
          ],
          "text": "Sodium [Moles/volume] in Serum or Plasma"
        },
        "valueQuantity": {
          "system": "http://unitsofmeasure.org",
          "value": 142,
          "unit": "mmol/L",
          "code": "mmol/L"
        },
        "referenceRange": [
          {
            "low": {
              "value": 135,
              "code": "mmol/L",
              "system": "http://unitsofmeasure.org"
            }
          },
          {
            "high": {
              "value": 145,
              "code": "mmol/L",
              "system": "http://unitsofmeasure.org"
            }
          }
        ],
        "text": {
          "status": "generated",
          "div": "<div xmlns=\"http://www.w3.org/1999/xhtml\"><table class=\"hl7__eu__lab__report\"><tr><th>Test</th><th>14-Nov-2016</th><th>Reference&#xA0;Range</th><th>Unit</th></tr><tr><td>Sodium [Moles/volume] in Serum or Plasma</td><td>142.0</td><td>135 - 145</td><td></td><td>mmol/L</td></tr></table></div>"
        },
        "status": "final",
        "subject": {
          "reference": "urn:uuid:8785bef7-acd0-471a-a29b-d1f38468632e",
          "display": "Meaghan Neary"
        },
        "effectiveDateTime": "2016-11-14T22:11:04Z",
        "specimen": {
          "reference": "urn:uuid:4baf6d3c-6cdb-4945-a924-a77a1a990127"
        }
      }
    },
    {
      "fullUrl": "urn:uuid:d7eddc2d-2577-40cb-8c20-07d94407f0b4",
      "resource": {
        "resourceType": "Observation",
        "id": "d7eddc2d-2577-40cb-8c20-07d94407f0b4",
        "meta": {
          "profile": [
            "http://hl7.eu/fhir/laboratory/StructureDefinition/Observation-resultslab-eu-lab"
          ]
        },
        "performer": [
          {
            "display": "The Central European Lab"
          }
        ],
        "category": [
          {
            "coding": [
              {
                "system": "http://terminology.hl7.org/CodeSystem/observation-category",
                "code": "laboratory"
              }
            ]
          }
        ],
        "code": {
          "coding": [
            {
              "code": "2823-3",
              "system": "http://loinc.org",
              "display": "Potassium [Moles/volume] in Serum or Plasma"
            }
          ],
          "text": "Potassium [Moles/volume] in Serum or Plasma"
        },
        "valueQuantity": {
          "system": "http://unitsofmeasure.org",
          "value": 3.8,
          "unit": "mmol/L",
          "code": "mmol/L"
        },
        "referenceRange": [
          {
            "low": {
              "value": 3.5,
              "code": "mmol/L",
              "system": "http://unitsofmeasure.org"
            }
          },
          {
            "high": {
              "value": 5.1,
              "code": "mmol/L",
              "system": "http://unitsofmeasure.org"
            }
          }
        ],
        "text": {
          "status": "generated",
          "div": "<div xmlns=\"http://www.w3.org/1999/xhtml\"><table class=\"hl7__eu__lab__report\"><tr><th>Test</th><th>14-Nov-2016</th><th>Reference&#xA0;Range</th><th>Unit</th></tr><tr><td>Potassium [Moles/volume] in Serum or Plasma</td><td>3.8</td><td>3.5 - 5.1</td><td></td><td>mmol/L</td></tr></table></div>"
        },
        "status": "final",
        "subject": {
          "reference": "urn:uuid:8785bef7-acd0-471a-a29b-d1f38468632e",
          "display": "Meaghan Neary"
        },
        "effectiveDateTime": "2016-11-14T22:11:04Z",
        "specimen": {
          "reference": "urn:uuid:4baf6d3c-6cdb-4945-a924-a77a1a990127"
        }
      }
    },
    {
      "fullUrl": "urn:uuid:64a0bc7b-765b-4d8a-9cab-9b41040db534",
      "resource": {
        "resourceType": "Observation",
        "id": "64a0bc7b-765b-4d8a-9cab-9b41040db534",
        "meta": {
          "profile": [
            "http://hl7.eu/fhir/laboratory/StructureDefinition/Observation-resultslab-eu-lab"
          ]
        },
        "performer": [
          {
            "display": "The Central European Lab"
          }
        ],
        "category": [
          {
            "coding": [
              {
                "system": "http://terminology.hl7.org/CodeSystem/observation-category",
                "code": "laboratory"
              }
            ]
          }
        ],
        "code": {
          "coding": [
            {
              "code": "2075-0",
              "system": "http://loinc.org",
              "display": "Chloride [Moles/volume] in Serum or Plasma"
            }
          ],
          "text": "Chloride [Moles/volume] in Serum or Plasma"
        },
        "valueQuantity": {
          "system": "http://unitsofmeasure.org",
          "value": 102.3,
          "unit": "mmol/L",
          "code": "mmol/L"
        },
        "referenceRange": [
          {
            "low": {
              "value": 98,
              "code": "mmol/L",
              "system": "http://unitsofmeasure.org"
            }
          },
          {
            "high": {
              "value": 108,
              "code": "mmol/L",
              "system": "http://unitsofmeasure.org"
            }
          }
        ],
        "text": {
          "status": "generated",
          "div": "<div xmlns=\"http://www.w3.org/1999/xhtml\"><table class=\"hl7__eu__lab__report\"><tr><th>Test</th><th>14-Nov-2016</th><th>Reference&#xA0;Range</th><th>Unit</th></tr><tr><td>Chloride [Moles/volume] in Serum or Plasma</td><td>102.3</td><td>98 - 108</td><td></td><td>mmol/L</td></tr></table></div>"
        },
        "status": "final",
        "subject": {
          "reference": "urn:uuid:8785bef7-acd0-471a-a29b-d1f38468632e",
          "display": "Meaghan Neary"
        },
        "effectiveDateTime": "2016-11-14T22:11:04Z",
        "specimen": {
          "reference": "urn:uuid:4baf6d3c-6cdb-4945-a924-a77a1a990127"
        }
      }
    },
    {
      "fullUrl": "urn:uuid:e36ab31d-f612-4452-9ba9-fcbbd666dc88",
      "resource": {
        "resourceType": "Observation",
        "id": "e36ab31d-f612-4452-9ba9-fcbbd666dc88",
        "meta": {
          "profile": [
            "http://hl7.eu/fhir/laboratory/StructureDefinition/Observation-resultslab-eu-lab"
          ]
        },
        "performer": [
          {
            "display": "The Central European Lab"
          }
        ],
        "category": [
          {
            "coding": [
              {
                "system": "http://terminology.hl7.org/CodeSystem/observation-category",
                "code": "laboratory"
              }
            ]
          }
        ],
        "code": {
          "coding": [
            {
              "code": "2028-9",
              "system": "http://loinc.org",
              "display": "Carbon dioxide, total [Moles/volume] in Serum or Plasma"
            }
          ],
          "text": "Carbon dioxide, total [Moles/volume] in Serum or Plasma"
        },
        "valueQuantity": {
          "system": "http://unitsofmeasure.org",
          "value": 20.9,
          "unit": "mmol/L",
          "code": "mmol/L"
        },
        "referenceRange": [
          {
            "low": {
              "value": 22,
              "code": "mmol/L",
              "system": "http://unitsofmeasure.org"
            }
          },
          {
            "high": {
              "value": 32,
              "code": "mmol/L",
              "system": "http://unitsofmeasure.org"
            }
          }
        ],
        "interpretation": [
          {
            "coding": [
              {
                "code": "L",
                "system": "http://terminology.hl7.org/CodeSystem/v3-ObservationInterpretation",
                "display": "Low"
              }
            ]
          }
        ],
        "text": {
          "status": "generated",
          "div": "<div xmlns=\"http://www.w3.org/1999/xhtml\"><table class=\"hl7__eu__lab__report\"><tr><th>Test</th><th>14-Nov-2016</th><th>Reference&#xA0;Range</th><th>Unit</th></tr><tr><td>Carbon dioxide, total [Moles/volume] in Serum or Plasma</td><td>20.9</td><td>22 - 32</td><td>L</td><td>mmol/L</td></tr></table></div>"
        },
        "status": "final",
        "subject": {
          "reference": "urn:uuid:8785bef7-acd0-471a-a29b-d1f38468632e",
          "display": "Meaghan Neary"
        },
        "effectiveDateTime": "2016-11-14T22:11:04Z",
        "specimen": {
          "reference": "urn:uuid:4baf6d3c-6cdb-4945-a924-a77a1a990127"
        }
      }
    },
    {
      "fullUrl": "urn:uuid:4c9c54cd-5e3e-423a-883d-a7358cf18857",
      "resource": {
        "resourceType": "Observation",
        "id": "4c9c54cd-5e3e-423a-883d-a7358cf18857",
        "meta": {
          "profile": [
            "http://hl7.eu/fhir/laboratory/StructureDefinition/Observation-resultslab-eu-lab"
          ]
        },
        "performer": [
          {
            "display": "The Central European Lab"
          }
        ],
        "category": [
          {
            "coding": [
              {
                "system": "http://terminology.hl7.org/CodeSystem/observation-category",
                "code": "laboratory"
              }
            ]
          }
        ],
        "code": {
          "coding": [
            {
              "code": "5767-9",
              "system": "http://loinc.org",
              "display": "Appearance of Urine"
            }
          ],
          "text": "Appearance of Urine"
        },
        "text": {
          "status": "generated",
          "div": "<div xmlns=\"http://www.w3.org/1999/xhtml\"><table class=\"hl7__eu__lab__report\"><tr><th>Test</th><th>14-Nov-2016</th><th>Reference&#xA0;Range</th><th>Unit</th></tr><tr><td>Appearance of Urine</td></tr></table></div>"
        },
        "status": "final",
        "subject": {
          "reference": "urn:uuid:8785bef7-acd0-471a-a29b-d1f38468632e",
          "display": "Meaghan Neary"
        },
        "effectiveDateTime": "2016-11-14T22:11:04Z",
        "specimen": {
          "reference": "urn:uuid:0353876e-13c0-4044-bef4-31ccdcbf451c"
        }
      }
    },
    {
      "fullUrl": "urn:uuid:9407b872-d888-4edf-a2b3-ea6030462da1",
      "resource": {
        "resourceType": "Observation",
        "id": "9407b872-d888-4edf-a2b3-ea6030462da1",
        "meta": {
          "profile": [
            "http://hl7.eu/fhir/laboratory/StructureDefinition/Observation-resultslab-eu-lab"
          ]
        },
        "performer": [
          {
            "display": "The Central European Lab"
          }
        ],
        "category": [
          {
            "coding": [
              {
                "system": "http://terminology.hl7.org/CodeSystem/observation-category",
                "code": "laboratory"
              }
            ]
          }
        ],
        "code": {
          "coding": [
            {
              "code": "34533-0",
              "system": "http://loinc.org",
              "display": "Odor of Urine"
            }
          ],
          "text": "Odor of Urine"
        },
        "text": {
          "status": "generated",
          "div": "<div xmlns=\"http://www.w3.org/1999/xhtml\"><table class=\"hl7__eu__lab__report\"><tr><th>Test</th><th>14-Nov-2016</th><th>Reference&#xA0;Range</th><th>Unit</th></tr><tr><td>Odor of Urine</td></tr></table></div>"
        },
        "status": "final",
        "subject": {
          "reference": "urn:uuid:8785bef7-acd0-471a-a29b-d1f38468632e",
          "display": "Meaghan Neary"
        },
        "effectiveDateTime": "2016-11-14T22:11:04Z",
        "specimen": {
          "reference": "urn:uuid:0353876e-13c0-4044-bef4-31ccdcbf451c"
        }
      }
    },
    {
      "fullUrl": "urn:uuid:642538e3-cd4b-4428-8342-a57022a5059d",
      "resource": {
        "resourceType": "Observation",
        "id": "642538e3-cd4b-4428-8342-a57022a5059d",
        "meta": {
          "profile": [
            "http://hl7.eu/fhir/laboratory/StructureDefinition/Observation-resultslab-eu-lab"
          ]
        },
        "performer": [
          {
            "display": "The Central European Lab"
          }
        ],
        "category": [
          {
            "coding": [
              {
                "system": "http://terminology.hl7.org/CodeSystem/observation-category",
                "code": "laboratory"
              }
            ]
          }
        ],
        "code": {
          "coding": [
            {
              "code": "32167-9",
              "system": "http://loinc.org",
              "display": "Clarity of Urine"
            }
          ],
          "text": "Clarity of Urine"
        },
        "text": {
          "status": "generated",
          "div": "<div xmlns=\"http://www.w3.org/1999/xhtml\"><table class=\"hl7__eu__lab__report\"><tr><th>Test</th><th>14-Nov-2016</th><th>Reference&#xA0;Range</th><th>Unit</th></tr><tr><td>Clarity of Urine</td></tr></table></div>"
        },
        "status": "final",
        "subject": {
          "reference": "urn:uuid:8785bef7-acd0-471a-a29b-d1f38468632e",
          "display": "Meaghan Neary"
        },
        "effectiveDateTime": "2016-11-14T22:11:04Z",
        "specimen": {
          "reference": "urn:uuid:0353876e-13c0-4044-bef4-31ccdcbf451c"
        }
      }
    },
    {
      "fullUrl": "urn:uuid:06a4f1ad-f95b-4948-b99c-9cc031ac4777",
      "resource": {
        "resourceType": "Observation",
        "id": "06a4f1ad-f95b-4948-b99c-9cc031ac4777",
        "meta": {
          "profile": [
            "http://hl7.eu/fhir/laboratory/StructureDefinition/Observation-resultslab-eu-lab"
          ]
        },
        "performer": [
          {
            "display": "The Central European Lab"
          }
        ],
        "category": [
          {
            "coding": [
              {
                "system": "http://terminology.hl7.org/CodeSystem/observation-category",
                "code": "laboratory"
              }
            ]
          }
        ],
        "code": {
          "coding": [
            {
              "code": "5778-6",
              "system": "http://loinc.org",
              "display": "Color of Urine"
            }
          ],
          "text": "Color of Urine"
        },
        "text": {
          "status": "generated",
          "div": "<div xmlns=\"http://www.w3.org/1999/xhtml\"><table class=\"hl7__eu__lab__report\"><tr><th>Test</th><th>14-Nov-2016</th><th>Reference&#xA0;Range</th><th>Unit</th></tr><tr><td>Color of Urine</td></tr></table></div>"
        },
        "status": "final",
        "subject": {
          "reference": "urn:uuid:8785bef7-acd0-471a-a29b-d1f38468632e",
          "display": "Meaghan Neary"
        },
        "effectiveDateTime": "2016-11-14T22:11:04Z",
        "specimen": {
          "reference": "urn:uuid:0353876e-13c0-4044-bef4-31ccdcbf451c"
        }
      }
    },
    {
      "fullUrl": "urn:uuid:6e0a4430-3bf4-411d-8aee-ffd1c70e9cb0",
      "resource": {
        "resourceType": "Observation",
        "id": "6e0a4430-3bf4-411d-8aee-ffd1c70e9cb0",
        "meta": {
          "profile": [
            "http://hl7.eu/fhir/laboratory/StructureDefinition/Observation-resultslab-eu-lab"
          ]
        },
        "performer": [
          {
            "display": "The Central European Lab"
          }
        ],
        "category": [
          {
            "coding": [
              {
                "system": "http://terminology.hl7.org/CodeSystem/observation-category",
                "code": "laboratory"
              }
            ]
          }
        ],
        "code": {
          "coding": [
            {
              "code": "5792-7",
              "system": "http://loinc.org",
              "display": "Glucose [Mass/volume] in Urine by Test strip"
            }
          ],
          "text": "Glucose [Mass/volume] in Urine by Test strip"
        },
        "valueQuantity": {
          "system": "http://unitsofmeasure.org",
          "value": 2.1,
          "unit": "mg/dL",
          "code": "mg/dL"
        },
        "referenceRange": [
          {
            "low": {
              "value": 0.8,
              "code": "mg/dL",
              "system": "http://unitsofmeasure.org"
            }
          },
          {
            "high": {
              "value": 0,
              "code": "mg/dL",
              "system": "http://unitsofmeasure.org"
            }
          }
        ],
        "interpretation": [
          {
            "coding": [
              {
                "code": "H",
                "system": "http://terminology.hl7.org/CodeSystem/v3-ObservationInterpretation",
                "display": "High"
              }
            ]
          }
        ],
        "text": {
          "status": "generated",
          "div": "<div xmlns=\"http://www.w3.org/1999/xhtml\"><table class=\"hl7__eu__lab__report\"><tr><th>Test</th><th>14-Nov-2016</th><th>Reference&#xA0;Range</th><th>Unit</th></tr><tr><td>Glucose [Mass/volume] in Urine by Test strip</td><td>2.1</td><td>0.8 - 0</td><td>H</td><td>mg/dL</td></tr></table></div>"
        },
        "status": "final",
        "subject": {
          "reference": "urn:uuid:8785bef7-acd0-471a-a29b-d1f38468632e",
          "display": "Meaghan Neary"
        },
        "effectiveDateTime": "2016-11-14T22:11:04Z",
        "specimen": {
          "reference": "urn:uuid:0353876e-13c0-4044-bef4-31ccdcbf451c"
        }
      }
    },
    {
      "fullUrl": "urn:uuid:127d2c78-e0f5-4cef-96ca-d439c88ee64f",
      "resource": {
        "resourceType": "Observation",
        "id": "127d2c78-e0f5-4cef-96ca-d439c88ee64f",
        "meta": {
          "profile": [
            "http://hl7.eu/fhir/laboratory/StructureDefinition/Observation-resultslab-eu-lab"
          ]
        },
        "performer": [
          {
            "display": "The Central European Lab"
          }
        ],
        "category": [
          {
            "coding": [
              {
                "system": "http://terminology.hl7.org/CodeSystem/observation-category",
                "code": "laboratory"
              }
            ]
          }
        ],
        "code": {
          "coding": [
            {
              "code": "25428-4",
              "system": "http://loinc.org",
              "display": "Glucose [Presence] in Urine by Test strip"
            }
          ],
          "text": "Glucose [Presence] in Urine by Test strip"
        },
        "text": {
          "status": "generated",
          "div": "<div xmlns=\"http://www.w3.org/1999/xhtml\"><table class=\"hl7__eu__lab__report\"><tr><th>Test</th><th>14-Nov-2016</th><th>Reference&#xA0;Range</th><th>Unit</th></tr><tr><td>Glucose [Presence] in Urine by Test strip</td></tr></table></div>"
        },
        "status": "final",
        "subject": {
          "reference": "urn:uuid:8785bef7-acd0-471a-a29b-d1f38468632e",
          "display": "Meaghan Neary"
        },
        "effectiveDateTime": "2016-11-14T22:11:04Z",
        "specimen": {
          "reference": "urn:uuid:0353876e-13c0-4044-bef4-31ccdcbf451c"
        }
      }
    },
    {
      "fullUrl": "urn:uuid:b4f4f7c1-1647-4f45-b7c2-608348986a18",
      "resource": {
        "resourceType": "Observation",
        "id": "b4f4f7c1-1647-4f45-b7c2-608348986a18",
        "meta": {
          "profile": [
            "http://hl7.eu/fhir/laboratory/StructureDefinition/Observation-resultslab-eu-lab"
          ]
        },
        "performer": [
          {
            "display": "The Central European Lab"
          }
        ],
        "category": [
          {
            "coding": [
              {
                "system": "http://terminology.hl7.org/CodeSystem/observation-category",
                "code": "laboratory"
              }
            ]
          }
        ],
        "code": {
          "coding": [
            {
              "code": "20505-4",
              "system": "http://loinc.org",
              "display": "Bilirubin.total [Mass/volume] in Urine by Test strip"
            }
          ],
          "text": "Bilirubin.total [Mass/volume] in Urine by Test strip"
        },
        "valueQuantity": {
          "system": "http://unitsofmeasure.org",
          "value": 0.6,
          "unit": "mg/dL",
          "code": "mg/dL"
        },
        "referenceRange": [
          {
            "low": {
              "value": 0,
              "code": "mg/dL",
              "system": "http://unitsofmeasure.org"
            }
          },
          {
            "high": {
              "value": 1,
              "code": "mg/dL",
              "system": "http://unitsofmeasure.org"
            }
          }
        ],
        "text": {
          "status": "generated",
          "div": "<div xmlns=\"http://www.w3.org/1999/xhtml\"><table class=\"hl7__eu__lab__report\"><tr><th>Test</th><th>14-Nov-2016</th><th>Reference&#xA0;Range</th><th>Unit</th></tr><tr><td>Bilirubin.total [Mass/volume] in Urine by Test strip</td><td>0.6</td><td>0 - 1</td><td></td><td>mg/dL</td></tr></table></div>"
        },
        "status": "final",
        "subject": {
          "reference": "urn:uuid:8785bef7-acd0-471a-a29b-d1f38468632e",
          "display": "Meaghan Neary"
        },
        "effectiveDateTime": "2016-11-14T22:11:04Z",
        "specimen": {
          "reference": "urn:uuid:0353876e-13c0-4044-bef4-31ccdcbf451c"
        }
      }
    },
    {
      "fullUrl": "urn:uuid:6c5bd3ac-737b-4a80-ab8c-2c1188e497b8",
      "resource": {
        "resourceType": "Observation",
        "id": "6c5bd3ac-737b-4a80-ab8c-2c1188e497b8",
        "meta": {
          "profile": [
            "http://hl7.eu/fhir/laboratory/StructureDefinition/Observation-resultslab-eu-lab"
          ]
        },
        "performer": [
          {
            "display": "The Central European Lab"
          }
        ],
        "category": [
          {
            "coding": [
              {
                "system": "http://terminology.hl7.org/CodeSystem/observation-category",
                "code": "laboratory"
              }
            ]
          }
        ],
        "code": {
          "coding": [
            {
              "code": "5770-3",
              "system": "http://loinc.org",
              "display": "Bilirubin.total [Presence] in Urine by Test strip"
            }
          ],
          "text": "Bilirubin.total [Presence] in Urine by Test strip"
        },
        "text": {
          "status": "generated",
          "div": "<div xmlns=\"http://www.w3.org/1999/xhtml\"><table class=\"hl7__eu__lab__report\"><tr><th>Test</th><th>14-Nov-2016</th><th>Reference&#xA0;Range</th><th>Unit</th></tr><tr><td>Bilirubin.total [Presence] in Urine by Test strip</td></tr></table></div>"
        },
        "status": "final",
        "subject": {
          "reference": "urn:uuid:8785bef7-acd0-471a-a29b-d1f38468632e",
          "display": "Meaghan Neary"
        },
        "effectiveDateTime": "2016-11-14T22:11:04Z",
        "specimen": {
          "reference": "urn:uuid:0353876e-13c0-4044-bef4-31ccdcbf451c"
        }
      }
    },
    {
      "fullUrl": "urn:uuid:eef9857e-f8ab-4211-9efd-645aba1954a1",
      "resource": {
        "resourceType": "Observation",
        "id": "eef9857e-f8ab-4211-9efd-645aba1954a1",
        "meta": {
          "profile": [
            "http://hl7.eu/fhir/laboratory/StructureDefinition/Observation-resultslab-eu-lab"
          ]
        },
        "performer": [
          {
            "display": "The Central European Lab"
          }
        ],
        "category": [
          {
            "coding": [
              {
                "system": "http://terminology.hl7.org/CodeSystem/observation-category",
                "code": "laboratory"
              }
            ]
          }
        ],
        "code": {
          "coding": [
            {
              "code": "5797-6",
              "system": "http://loinc.org",
              "display": "Ketones [Mass/volume] in Urine by Test strip"
            }
          ],
          "text": "Ketones [Mass/volume] in Urine by Test strip"
        },
        "valueQuantity": {
          "system": "http://unitsofmeasure.org",
          "value": 14.8,
          "unit": "mg/dL",
          "code": "mg/dL"
        },
        "referenceRange": [
          {
            "low": {
              "value": 0,
              "code": "mg/dL",
              "system": "http://unitsofmeasure.org"
            }
          },
          {
            "high": {
              "value": 4,
              "code": "mg/dL",
              "system": "http://unitsofmeasure.org"
            }
          }
        ],
        "interpretation": [
          {
            "coding": [
              {
                "code": "H",
                "system": "http://terminology.hl7.org/CodeSystem/v3-ObservationInterpretation",
                "display": "High"
              }
            ]
          }
        ],
        "text": {
          "status": "generated",
          "div": "<div xmlns=\"http://www.w3.org/1999/xhtml\"><table class=\"hl7__eu__lab__report\"><tr><th>Test</th><th>14-Nov-2016</th><th>Reference&#xA0;Range</th><th>Unit</th></tr><tr><td>Ketones [Mass/volume] in Urine by Test strip</td><td>14.8</td><td>0 - 4</td><td>H</td><td>mg/dL</td></tr></table></div>"
        },
        "status": "final",
        "subject": {
          "reference": "urn:uuid:8785bef7-acd0-471a-a29b-d1f38468632e",
          "display": "Meaghan Neary"
        },
        "effectiveDateTime": "2016-11-14T22:11:04Z",
        "specimen": {
          "reference": "urn:uuid:0353876e-13c0-4044-bef4-31ccdcbf451c"
        }
      }
    },
    {
      "fullUrl": "urn:uuid:ad7c5b47-f166-41fb-b8e8-92aab1d27f8e",
      "resource": {
        "resourceType": "Observation",
        "id": "ad7c5b47-f166-41fb-b8e8-92aab1d27f8e",
        "meta": {
          "profile": [
            "http://hl7.eu/fhir/laboratory/StructureDefinition/Observation-resultslab-eu-lab"
          ]
        },
        "performer": [
          {
            "display": "The Central European Lab"
          }
        ],
        "category": [
          {
            "coding": [
              {
                "system": "http://terminology.hl7.org/CodeSystem/observation-category",
                "code": "laboratory"
              }
            ]
          }
        ],
        "code": {
          "coding": [
            {
              "code": "2514-8",
              "system": "http://loinc.org",
              "display": "Ketones [Presence] in Urine by Test strip"
            }
          ],
          "text": "Ketones [Presence] in Urine by Test strip"
        },
        "text": {
          "status": "generated",
          "div": "<div xmlns=\"http://www.w3.org/1999/xhtml\"><table class=\"hl7__eu__lab__report\"><tr><th>Test</th><th>14-Nov-2016</th><th>Reference&#xA0;Range</th><th>Unit</th></tr><tr><td>Ketones [Presence] in Urine by Test strip</td></tr></table></div>"
        },
        "status": "final",
        "subject": {
          "reference": "urn:uuid:8785bef7-acd0-471a-a29b-d1f38468632e",
          "display": "Meaghan Neary"
        },
        "effectiveDateTime": "2016-11-14T22:11:04Z",
        "specimen": {
          "reference": "urn:uuid:0353876e-13c0-4044-bef4-31ccdcbf451c"
        }
      }
    },
    {
      "fullUrl": "urn:uuid:c8286ab4-535a-4fc1-8bf7-9a0ab8cd42ba",
      "resource": {
        "resourceType": "Observation",
        "id": "c8286ab4-535a-4fc1-8bf7-9a0ab8cd42ba",
        "meta": {
          "profile": [
            "http://hl7.eu/fhir/laboratory/StructureDefinition/Observation-resultslab-eu-lab"
          ]
        },
        "performer": [
          {
            "display": "The Central European Lab"
          }
        ],
        "category": [
          {
            "coding": [
              {
                "system": "http://terminology.hl7.org/CodeSystem/observation-category",
                "code": "laboratory"
              }
            ]
          }
        ],
        "code": {
          "coding": [
            {
              "code": "5811-5",
              "system": "http://loinc.org",
              "display": "Specific gravity of Urine by Test strip"
            }
          ],
          "text": "Specific gravity of Urine by Test strip"
        },
        "valueQuantity": {
          "system": "http://unitsofmeasure.org",
          "value": 1,
          "unit": "{nominal}",
          "code": "{nominal}"
        },
        "referenceRange": [
          {
            "low": {
              "value": 1.005,
              "code": "g/mL",
              "system": "http://unitsofmeasure.org"
            }
          },
          {
            "high": {
              "value": 1.03,
              "code": "g/mL",
              "system": "http://unitsofmeasure.org"
            }
          }
        ],
        "interpretation": [
          {
            "coding": [
              {
                "code": "L",
                "system": "http://terminology.hl7.org/CodeSystem/v3-ObservationInterpretation",
                "display": "Low"
              }
            ]
          }
        ],
        "text": {
          "status": "generated",
          "div": "<div xmlns=\"http://www.w3.org/1999/xhtml\"><table class=\"hl7__eu__lab__report\"><tr><th>Test</th><th>14-Nov-2016</th><th>Reference&#xA0;Range</th><th>Unit</th></tr><tr><td>Specific gravity of Urine by Test strip</td><td>1.0</td><td>1.005 - 1.03</td><td>L</td><td>{nominal}</td></tr></table></div>"
        },
        "status": "final",
        "subject": {
          "reference": "urn:uuid:8785bef7-acd0-471a-a29b-d1f38468632e",
          "display": "Meaghan Neary"
        },
        "effectiveDateTime": "2016-11-14T22:11:04Z",
        "specimen": {
          "reference": "urn:uuid:0353876e-13c0-4044-bef4-31ccdcbf451c"
        }
      }
    },
    {
      "fullUrl": "urn:uuid:e3a5a9fc-069c-496f-aac0-622be595dae7",
      "resource": {
        "resourceType": "Observation",
        "id": "e3a5a9fc-069c-496f-aac0-622be595dae7",
        "meta": {
          "profile": [
            "http://hl7.eu/fhir/laboratory/StructureDefinition/Observation-resultslab-eu-lab"
          ]
        },
        "performer": [
          {
            "display": "The Central European Lab"
          }
        ],
        "category": [
          {
            "coding": [
              {
                "system": "http://terminology.hl7.org/CodeSystem/observation-category",
                "code": "laboratory"
              }
            ]
          }
        ],
        "code": {
          "coding": [
            {
              "code": "5803-2",
              "system": "http://loinc.org",
              "display": "pH of Urine by Test strip"
            }
          ],
          "text": "pH of Urine by Test strip"
        },
        "valueQuantity": {
          "system": "http://unitsofmeasure.org",
          "value": 6.8,
          "unit": "pH",
          "code": "pH"
        },
        "referenceRange": [
          {
            "low": {
              "value": 4.6,
              "code": "pH",
              "system": "http://unitsofmeasure.org"
            }
          },
          {
            "high": {
              "value": 7,
              "code": "pH",
              "system": "http://unitsofmeasure.org"
            }
          }
        ],
        "text": {
          "status": "generated",
          "div": "<div xmlns=\"http://www.w3.org/1999/xhtml\"><table class=\"hl7__eu__lab__report\"><tr><th>Test</th><th>14-Nov-2016</th><th>Reference&#xA0;Range</th><th>Unit</th></tr><tr><td>pH of Urine by Test strip</td><td>6.8</td><td>4.6 - 7</td><td></td><td>pH</td></tr></table></div>"
        },
        "status": "final",
        "subject": {
          "reference": "urn:uuid:8785bef7-acd0-471a-a29b-d1f38468632e",
          "display": "Meaghan Neary"
        },
        "effectiveDateTime": "2016-11-14T22:11:04Z",
        "specimen": {
          "reference": "urn:uuid:0353876e-13c0-4044-bef4-31ccdcbf451c"
        }
      }
    },
    {
      "fullUrl": "urn:uuid:655b7df6-429c-470d-9acc-78749d4c5703",
      "resource": {
        "resourceType": "Observation",
        "id": "655b7df6-429c-470d-9acc-78749d4c5703",
        "meta": {
          "profile": [
            "http://hl7.eu/fhir/laboratory/StructureDefinition/Observation-resultslab-eu-lab"
          ]
        },
        "performer": [
          {
            "display": "The Central European Lab"
          }
        ],
        "category": [
          {
            "coding": [
              {
                "system": "http://terminology.hl7.org/CodeSystem/observation-category",
                "code": "laboratory"
              }
            ]
          }
        ],
        "code": {
          "coding": [
            {
              "code": "5804-0",
              "system": "http://loinc.org",
              "display": "Protein [Mass/volume] in Urine by Test strip"
            }
          ],
          "text": "Protein [Mass/volume] in Urine by Test strip"
        },
        "valueQuantity": {
          "system": "http://unitsofmeasure.org",
          "value": 330.9,
          "unit": "mg/dL",
          "code": "mg/dL"
        },
        "referenceRange": [
          {
            "low": {
              "value": 0,
              "code": "mg/dL",
              "system": "http://unitsofmeasure.org"
            }
          },
          {
            "high": {
              "value": 14,
              "code": "mg/dL",
              "system": "http://unitsofmeasure.org"
            }
          }
        ],
        "interpretation": [
          {
            "coding": [
              {
                "code": "H",
                "system": "http://terminology.hl7.org/CodeSystem/v3-ObservationInterpretation",
                "display": "High"
              }
            ]
          }
        ],
        "text": {
          "status": "generated",
          "div": "<div xmlns=\"http://www.w3.org/1999/xhtml\"><table class=\"hl7__eu__lab__report\"><tr><th>Test</th><th>14-Nov-2016</th><th>Reference&#xA0;Range</th><th>Unit</th></tr><tr><td>Protein [Mass/volume] in Urine by Test strip</td><td>330.9</td><td>0 - 14</td><td>H</td><td>mg/dL</td></tr></table></div>"
        },
        "status": "final",
        "subject": {
          "reference": "urn:uuid:8785bef7-acd0-471a-a29b-d1f38468632e",
          "display": "Meaghan Neary"
        },
        "effectiveDateTime": "2016-11-14T22:11:04Z",
        "specimen": {
          "reference": "urn:uuid:0353876e-13c0-4044-bef4-31ccdcbf451c"
        }
      }
    },
    {
      "fullUrl": "urn:uuid:17a42ee8-8c50-4f3b-ac8c-4a1325bb5705",
      "resource": {
        "resourceType": "Observation",
        "id": "17a42ee8-8c50-4f3b-ac8c-4a1325bb5705",
        "meta": {
          "profile": [
            "http://hl7.eu/fhir/laboratory/StructureDefinition/Observation-resultslab-eu-lab"
          ]
        },
        "performer": [
          {
            "display": "The Central European Lab"
          }
        ],
        "category": [
          {
            "coding": [
              {
                "system": "http://terminology.hl7.org/CodeSystem/observation-category",
                "code": "laboratory"
              }
            ]
          }
        ],
        "code": {
          "coding": [
            {
              "code": "20454-5",
              "system": "http://loinc.org",
              "display": "Protein [Presence] in Urine by Test strip"
            }
          ],
          "text": "Protein [Presence] in Urine by Test strip"
        },
        "text": {
          "status": "generated",
          "div": "<div xmlns=\"http://www.w3.org/1999/xhtml\"><table class=\"hl7__eu__lab__report\"><tr><th>Test</th><th>14-Nov-2016</th><th>Reference&#xA0;Range</th><th>Unit</th></tr><tr><td>Protein [Presence] in Urine by Test strip</td></tr></table></div>"
        },
        "status": "final",
        "subject": {
          "reference": "urn:uuid:8785bef7-acd0-471a-a29b-d1f38468632e",
          "display": "Meaghan Neary"
        },
        "effectiveDateTime": "2016-11-14T22:11:04Z",
        "specimen": {
          "reference": "urn:uuid:0353876e-13c0-4044-bef4-31ccdcbf451c"
        }
      }
    },
    {
      "fullUrl": "urn:uuid:e45582d0-8f83-41a6-864f-5f9988335ce8",
      "resource": {
        "resourceType": "Observation",
        "id": "e45582d0-8f83-41a6-864f-5f9988335ce8",
        "meta": {
          "profile": [
            "http://hl7.eu/fhir/laboratory/StructureDefinition/Observation-resultslab-eu-lab"
          ]
        },
        "performer": [
          {
            "display": "The Central European Lab"
          }
        ],
        "category": [
          {
            "coding": [
              {
                "system": "http://terminology.hl7.org/CodeSystem/observation-category",
                "code": "laboratory"
              }
            ]
          }
        ],
        "code": {
          "coding": [
            {
              "code": "5802-4",
              "system": "http://loinc.org",
              "display": "Nitrite [Presence] in Urine by Test strip"
            }
          ],
          "text": "Nitrite [Presence] in Urine by Test strip"
        },
        "text": {
          "status": "generated",
          "div": "<div xmlns=\"http://www.w3.org/1999/xhtml\"><table class=\"hl7__eu__lab__report\"><tr><th>Test</th><th>14-Nov-2016</th><th>Reference&#xA0;Range</th><th>Unit</th></tr><tr><td>Nitrite [Presence] in Urine by Test strip</td></tr></table></div>"
        },
        "status": "final",
        "subject": {
          "reference": "urn:uuid:8785bef7-acd0-471a-a29b-d1f38468632e",
          "display": "Meaghan Neary"
        },
        "effectiveDateTime": "2016-11-14T22:11:04Z",
        "specimen": {
          "reference": "urn:uuid:0353876e-13c0-4044-bef4-31ccdcbf451c"
        }
      }
    },
    {
      "fullUrl": "urn:uuid:91387f3a-7af1-4b46-94d8-7a2eea437334",
      "resource": {
        "resourceType": "Observation",
        "id": "91387f3a-7af1-4b46-94d8-7a2eea437334",
        "meta": {
          "profile": [
            "http://hl7.eu/fhir/laboratory/StructureDefinition/Observation-resultslab-eu-lab"
          ]
        },
        "performer": [
          {
            "display": "The Central European Lab"
          }
        ],
        "category": [
          {
            "coding": [
              {
                "system": "http://terminology.hl7.org/CodeSystem/observation-category",
                "code": "laboratory"
              }
            ]
          }
        ],
        "code": {
          "coding": [
            {
              "code": "5794-3",
              "system": "http://loinc.org",
              "display": "Hemoglobin [Presence] in Urine by Test strip"
            }
          ],
          "text": "Hemoglobin [Presence] in Urine by Test strip"
        },
        "text": {
          "status": "generated",
          "div": "<div xmlns=\"http://www.w3.org/1999/xhtml\"><table class=\"hl7__eu__lab__report\"><tr><th>Test</th><th>14-Nov-2016</th><th>Reference&#xA0;Range</th><th>Unit</th></tr><tr><td>Hemoglobin [Presence] in Urine by Test strip</td></tr></table></div>"
        },
        "status": "final",
        "subject": {
          "reference": "urn:uuid:8785bef7-acd0-471a-a29b-d1f38468632e",
          "display": "Meaghan Neary"
        },
        "effectiveDateTime": "2016-11-14T22:11:04Z",
        "specimen": {
          "reference": "urn:uuid:0353876e-13c0-4044-bef4-31ccdcbf451c"
        }
      }
    },
    {
      "fullUrl": "urn:uuid:7510433f-e9a6-47ae-81a9-dd2b0d6f5fc6",
      "resource": {
        "resourceType": "Observation",
        "id": "7510433f-e9a6-47ae-81a9-dd2b0d6f5fc6",
        "meta": {
          "profile": [
            "http://hl7.eu/fhir/laboratory/StructureDefinition/Observation-resultslab-eu-lab"
          ]
        },
        "performer": [
          {
            "display": "The Central European Lab"
          }
        ],
        "category": [
          {
            "coding": [
              {
                "system": "http://terminology.hl7.org/CodeSystem/observation-category",
                "code": "laboratory"
              }
            ]
          }
        ],
        "code": {
          "coding": [
            {
              "code": "5799-2",
              "system": "http://loinc.org",
              "display": "Leukocyte esterase [Presence] in Urine by Test strip"
            }
          ],
          "text": "Leukocyte esterase [Presence] in Urine by Test strip"
        },
        "text": {
          "status": "generated",
          "div": "<div xmlns=\"http://www.w3.org/1999/xhtml\"><table class=\"hl7__eu__lab__report\"><tr><th>Test</th><th>14-Nov-2016</th><th>Reference&#xA0;Range</th><th>Unit</th></tr><tr><td>Leukocyte esterase [Presence] in Urine by Test strip</td></tr></table></div>"
        },
        "status": "final",
        "subject": {
          "reference": "urn:uuid:8785bef7-acd0-471a-a29b-d1f38468632e",
          "display": "Meaghan Neary"
        },
        "effectiveDateTime": "2016-11-14T22:11:04Z",
        "specimen": {
          "reference": "urn:uuid:0353876e-13c0-4044-bef4-31ccdcbf451c"
        }
      }
    },
    {
      "fullUrl": "urn:uuid:5884dd69-004a-40fe-90fe-0d80345f689f",
      "resource": {
        "resourceType": "Observation",
        "id": "5884dd69-004a-40fe-90fe-0d80345f689f",
        "meta": {
          "profile": [
            "http://hl7.eu/fhir/laboratory/StructureDefinition/Observation-resultslab-eu-lab"
          ]
        },
        "performer": [
          {
            "display": "The Central European Lab"
          }
        ],
        "category": [
          {
            "coding": [
              {
                "system": "http://terminology.hl7.org/CodeSystem/observation-category",
                "code": "laboratory"
              }
            ]
          }
        ],
        "code": {
          "coding": [
            {
              "code": "4548-4",
              "system": "http://loinc.org",
              "display": "Hemoglobin A1c/Hemoglobin.total in Blood"
            }
          ],
          "text": "Hemoglobin A1c/Hemoglobin.total in Blood"
        },
        "valueQuantity": {
          "system": "http://unitsofmeasure.org",
          "value": 2.9,
          "unit": "%",
          "code": "%"
        },
        "referenceRange": [
          {
            "low": {
              "value": 4,
              "code": "%",
              "system": "http://unitsofmeasure.org"
            }
          },
          {
            "high": {
              "value": 6.4,
              "code": "%",
              "system": "http://unitsofmeasure.org"
            }
          }
        ],
        "interpretation": [
          {
            "coding": [
              {
                "code": "L",
                "system": "http://terminology.hl7.org/CodeSystem/v3-ObservationInterpretation",
                "display": "Low"
              }
            ]
          }
        ],
        "text": {
          "status": "generated",
          "div": "<div xmlns=\"http://www.w3.org/1999/xhtml\"><table class=\"hl7__eu__lab__report\"><tr><th>Test</th><th>14-Nov-2016</th><th>Reference&#xA0;Range</th><th>Unit</th></tr><tr><td>Hemoglobin A1c/Hemoglobin.total in Blood</td><td>2.9</td><td>4 - 6.4</td><td>L</td><td>%</td></tr></table></div>"
        },
        "status": "final",
        "subject": {
          "reference": "urn:uuid:8785bef7-acd0-471a-a29b-d1f38468632e",
          "display": "Meaghan Neary"
        },
        "effectiveDateTime": "2016-11-14T22:11:04Z",
        "specimen": {
          "reference": "urn:uuid:3882ad9b-c4dd-45a5-8302-beede7a7630a"
        }
      }
    },
    {
      "fullUrl": "urn:uuid:b705d636-6615-418d-a374-752eded1d2e1",
      "resource": {
        "resourceType": "Observation",
        "id": "b705d636-6615-418d-a374-752eded1d2e1",
        "meta": {
          "profile": [
            "http://hl7.eu/fhir/laboratory/StructureDefinition/Observation-resultslab-eu-lab"
          ]
        },
        "performer": [
          {
            "display": "The Central European Lab"
          }
        ],
        "category": [
          {
            "coding": [
              {
                "system": "http://terminology.hl7.org/CodeSystem/observation-category",
                "code": "laboratory"
              }
            ]
          }
        ],
        "code": {
          "coding": [
            {
              "code": "2339-0",
              "system": "http://loinc.org",
              "display": "Glucose [Mass/volume] in Blood"
            }
          ],
          "text": "Glucose [Mass/volume] in Blood"
        },
        "valueQuantity": {
          "system": "http://unitsofmeasure.org",
          "value": 82.4,
          "unit": "mg/dL",
          "code": "mg/dL"
        },
        "referenceRange": [
          {
            "low": {
              "value": 70,
              "code": "mg/dL",
              "system": "http://unitsofmeasure.org"
            }
          },
          {
            "high": {
              "value": 100,
              "code": "mg/dL",
              "system": "http://unitsofmeasure.org"
            }
          }
        ],
        "text": {
          "status": "generated",
          "div": "<div xmlns=\"http://www.w3.org/1999/xhtml\"><table class=\"hl7__eu__lab__report\"><tr><th>Test</th><th>14-Nov-2016</th><th>Reference&#xA0;Range</th><th>Unit</th></tr><tr><td>Glucose [Mass/volume] in Blood</td><td>82.4</td><td>70 - 100</td><td></td><td>mg/dL</td></tr></table></div>"
        },
        "status": "final",
        "subject": {
          "reference": "urn:uuid:8785bef7-acd0-471a-a29b-d1f38468632e",
          "display": "Meaghan Neary"
        },
        "effectiveDateTime": "2016-11-14T22:11:04Z",
        "specimen": {
          "reference": "urn:uuid:3882ad9b-c4dd-45a5-8302-beede7a7630a"
        }
      }
    },
    {
      "fullUrl": "urn:uuid:2db916f0-796d-46b5-8ef0-040bc2ada637",
      "resource": {
        "resourceType": "Observation",
        "id": "2db916f0-796d-46b5-8ef0-040bc2ada637",
        "meta": {
          "profile": [
            "http://hl7.eu/fhir/laboratory/StructureDefinition/Observation-resultslab-eu-lab"
          ]
        },
        "performer": [
          {
            "display": "The Central European Lab"
          }
        ],
        "category": [
          {
            "coding": [
              {
                "system": "http://terminology.hl7.org/CodeSystem/observation-category",
                "code": "laboratory"
              }
            ]
          }
        ],
        "code": {
          "coding": [
            {
              "code": "6299-2",
              "system": "http://loinc.org",
              "display": "Urea nitrogen [Mass/volume] in Blood"
            }
          ],
          "text": "Urea nitrogen [Mass/volume] in Blood"
        },
        "valueQuantity": {
          "system": "http://unitsofmeasure.org",
          "value": 9.1,
          "unit": "mg/dL",
          "code": "mg/dL"
        },
        "referenceRange": [
          {
            "low": {
              "value": 7,
              "code": "mg/dL",
              "system": "http://unitsofmeasure.org"
            }
          },
          {
            "high": {
              "value": 43,
              "code": "mg/dL",
              "system": "http://unitsofmeasure.org"
            }
          }
        ],
        "text": {
          "status": "generated",
          "div": "<div xmlns=\"http://www.w3.org/1999/xhtml\"><table class=\"hl7__eu__lab__report\"><tr><th>Test</th><th>14-Nov-2016</th><th>Reference&#xA0;Range</th><th>Unit</th></tr><tr><td>Urea nitrogen [Mass/volume] in Blood</td><td>9.1</td><td>7 - 43</td><td></td><td>mg/dL</td></tr></table></div>"
        },
        "status": "final",
        "subject": {
          "reference": "urn:uuid:8785bef7-acd0-471a-a29b-d1f38468632e",
          "display": "Meaghan Neary"
        },
        "effectiveDateTime": "2016-11-14T22:11:04Z",
        "specimen": {
          "reference": "urn:uuid:3882ad9b-c4dd-45a5-8302-beede7a7630a"
        }
      }
    },
    {
      "fullUrl": "urn:uuid:22f36ddb-9999-42c3-93c7-8aebf90fcba7",
      "resource": {
        "resourceType": "Observation",
        "id": "22f36ddb-9999-42c3-93c7-8aebf90fcba7",
        "meta": {
          "profile": [
            "http://hl7.eu/fhir/laboratory/StructureDefinition/Observation-resultslab-eu-lab"
          ]
        },
        "performer": [
          {
            "display": "The Central European Lab"
          }
        ],
        "category": [
          {
            "coding": [
              {
                "system": "http://terminology.hl7.org/CodeSystem/observation-category",
                "code": "laboratory"
              }
            ]
          }
        ],
        "code": {
          "coding": [
            {
              "code": "38483-4",
              "system": "http://loinc.org",
              "display": "Creatinine [Mass/volume] in Blood"
            }
          ],
          "text": "Creatinine [Mass/volume] in Blood"
        },
        "valueQuantity": {
          "system": "http://unitsofmeasure.org",
          "value": 1.4,
          "unit": "mg/dL",
          "code": "mg/dL"
        },
        "referenceRange": [
          {
            "low": {
              "value": 0.6,
              "code": "mg/dL",
              "system": "http://unitsofmeasure.org"
            }
          },
          {
            "high": {
              "value": 1.1,
              "code": "mg/dL",
              "system": "http://unitsofmeasure.org"
            }
          }
        ],
        "interpretation": [
          {
            "coding": [
              {
                "code": "H",
                "system": "http://terminology.hl7.org/CodeSystem/v3-ObservationInterpretation",
                "display": "High"
              }
            ]
          }
        ],
        "text": {
          "status": "generated",
          "div": "<div xmlns=\"http://www.w3.org/1999/xhtml\"><table class=\"hl7__eu__lab__report\"><tr><th>Test</th><th>14-Nov-2016</th><th>Reference&#xA0;Range</th><th>Unit</th></tr><tr><td>Creatinine [Mass/volume] in Blood</td><td>1.4</td><td>0.6 - 1.1</td><td>H</td><td>mg/dL</td></tr></table></div>"
        },
        "status": "final",
        "subject": {
          "reference": "urn:uuid:8785bef7-acd0-471a-a29b-d1f38468632e",
          "display": "Meaghan Neary"
        },
        "effectiveDateTime": "2016-11-14T22:11:04Z",
        "specimen": {
          "reference": "urn:uuid:3882ad9b-c4dd-45a5-8302-beede7a7630a"
        }
      }
    },
    {
      "fullUrl": "urn:uuid:7f3c3a70-3568-4955-80c9-df0e218b9850",
      "resource": {
        "resourceType": "Observation",
        "id": "7f3c3a70-3568-4955-80c9-df0e218b9850",
        "meta": {
          "profile": [
            "http://hl7.eu/fhir/laboratory/StructureDefinition/Observation-resultslab-eu-lab"
          ]
        },
        "performer": [
          {
            "display": "The Central European Lab"
          }
        ],
        "category": [
          {
            "coding": [
              {
                "system": "http://terminology.hl7.org/CodeSystem/observation-category",
                "code": "laboratory"
              }
            ]
          }
        ],
        "code": {
          "coding": [
            {
              "code": "49765-1",
              "system": "http://loinc.org",
              "display": "Calcium [Mass/volume] in Blood"
            }
          ],
          "text": "Calcium [Mass/volume] in Blood"
        },
        "valueQuantity": {
          "system": "http://unitsofmeasure.org",
          "value": 9.4,
          "unit": "mg/dL",
          "code": "mg/dL"
        },
        "referenceRange": [
          {
            "low": {
              "value": 8.5,
              "code": "mg/dL",
              "system": "http://unitsofmeasure.org"
            }
          },
          {
            "high": {
              "value": 10.5,
              "code": "mg/dL",
              "system": "http://unitsofmeasure.org"
            }
          }
        ],
        "text": {
          "status": "generated",
          "div": "<div xmlns=\"http://www.w3.org/1999/xhtml\"><table class=\"hl7__eu__lab__report\"><tr><th>Test</th><th>14-Nov-2016</th><th>Reference&#xA0;Range</th><th>Unit</th></tr><tr><td>Calcium [Mass/volume] in Blood</td><td>9.4</td><td>8.5 - 10.5</td><td></td><td>mg/dL</td></tr></table></div>"
        },
        "status": "final",
        "subject": {
          "reference": "urn:uuid:8785bef7-acd0-471a-a29b-d1f38468632e",
          "display": "Meaghan Neary"
        },
        "effectiveDateTime": "2016-11-14T22:11:04Z",
        "specimen": {
          "reference": "urn:uuid:3882ad9b-c4dd-45a5-8302-beede7a7630a"
        }
      }
    },
    {
      "fullUrl": "urn:uuid:820ab3f0-18c4-4b34-9748-bd53b1d3e429",
      "resource": {
        "resourceType": "Observation",
        "id": "820ab3f0-18c4-4b34-9748-bd53b1d3e429",
        "meta": {
          "profile": [
            "http://hl7.eu/fhir/laboratory/StructureDefinition/Observation-resultslab-eu-lab"
          ]
        },
        "performer": [
          {
            "display": "The Central European Lab"
          }
        ],
        "category": [
          {
            "coding": [
              {
                "system": "http://terminology.hl7.org/CodeSystem/observation-category",
                "code": "laboratory"
              }
            ]
          }
        ],
        "code": {
          "coding": [
            {
              "code": "2947-0",
              "system": "http://loinc.org",
              "display": "Sodium [Moles/volume] in Blood"
            }
          ],
          "text": "Sodium [Moles/volume] in Blood"
        },
        "valueQuantity": {
          "system": "http://unitsofmeasure.org",
          "value": 142,
          "unit": "mmol/L",
          "code": "mmol/L"
        },
        "referenceRange": [
          {
            "low": {
              "value": 135,
              "code": "mmol/L",
              "system": "http://unitsofmeasure.org"
            }
          },
          {
            "high": {
              "value": 145,
              "code": "mmol/L",
              "system": "http://unitsofmeasure.org"
            }
          }
        ],
        "text": {
          "status": "generated",
          "div": "<div xmlns=\"http://www.w3.org/1999/xhtml\"><table class=\"hl7__eu__lab__report\"><tr><th>Test</th><th>14-Nov-2016</th><th>Reference&#xA0;Range</th><th>Unit</th></tr><tr><td>Sodium [Moles/volume] in Blood</td><td>142.0</td><td>135 - 145</td><td></td><td>mmol/L</td></tr></table></div>"
        },
        "status": "final",
        "subject": {
          "reference": "urn:uuid:8785bef7-acd0-471a-a29b-d1f38468632e",
          "display": "Meaghan Neary"
        },
        "effectiveDateTime": "2016-11-14T22:11:04Z",
        "specimen": {
          "reference": "urn:uuid:3882ad9b-c4dd-45a5-8302-beede7a7630a"
        }
      }
    },
    {
      "fullUrl": "urn:uuid:b3fe9ec1-4f6c-47c5-9624-b4d91e3b551b",
      "resource": {
        "resourceType": "Observation",
        "id": "b3fe9ec1-4f6c-47c5-9624-b4d91e3b551b",
        "meta": {
          "profile": [
            "http://hl7.eu/fhir/laboratory/StructureDefinition/Observation-resultslab-eu-lab"
          ]
        },
        "performer": [
          {
            "display": "The Central European Lab"
          }
        ],
        "category": [
          {
            "coding": [
              {
                "system": "http://terminology.hl7.org/CodeSystem/observation-category",
                "code": "laboratory"
              }
            ]
          }
        ],
        "code": {
          "coding": [
            {
              "code": "6298-4",
              "system": "http://loinc.org",
              "display": "Potassium [Moles/volume] in Blood"
            }
          ],
          "text": "Potassium [Moles/volume] in Blood"
        },
        "valueQuantity": {
          "system": "http://unitsofmeasure.org",
          "value": 3.8,
          "unit": "mmol/L",
          "code": "mmol/L"
        },
        "referenceRange": [
          {
            "low": {
              "value": 3.5,
              "code": "mmol/L",
              "system": "http://unitsofmeasure.org"
            }
          },
          {
            "high": {
              "value": 5.1,
              "code": "mmol/L",
              "system": "http://unitsofmeasure.org"
            }
          }
        ],
        "text": {
          "status": "generated",
          "div": "<div xmlns=\"http://www.w3.org/1999/xhtml\"><table class=\"hl7__eu__lab__report\"><tr><th>Test</th><th>14-Nov-2016</th><th>Reference&#xA0;Range</th><th>Unit</th></tr><tr><td>Potassium [Moles/volume] in Blood</td><td>3.8</td><td>3.5 - 5.1</td><td></td><td>mmol/L</td></tr></table></div>"
        },
        "status": "final",
        "subject": {
          "reference": "urn:uuid:8785bef7-acd0-471a-a29b-d1f38468632e",
          "display": "Meaghan Neary"
        },
        "effectiveDateTime": "2016-11-14T22:11:04Z",
        "specimen": {
          "reference": "urn:uuid:3882ad9b-c4dd-45a5-8302-beede7a7630a"
        }
      }
    },
    {
      "fullUrl": "urn:uuid:9ecbedad-2291-4ddb-bc12-997e62639f78",
      "resource": {
        "resourceType": "Observation",
        "id": "9ecbedad-2291-4ddb-bc12-997e62639f78",
        "meta": {
          "profile": [
            "http://hl7.eu/fhir/laboratory/StructureDefinition/Observation-resultslab-eu-lab"
          ]
        },
        "performer": [
          {
            "display": "The Central European Lab"
          }
        ],
        "category": [
          {
            "coding": [
              {
                "system": "http://terminology.hl7.org/CodeSystem/observation-category",
                "code": "laboratory"
              }
            ]
          }
        ],
        "code": {
          "coding": [
            {
              "code": "2069-3",
              "system": "http://loinc.org",
              "display": "Chloride [Moles/volume] in Blood"
            }
          ],
          "text": "Chloride [Moles/volume] in Blood"
        },
        "valueQuantity": {
          "system": "http://unitsofmeasure.org",
          "value": 102.3,
          "unit": "mmol/L",
          "code": "mmol/L"
        },
        "referenceRange": [
          {
            "low": {
              "value": 98,
              "code": "mmol/L",
              "system": "http://unitsofmeasure.org"
            }
          },
          {
            "high": {
              "value": 108,
              "code": "mmol/L",
              "system": "http://unitsofmeasure.org"
            }
          }
        ],
        "text": {
          "status": "generated",
          "div": "<div xmlns=\"http://www.w3.org/1999/xhtml\"><table class=\"hl7__eu__lab__report\"><tr><th>Test</th><th>14-Nov-2016</th><th>Reference&#xA0;Range</th><th>Unit</th></tr><tr><td>Chloride [Moles/volume] in Blood</td><td>102.3</td><td>98 - 108</td><td></td><td>mmol/L</td></tr></table></div>"
        },
        "status": "final",
        "subject": {
          "reference": "urn:uuid:8785bef7-acd0-471a-a29b-d1f38468632e",
          "display": "Meaghan Neary"
        },
        "effectiveDateTime": "2016-11-14T22:11:04Z",
        "specimen": {
          "reference": "urn:uuid:3882ad9b-c4dd-45a5-8302-beede7a7630a"
        }
      }
    },
    {
      "fullUrl": "urn:uuid:0ae66608-a7df-477b-8fc6-ef081df12818",
      "resource": {
        "resourceType": "Observation",
        "id": "0ae66608-a7df-477b-8fc6-ef081df12818",
        "meta": {
          "profile": [
            "http://hl7.eu/fhir/laboratory/StructureDefinition/Observation-resultslab-eu-lab"
          ]
        },
        "performer": [
          {
            "display": "The Central European Lab"
          }
        ],
        "category": [
          {
            "coding": [
              {
                "system": "http://terminology.hl7.org/CodeSystem/observation-category",
                "code": "laboratory"
              }
            ]
          }
        ],
        "code": {
          "coding": [
            {
              "code": "20565-8",
              "system": "http://loinc.org",
              "display": "Carbon dioxide, total [Moles/volume] in Blood"
            }
          ],
          "text": "Carbon dioxide, total [Moles/volume] in Blood"
        },
        "valueQuantity": {
          "system": "http://unitsofmeasure.org",
          "value": 20.9,
          "unit": "mmol/L",
          "code": "mmol/L"
        },
        "referenceRange": [
          {
            "low": {
              "value": 22,
              "code": "mmol/L",
              "system": "http://unitsofmeasure.org"
            }
          },
          {
            "high": {
              "value": 29,
              "code": "mmol/L",
              "system": "http://unitsofmeasure.org"
            }
          }
        ],
        "interpretation": [
          {
            "coding": [
              {
                "code": "L",
                "system": "http://terminology.hl7.org/CodeSystem/v3-ObservationInterpretation",
                "display": "Low"
              }
            ]
          }
        ],
        "text": {
          "status": "generated",
          "div": "<div xmlns=\"http://www.w3.org/1999/xhtml\"><table class=\"hl7__eu__lab__report\"><tr><th>Test</th><th>14-Nov-2016</th><th>Reference&#xA0;Range</th><th>Unit</th></tr><tr><td>Carbon dioxide, total [Moles/volume] in Blood</td><td>20.9</td><td>22 - 29</td><td>L</td><td>mmol/L</td></tr></table></div>"
        },
        "status": "final",
        "subject": {
          "reference": "urn:uuid:8785bef7-acd0-471a-a29b-d1f38468632e",
          "display": "Meaghan Neary"
        },
        "effectiveDateTime": "2016-11-14T22:11:04Z",
        "specimen": {
          "reference": "urn:uuid:3882ad9b-c4dd-45a5-8302-beede7a7630a"
        }
      }
    },
    {
      "fullUrl": "urn:uuid:f39b2626-dc03-4638-a3c4-78c2e66b2f87",
      "resource": {
        "resourceType": "Device",
        "id": "f39b2626-dc03-4638-a3c4-78c2e66b2f87",
        "deviceName": [
          {
            "name": "SYNDERAI Synthetic Generator",
            "type": "manufacturer-name"
          }
        ],
        "version": [
          {
            "value": "5.0"
          }
        ],
        "text": {
          "status": "generated",
          "div": "<div xmlns=\"http://www.w3.org/1999/xhtml\">SYNDERAI Synthetic Generator v5.0</div>"
        },
        "status": "active\"",
        "distinctIdentifier": "synderai-generator-50",
        "manufacturer": "SYNDERAI Project"
      }
    },
    {
      "fullUrl": "urn:uuid:39ed2b02-57e6-4ddf-b179-fc7608e9aadd",
      "resource": {
        "resourceType": "Provenance",
        "id": "39ed2b02-57e6-4ddf-b179-fc7608e9aadd",
        "target": [
          {
            "reference": "Patient/8785bef7-acd0-471a-a29b-d1f38468632e"
          },
          {
            "reference": "Bundle/29b3801c-dd05-4423-9750-b56c299c7c64"
          },
          {
            "reference": "Composition/49dfb834-09d7-42f9-9257-8d47ef5d9fc9"
          },
          {
            "reference": "PractitionerRole/2362d5fb-5851-436b-9dc9-ab69f2e0e770"
          },
          {
            "reference": "Practitioner/3bcab289-d97e-4815-b385-67aed3596d29"
          },
          {
            "reference": "PractitionerRole/2ed9ff0e-b805-40b1-9d49-8f93ec1301e5"
          },
          {
            "reference": "Organization/46fbde1e-e45c-4d4e-88a3-4bdef8f3bcae"
          }
        ],
        "activity": {
          "text": "Synthetic Example Data Generation"
        },
        "policy": [
          "https://synderai.net/synderai-synthetic-data-policy"
        ],
        "agent": [
          {
            "type": {
              "text": "author"
            },
            "who": {
              "reference": "Device/f39b2626-dc03-4638-a3c4-78c2e66b2f87"
            }
          }
        ],
        "reason": [
          {
            "text": "Interoperability Testing and Training (non-clinical use)"
          }
        ],
        "text": {
          "status": "generated",
          "div": "<div xmlns=\"http://www.w3.org/1999/xhtml\">Provenance for SYNDERAI Synthetic Example Data Resource</div>"
        },
        "recorded": "2016-11-14T23:11:04Z"
      }
    },
    {
      "fullUrl": "urn:uuid:2362d5fb-5851-436b-9dc9-ab69f2e0e770",
      "resource": {
        "resourceType": "PractitionerRole",
        "id": "2362d5fb-5851-436b-9dc9-ab69f2e0e770",
        "meta": {
          "profile": [
            "http://hl7.eu/fhir/base/StructureDefinition/practitionerRole-eu"
          ]
        },
        "text": {
          "status": "generated",
          "div": "<div xmlns=\"http://www.w3.org/1999/xhtml\">Laboratory Role Id: 2362d5fb-5851-436b-9dc9-ab69f2e0e770</div>"
        },
        "practitioner": {
          "reference": "urn:uuid:3bcab289-d97e-4815-b385-67aed3596d29"
        }
      }
    },
    {
      "fullUrl": "urn:uuid:3bcab289-d97e-4815-b385-67aed3596d29",
      "resource": {
        "resourceType": "Practitioner",
        "id": "3bcab289-d97e-4815-b385-67aed3596d29",
        "meta": {
          "profile": [
            "http://hl7.eu/fhir/base/StructureDefinition/practitioner-eu"
          ]
        },
        "identifier": [
          {
            "assigner": {
              "display": "HL7 Europe"
            },
            "system": "urn:oid:2.16.840.1.113883.2.51.999",
            "value": "a90360de-3901-4e93-8779-2dc83e2b39b5"
          }
        ],
        "name": [
          {
            "prefix": [
              "dr"
            ],
            "given": [
              "Ex"
            ],
            "family": "Ample"
          }
        ],
        "address": [
          {
            "line": [
              "Laboratoire Central Européenne",
              "Boulevard du Jardin Botanique 32"
            ],
            "postalCode": "1000",
            "city": "Brussels",
            "country": "Belgium"
          }
        ],
        "text": {
          "status": "generated",
          "div": "<div xmlns=\"http://www.w3.org/1999/xhtml\">Laboratory: Laboratoire Central Européenne, 1000 Brussels, Belgium</div>"
        }
      }
    }
  ],
  "type": "document",
  "timestamp": "2016-11-14T23:11:04Z"
}
