{
  "resourceType": "Bundle",
  "id": "b363f27d-ec11-4679-9955-c2aace68cde2",
  "meta": {
    "profile": [
      "http://hl7.eu/fhir/laboratory/StructureDefinition/Bundle-eu-lab"
    ]
  },
  "identifier": {
    "assigner": {
      "display": "HL7 Europe"
    },
    "system": "urn:oid:2.16.840.1.113883.2.51.999",
    "value": "8fd8d72d-54e4-4326-ac4b-4268a1760914"
  },
  "entry": [
    {
      "fullUrl": "urn:uuid:d47d8db2-64c6-45ea-afa6-fb07afa72301",
      "resource": {
        "resourceType": "Composition",
        "id": "d47d8db2-64c6-45ea-afa6-fb07afa72301",
        "meta": {
          "profile": [
            "http://hl7.eu/fhir/laboratory/StructureDefinition/Composition-eu-lab"
          ]
        },
        "identifier": {
          "assigner": {
            "display": "HL7 Europe"
          },
          "system": "urn:oid:2.16.840.1.113883.2.51.999",
          "value": "8c9b7b4e-97ee-4d40-8d47-589f6d314bc6"
        },
        "author": [
          {
            "reference": "urn:uuid:9502402f-0f4c-4c30-9ceb-d5bdbaf86524"
          }
        ],
        "category": [
          {
            "coding": [
              {
                "code": "26436-6",
                "system": "http://loinc.org",
                "display": "Laboratory studies (set)"
              }
            ]
          }
        ],
        "type": {
          "coding": [
            {
              "code": "11502-2",
              "system": "http://loinc.org",
              "display": "Laboratory report"
            }
          ],
          "text": "Laboratory Report"
        },
        "section": [
          {
            "code": {
              "coding": [
                {
                  "code": "26436-6",
                  "system": "http://loinc.org",
                  "display": "Laboratory studies (set)"
                }
              ],
              "text": "Laboratory studies"
            },
            "section": [
              {
                "code": {
                  "coding": [
                    {
                      "code": "$18719-5",
                      "system": "http://loinc.org",
                      "display": "Chemistry studies (set)"
                    }
                  ],
                  "text": "Chemistry"
                },
                "entry": [
                  {
                    "reference": "urn:uuid:98b2dcbd-2ba4-464a-8861-261233c178f1"
                  },
                  {
                    "reference": "urn:uuid:f25a122d-cbb6-4496-ad23-2c3c005cc95e"
                  },
                  {
                    "reference": "urn:uuid:0131d189-dff8-47dd-b910-e8df41012783"
                  },
                  {
                    "reference": "urn:uuid:eaa6d622-df30-47b1-a833-b15e8ad12f96"
                  },
                  {
                    "reference": "urn:uuid:33413dbe-914a-406c-b858-060c0fee1698"
                  },
                  {
                    "reference": "urn:uuid:2deb112c-c6c1-4a72-89ab-24c901686c6c"
                  },
                  {
                    "reference": "urn:uuid:00f7cd3b-3a77-4db6-b84c-8acdbce02461"
                  },
                  {
                    "reference": "urn:uuid:3e89e87b-4bba-46b8-b626-617136142669"
                  },
                  {
                    "reference": "urn:uuid:7b352a5e-2f30-4d28-896e-aa66c0b217fa"
                  }
                ],
                "text": {
                  "status": "generated",
                  "div": "<div xmlns=\"http://www.w3.org/1999/xhtml\"><h3>Chemistry</h3><table class=\"hl7__eu__lab__report\"><thead><tr><th>Test</th><th>30-JAN-2019</th><th>Reference&#xA0;Range</th><th>Unit</th></tr></thead><tbody><tr><td>Hemoglobin A1c/Hemoglobin.total in Blood</td><td>5.8</td><td>4 - 6</td><td>%</td></tr><tr><td>Glucose [Mass/volume] in Blood</td><td>71.6</td><td>70 - 140</td><td>mg/dL</td></tr><tr><td>Urea nitrogen [Mass/volume] in Blood</td><td>19.3</td><td>7 - 50</td><td>mg/dL</td></tr><tr><td>Creatinine [Mass/volume] in Blood</td><td>1.1</td><td>0.5 - 1.3</td><td>mg/dL</td></tr><tr><td>Calcium [Mass/volume] in Blood</td><td>8.9</td><td>8.5 - 10.4</td><td>mg/dL</td></tr><tr><td>Sodium [Moles/volume] in Blood</td><td>136.3</td><td>135 - 145</td><td>mmol/L</td></tr><tr><td>Potassium [Moles/volume] in Blood</td><td>4.7</td><td>3.5 - 5.3</td><td>mmol/L</td></tr><tr><td>Chloride [Moles/volume] in Blood</td><td>109.2</td><td>98 - 110</td><td>mmol/L</td></tr><tr><td>Carbon dioxide, total [Moles/volume] in Blood</td><td>27.3</td><td>22 - 32</td><td>mmol/L</td></tr></tbody></table></div>"
                },
                "title": "Chemistry"
              }
            ],
            "title": "Laboratory Report"
          },
          {
            "text": {
              "status": "generated",
              "div": "<div xmlns=\"http://www.w3.org/1999/xhtml\"><h3>Annotation</h3><table class=\"hl7__eu__lab__report\"><tr><th>Conclusion and Recommendations based on this report and previous findings known to us</th></tr><tr><td>All measured parameters are within normal limits. Glycemic control (HbA1c, glucose) is adequate, and renal function (urea, creatinine) is normal. Electrolytes and calcium are also within reference ranges. No laboratory abnormalities detected at this time. Recommend routine follow-up as clinically indicated.</td></tr></table></div>"
            },
            "code": {
              "coding": [
                {
                  "system": "http://loinc.org",
                  "code": "48767-8",
                  "display": "Annotation comment"
                }
              ]
            },
            "title": "Annotation comment"
          }
        ],
        "status": "final",
        "subject": {
          "reference": "urn:uuid:1d2cf07e-ff01-4bfc-91da-b900c037a1ca",
          "display": "Jele Jurković"
        },
        "date": "2019-01-30T19:07:38Z",
        "title": "Laboratory Report",
        "confidentiality": "N"
      }
    },
    {
      "fullUrl": "urn:uuid:54c9ebc7-9d18-465a-a571-6d315b49bb22",
      "resource": {
        "resourceType": "DiagnosticReport",
        "id": "54c9ebc7-9d18-465a-a571-6d315b49bb22",
        "meta": {
          "profile": [
            "http://hl7.eu/fhir/laboratory/StructureDefinition/DiagnosticReport-eu-lab"
          ]
        },
        "identifier": [
          {
            "assigner": {
              "display": "HL7 Europe"
            },
            "system": "urn:oid:2.16.840.1.113883.2.51.999",
            "value": "ba6dc252-1e6e-41da-bd9f-8013cb3df94c"
          }
        ],
        "extension": [
          {
            "url": "http://hl7.org/fhir/5.0/StructureDefinition/extension-DiagnosticReport.composition",
            "valueReference": {
              "reference": "urn:uuid:8c9b7b4e-97ee-4d40-8d47-589f6d314bc6"
            }
          }
        ],
        "category": [
          {
            "coding": [
              {
                "code": "26436-6",
                "system": "http://loinc.org",
                "display": "Laboratory studies (set)"
              }
            ]
          }
        ],
        "specimen": [
          {
            "reference": "urn:uuid:c0b12bba-3aac-47f5-90ef-b7c97ca66228"
          }
        ],
        "result": [
          {
            "reference": "urn:uuid:98b2dcbd-2ba4-464a-8861-261233c178f1"
          },
          {
            "reference": "urn:uuid:f25a122d-cbb6-4496-ad23-2c3c005cc95e"
          },
          {
            "reference": "urn:uuid:0131d189-dff8-47dd-b910-e8df41012783"
          },
          {
            "reference": "urn:uuid:eaa6d622-df30-47b1-a833-b15e8ad12f96"
          },
          {
            "reference": "urn:uuid:33413dbe-914a-406c-b858-060c0fee1698"
          },
          {
            "reference": "urn:uuid:2deb112c-c6c1-4a72-89ab-24c901686c6c"
          },
          {
            "reference": "urn:uuid:00f7cd3b-3a77-4db6-b84c-8acdbce02461"
          },
          {
            "reference": "urn:uuid:3e89e87b-4bba-46b8-b626-617136142669"
          },
          {
            "reference": "urn:uuid:7b352a5e-2f30-4d28-896e-aa66c0b217fa"
          }
        ],
        "status": "registered",
        "code": {
          "coding": [
            {
              "code": "11502-2",
              "system": "http://loinc.org",
              "display": "Laboratory report"
            }
          ]
        },
        "subject": {
          "reference": "urn:uuid:1d2cf07e-ff01-4bfc-91da-b900c037a1ca",
          "display": "Jele Jurković"
        }
      }
    },
    {
      "fullUrl": "urn:uuid:1d2cf07e-ff01-4bfc-91da-b900c037a1ca",
      "resource": {
        "resourceType": "Patient",
        "id": "1d2cf07e-ff01-4bfc-91da-b900c037a1ca",
        "meta": {
          "security": [
            {
              "system": "http://terminology.hl7.org/CodeSystem/v3-ActReason",
              "code": "HTEST"
            },
            {
              "system": "http://terminology.hl7.org/CodeSystem/v3-ActReason",
              "code": "TRAIN"
            }
          ],
          "tag": [
            {
              "system": "https://synderai.net/fhir/CodeSystem/tags",
              "code": "synthetic",
              "display": "SYNDERAI Synthetic data"
            }
          ],
          "profile": [
            "http://hl7.eu/fhir/base/StructureDefinition/patient-eu-core"
          ]
        },
        "identifier": [
          {
            "type": {
              "coding": [
                {
                  "code": "PT",
                  "system": "http://terminology.hl7.org/CodeSystem/v2-0203"
                }
              ]
            },
            "system": "http://ec.europa.eu/identifier/eci",
            "value": "3583-291434-1"
          },
          {
            "type": {
              "coding": [
                {
                  "code": "MR",
                  "system": "http://terminology.hl7.org/CodeSystem/v2-0203"
                }
              ]
            },
            "system": "http://local.setting.eu/identifier",
            "value": "9d4fea2d-eece-b99f-3e16-832f0f5813f5"
          }
        ],
        "name": [
          {
            "family": "Jurković"
          },
          {
            "given": [
              "Jele"
            ]
          },
          {
            "text": "Jele Jurković"
          }
        ],
        "address": [
          {
            "line": [
              "Klesarski put 7b/8"
            ],
            "use": "home",
            "type": "physical",
            "postalCode": "34310",
            "city": "Pleternica",
            "country": "Croatia"
          }
        ],
        "telecom": [
          {
            "system": "phone",
            "value": "021 083 354"
          }
        ],
        "extension": [
          {
            "url": "http://hl7.org/fhir/StructureDefinition/patient-nationality",
            "valueCodeableConcept": {
              "coding": [
                {
                  "code": "HR",
                  "system": "http://hl7.org/fhir/ValueSet/country"
                }
              ]
            }
          }
        ],
        "text": {
          "status": "generated",
          "div": "<div xmlns=\"http://www.w3.org/1999/xhtml\"><table class=\"hl7__ips\"><tr><td>Jele Jurković</td><td>female</td><td>07-Jan-1953</td></tr></table></div>"
        },
        "gender": "female",
        "birthDate": "1953-01-07"
      }
    },
    {
      "fullUrl": "urn:uuid:2d758992-76d1-4047-b584-a2637e8250a8",
      "resource": {
        "resourceType": "ServiceRequest",
        "id": "2d758992-76d1-4047-b584-a2637e8250a8",
        "meta": {
          "profile": [
            "http://hl7.eu/fhir/laboratory/StructureDefinition/ServiceRequest-eu-lab"
          ]
        },
        "identifier": [
          {
            "system": "http://example.org",
            "value": "c417c4c3-34f4-48a2-883b-4d7099e80845"
          }
        ],
        "specimen": [
          {
            "reference": "urn:uuid:c0b12bba-3aac-47f5-90ef-b7c97ca66228"
          }
        ],
        "reasonCode": [
          {
            "coding": [
              {
                "code": "64859006",
                "system": "http://snomed.info/sct",
                "display": "Osteoporosis"
              }
            ]
          },
          {
            "coding": [
              {
                "code": "6525002",
                "system": "http://snomed.info/sct",
                "display": "Dependent drug abuse"
              }
            ]
          },
          {
            "coding": [
              {
                "code": "15777000",
                "system": "http://snomed.info/sct",
                "display": "Prediabetes"
              }
            ]
          }
        ],
        "status": "active",
        "intent": "order",
        "code": {
          "coding": [
            {
              "code": "108252007",
              "system": "http://snomed.info/sct",
              "display": "Laboratory procedure"
            }
          ]
        },
        "subject": {
          "reference": "urn:uuid:1d2cf07e-ff01-4bfc-91da-b900c037a1ca",
          "display": "Jele Jurković"
        },
        "requester": {
          "reference": "urn:uuid:41306c04-e907-464f-a381-893e069b1e6c"
        }
      }
    },
    {
      "fullUrl": "urn:uuid:41306c04-e907-464f-a381-893e069b1e6c",
      "resource": {
        "resourceType": "PractitionerRole",
        "id": "41306c04-e907-464f-a381-893e069b1e6c",
        "meta": {
          "profile": [
            "http://hl7.eu/fhir/base/StructureDefinition/practitionerRole-eu"
          ]
        },
        "text": {
          "status": "generated",
          "div": "<div xmlns=\"http://www.w3.org/1999/xhtml\">Provider Role Id: 41306c04-e907-464f-a381-893e069b1e6c</div>"
        },
        "organization": {
          "reference": "urn:uuid:05d5085e-1253-4d05-85e5-5c0291a0be6e"
        }
      }
    },
    {
      "fullUrl": "urn:uuid:05d5085e-1253-4d05-85e5-5c0291a0be6e",
      "resource": {
        "resourceType": "Organization",
        "id": "05d5085e-1253-4d05-85e5-5c0291a0be6e",
        "meta": {
          "profile": [
            "http://hl7.eu/fhir/base/StructureDefinition/organization-eu"
          ]
        },
        "identifier": [
          {
            "assigner": {
              "display": "HL7 Europe"
            },
            "system": "urn:oid:2.16.840.1.113883.2.51.999",
            "value": "52be8f8f-1337-45c6-a948-cf338b8f1fb2"
          }
        ],
        "address": [
          {
            "line": [
              "Osječka ulica 107"
            ],
            "city": "Požega",
            "postalCode": "34000",
            "country": "Croatia"
          }
        ],
        "text": {
          "status": "generated",
          "div": "<div xmlns=\"http://www.w3.org/1999/xhtml\">Provider Organization: Opća županijska bolnica Požega</div>"
        },
        "name": "Opća županijska bolnica Požega"
      }
    },
    {
      "fullUrl": "urn:uuid:c0b12bba-3aac-47f5-90ef-b7c97ca66228",
      "resource": {
        "resourceType": "Specimen",
        "id": "c0b12bba-3aac-47f5-90ef-b7c97ca66228",
        "meta": {
          "profile": [
            "http://hl7.eu/fhir/laboratory/StructureDefinition/Specimen-eu-lab"
          ]
        },
        "collection": {
          "collectedDateTime": "2019-01-30"
        },
        "text": {
          "status": "generated",
          "div": "<div xmlns=\"http://www.w3.org/1999/xhtml\"><table class=\"hl7__eu__lab__report\"><tr><th>Specimen</th><th>Collection Date</th></tr><tr><td>Whole blood specimen (specimen)</td><td><span class=\"nb\">30-Jan-2019</span></td></tr></table></div>"
        },
        "type": {
          "coding": [
            {
              "code": "258580003",
              "system": "http://snomed.info/sct",
              "display": "Whole blood specimen (specimen)"
            }
          ]
        }
      }
    },
    {
      "fullUrl": "urn:uuid:98b2dcbd-2ba4-464a-8861-261233c178f1",
      "resource": {
        "resourceType": "Observation",
        "id": "98b2dcbd-2ba4-464a-8861-261233c178f1",
        "meta": {
          "profile": [
            "http://hl7.eu/fhir/laboratory/StructureDefinition/Observation-resultslab-eu-lab"
          ]
        },
        "performer": [
          {
            "display": "The Central European Lab"
          }
        ],
        "category": [
          {
            "coding": [
              {
                "system": "http://terminology.hl7.org/CodeSystem/observation-category",
                "code": "laboratory"
              }
            ]
          }
        ],
        "code": {
          "coding": [
            {
              "code": "4548-4",
              "system": "http://loinc.org",
              "display": "Hemoglobin A1c/Hemoglobin.total in Blood"
            }
          ],
          "text": "Hemoglobin A1c/Hemoglobin.total in Blood"
        },
        "valueQuantity": {
          "system": "http://unitsofmeasure.org",
          "value": 5.8,
          "unit": "%",
          "code": "%"
        },
        "referenceRange": [
          {
            "low": {
              "value": 4,
              "code": "%",
              "system": "http://unitsofmeasure.org"
            }
          },
          {
            "high": {
              "value": 6,
              "code": "%",
              "system": "http://unitsofmeasure.org"
            }
          }
        ],
        "text": {
          "status": "generated",
          "div": "<div xmlns=\"http://www.w3.org/1999/xhtml\"><table class=\"hl7__eu__lab__report\"><tr><th>Test</th><th>30-Jan-2019</th><th>Reference&#xA0;Range</th><th>Unit</th></tr><tr><td>Hemoglobin A1c/Hemoglobin.total in Blood</td><td>5.8</td><td>4 - 6</td><td></td><td>%</td></tr></table></div>"
        },
        "status": "final",
        "subject": {
          "reference": "urn:uuid:1d2cf07e-ff01-4bfc-91da-b900c037a1ca",
          "display": "Jele Jurković"
        },
        "effectiveDateTime": "2019-01-30T18:07:38Z",
        "specimen": {
          "reference": "urn:uuid:c0b12bba-3aac-47f5-90ef-b7c97ca66228"
        }
      }
    },
    {
      "fullUrl": "urn:uuid:f25a122d-cbb6-4496-ad23-2c3c005cc95e",
      "resource": {
        "resourceType": "Observation",
        "id": "f25a122d-cbb6-4496-ad23-2c3c005cc95e",
        "meta": {
          "profile": [
            "http://hl7.eu/fhir/laboratory/StructureDefinition/Observation-resultslab-eu-lab"
          ]
        },
        "performer": [
          {
            "display": "The Central European Lab"
          }
        ],
        "category": [
          {
            "coding": [
              {
                "system": "http://terminology.hl7.org/CodeSystem/observation-category",
                "code": "laboratory"
              }
            ]
          }
        ],
        "code": {
          "coding": [
            {
              "code": "2339-0",
              "system": "http://loinc.org",
              "display": "Glucose [Mass/volume] in Blood"
            }
          ],
          "text": "Glucose [Mass/volume] in Blood"
        },
        "valueQuantity": {
          "system": "http://unitsofmeasure.org",
          "value": 71.6,
          "unit": "mg/dL",
          "code": "mg/dL"
        },
        "referenceRange": [
          {
            "low": {
              "value": 70,
              "code": "mg/dL",
              "system": "http://unitsofmeasure.org"
            }
          },
          {
            "high": {
              "value": 140,
              "code": "mg/dL",
              "system": "http://unitsofmeasure.org"
            }
          }
        ],
        "text": {
          "status": "generated",
          "div": "<div xmlns=\"http://www.w3.org/1999/xhtml\"><table class=\"hl7__eu__lab__report\"><tr><th>Test</th><th>30-Jan-2019</th><th>Reference&#xA0;Range</th><th>Unit</th></tr><tr><td>Glucose [Mass/volume] in Blood</td><td>71.6</td><td>70 - 140</td><td></td><td>mg/dL</td></tr></table></div>"
        },
        "status": "final",
        "subject": {
          "reference": "urn:uuid:1d2cf07e-ff01-4bfc-91da-b900c037a1ca",
          "display": "Jele Jurković"
        },
        "effectiveDateTime": "2019-01-30T18:07:38Z",
        "specimen": {
          "reference": "urn:uuid:c0b12bba-3aac-47f5-90ef-b7c97ca66228"
        }
      }
    },
    {
      "fullUrl": "urn:uuid:0131d189-dff8-47dd-b910-e8df41012783",
      "resource": {
        "resourceType": "Observation",
        "id": "0131d189-dff8-47dd-b910-e8df41012783",
        "meta": {
          "profile": [
            "http://hl7.eu/fhir/laboratory/StructureDefinition/Observation-resultslab-eu-lab"
          ]
        },
        "performer": [
          {
            "display": "The Central European Lab"
          }
        ],
        "category": [
          {
            "coding": [
              {
                "system": "http://terminology.hl7.org/CodeSystem/observation-category",
                "code": "laboratory"
              }
            ]
          }
        ],
        "code": {
          "coding": [
            {
              "code": "6299-2",
              "system": "http://loinc.org",
              "display": "Urea nitrogen [Mass/volume] in Blood"
            }
          ],
          "text": "Urea nitrogen [Mass/volume] in Blood"
        },
        "valueQuantity": {
          "system": "http://unitsofmeasure.org",
          "value": 19.3,
          "unit": "mg/dL",
          "code": "mg/dL"
        },
        "referenceRange": [
          {
            "low": {
              "value": 7,
              "code": "mg/dL",
              "system": "http://unitsofmeasure.org"
            }
          },
          {
            "high": {
              "value": 50,
              "code": "mg/dL",
              "system": "http://unitsofmeasure.org"
            }
          }
        ],
        "text": {
          "status": "generated",
          "div": "<div xmlns=\"http://www.w3.org/1999/xhtml\"><table class=\"hl7__eu__lab__report\"><tr><th>Test</th><th>30-Jan-2019</th><th>Reference&#xA0;Range</th><th>Unit</th></tr><tr><td>Urea nitrogen [Mass/volume] in Blood</td><td>19.3</td><td>7 - 50</td><td></td><td>mg/dL</td></tr></table></div>"
        },
        "status": "final",
        "subject": {
          "reference": "urn:uuid:1d2cf07e-ff01-4bfc-91da-b900c037a1ca",
          "display": "Jele Jurković"
        },
        "effectiveDateTime": "2019-01-30T18:07:38Z",
        "specimen": {
          "reference": "urn:uuid:c0b12bba-3aac-47f5-90ef-b7c97ca66228"
        }
      }
    },
    {
      "fullUrl": "urn:uuid:eaa6d622-df30-47b1-a833-b15e8ad12f96",
      "resource": {
        "resourceType": "Observation",
        "id": "eaa6d622-df30-47b1-a833-b15e8ad12f96",
        "meta": {
          "profile": [
            "http://hl7.eu/fhir/laboratory/StructureDefinition/Observation-resultslab-eu-lab"
          ]
        },
        "performer": [
          {
            "display": "The Central European Lab"
          }
        ],
        "category": [
          {
            "coding": [
              {
                "system": "http://terminology.hl7.org/CodeSystem/observation-category",
                "code": "laboratory"
              }
            ]
          }
        ],
        "code": {
          "coding": [
            {
              "code": "38483-4",
              "system": "http://loinc.org",
              "display": "Creatinine [Mass/volume] in Blood"
            }
          ],
          "text": "Creatinine [Mass/volume] in Blood"
        },
        "valueQuantity": {
          "system": "http://unitsofmeasure.org",
          "value": 1.1,
          "unit": "mg/dL",
          "code": "mg/dL"
        },
        "referenceRange": [
          {
            "low": {
              "value": 0.5,
              "code": "mg/dL",
              "system": "http://unitsofmeasure.org"
            }
          },
          {
            "high": {
              "value": 1.3,
              "code": "mg/dL",
              "system": "http://unitsofmeasure.org"
            }
          }
        ],
        "text": {
          "status": "generated",
          "div": "<div xmlns=\"http://www.w3.org/1999/xhtml\"><table class=\"hl7__eu__lab__report\"><tr><th>Test</th><th>30-Jan-2019</th><th>Reference&#xA0;Range</th><th>Unit</th></tr><tr><td>Creatinine [Mass/volume] in Blood</td><td>1.1</td><td>0.5 - 1.3</td><td></td><td>mg/dL</td></tr></table></div>"
        },
        "status": "final",
        "subject": {
          "reference": "urn:uuid:1d2cf07e-ff01-4bfc-91da-b900c037a1ca",
          "display": "Jele Jurković"
        },
        "effectiveDateTime": "2019-01-30T18:07:38Z",
        "specimen": {
          "reference": "urn:uuid:c0b12bba-3aac-47f5-90ef-b7c97ca66228"
        }
      }
    },
    {
      "fullUrl": "urn:uuid:33413dbe-914a-406c-b858-060c0fee1698",
      "resource": {
        "resourceType": "Observation",
        "id": "33413dbe-914a-406c-b858-060c0fee1698",
        "meta": {
          "profile": [
            "http://hl7.eu/fhir/laboratory/StructureDefinition/Observation-resultslab-eu-lab"
          ]
        },
        "performer": [
          {
            "display": "The Central European Lab"
          }
        ],
        "category": [
          {
            "coding": [
              {
                "system": "http://terminology.hl7.org/CodeSystem/observation-category",
                "code": "laboratory"
              }
            ]
          }
        ],
        "code": {
          "coding": [
            {
              "code": "49765-1",
              "system": "http://loinc.org",
              "display": "Calcium [Mass/volume] in Blood"
            }
          ],
          "text": "Calcium [Mass/volume] in Blood"
        },
        "valueQuantity": {
          "system": "http://unitsofmeasure.org",
          "value": 8.9,
          "unit": "mg/dL",
          "code": "mg/dL"
        },
        "referenceRange": [
          {
            "low": {
              "value": 8.5,
              "code": "mg/dL",
              "system": "http://unitsofmeasure.org"
            }
          },
          {
            "high": {
              "value": 10.4,
              "code": "mg/dL",
              "system": "http://unitsofmeasure.org"
            }
          }
        ],
        "text": {
          "status": "generated",
          "div": "<div xmlns=\"http://www.w3.org/1999/xhtml\"><table class=\"hl7__eu__lab__report\"><tr><th>Test</th><th>30-Jan-2019</th><th>Reference&#xA0;Range</th><th>Unit</th></tr><tr><td>Calcium [Mass/volume] in Blood</td><td>8.9</td><td>8.5 - 10.4</td><td></td><td>mg/dL</td></tr></table></div>"
        },
        "status": "final",
        "subject": {
          "reference": "urn:uuid:1d2cf07e-ff01-4bfc-91da-b900c037a1ca",
          "display": "Jele Jurković"
        },
        "effectiveDateTime": "2019-01-30T18:07:38Z",
        "specimen": {
          "reference": "urn:uuid:c0b12bba-3aac-47f5-90ef-b7c97ca66228"
        }
      }
    },
    {
      "fullUrl": "urn:uuid:2deb112c-c6c1-4a72-89ab-24c901686c6c",
      "resource": {
        "resourceType": "Observation",
        "id": "2deb112c-c6c1-4a72-89ab-24c901686c6c",
        "meta": {
          "profile": [
            "http://hl7.eu/fhir/laboratory/StructureDefinition/Observation-resultslab-eu-lab"
          ]
        },
        "performer": [
          {
            "display": "The Central European Lab"
          }
        ],
        "category": [
          {
            "coding": [
              {
                "system": "http://terminology.hl7.org/CodeSystem/observation-category",
                "code": "laboratory"
              }
            ]
          }
        ],
        "code": {
          "coding": [
            {
              "code": "2947-0",
              "system": "http://loinc.org",
              "display": "Sodium [Moles/volume] in Blood"
            }
          ],
          "text": "Sodium [Moles/volume] in Blood"
        },
        "valueQuantity": {
          "system": "http://unitsofmeasure.org",
          "value": 136.3,
          "unit": "mmol/L",
          "code": "mmol/L"
        },
        "referenceRange": [
          {
            "low": {
              "value": 135,
              "code": "mmol/L",
              "system": "http://unitsofmeasure.org"
            }
          },
          {
            "high": {
              "value": 145,
              "code": "mmol/L",
              "system": "http://unitsofmeasure.org"
            }
          }
        ],
        "text": {
          "status": "generated",
          "div": "<div xmlns=\"http://www.w3.org/1999/xhtml\"><table class=\"hl7__eu__lab__report\"><tr><th>Test</th><th>30-Jan-2019</th><th>Reference&#xA0;Range</th><th>Unit</th></tr><tr><td>Sodium [Moles/volume] in Blood</td><td>136.3</td><td>135 - 145</td><td></td><td>mmol/L</td></tr></table></div>"
        },
        "status": "final",
        "subject": {
          "reference": "urn:uuid:1d2cf07e-ff01-4bfc-91da-b900c037a1ca",
          "display": "Jele Jurković"
        },
        "effectiveDateTime": "2019-01-30T18:07:38Z",
        "specimen": {
          "reference": "urn:uuid:c0b12bba-3aac-47f5-90ef-b7c97ca66228"
        }
      }
    },
    {
      "fullUrl": "urn:uuid:00f7cd3b-3a77-4db6-b84c-8acdbce02461",
      "resource": {
        "resourceType": "Observation",
        "id": "00f7cd3b-3a77-4db6-b84c-8acdbce02461",
        "meta": {
          "profile": [
            "http://hl7.eu/fhir/laboratory/StructureDefinition/Observation-resultslab-eu-lab"
          ]
        },
        "performer": [
          {
            "display": "The Central European Lab"
          }
        ],
        "category": [
          {
            "coding": [
              {
                "system": "http://terminology.hl7.org/CodeSystem/observation-category",
                "code": "laboratory"
              }
            ]
          }
        ],
        "code": {
          "coding": [
            {
              "code": "6298-4",
              "system": "http://loinc.org",
              "display": "Potassium [Moles/volume] in Blood"
            }
          ],
          "text": "Potassium [Moles/volume] in Blood"
        },
        "valueQuantity": {
          "system": "http://unitsofmeasure.org",
          "value": 4.7,
          "unit": "mmol/L",
          "code": "mmol/L"
        },
        "referenceRange": [
          {
            "low": {
              "value": 3.5,
              "code": "mmol/L",
              "system": "http://unitsofmeasure.org"
            }
          },
          {
            "high": {
              "value": 5.3,
              "code": "mmol/L",
              "system": "http://unitsofmeasure.org"
            }
          }
        ],
        "text": {
          "status": "generated",
          "div": "<div xmlns=\"http://www.w3.org/1999/xhtml\"><table class=\"hl7__eu__lab__report\"><tr><th>Test</th><th>30-Jan-2019</th><th>Reference&#xA0;Range</th><th>Unit</th></tr><tr><td>Potassium [Moles/volume] in Blood</td><td>4.7</td><td>3.5 - 5.3</td><td></td><td>mmol/L</td></tr></table></div>"
        },
        "status": "final",
        "subject": {
          "reference": "urn:uuid:1d2cf07e-ff01-4bfc-91da-b900c037a1ca",
          "display": "Jele Jurković"
        },
        "effectiveDateTime": "2019-01-30T18:07:38Z",
        "specimen": {
          "reference": "urn:uuid:c0b12bba-3aac-47f5-90ef-b7c97ca66228"
        }
      }
    },
    {
      "fullUrl": "urn:uuid:3e89e87b-4bba-46b8-b626-617136142669",
      "resource": {
        "resourceType": "Observation",
        "id": "3e89e87b-4bba-46b8-b626-617136142669",
        "meta": {
          "profile": [
            "http://hl7.eu/fhir/laboratory/StructureDefinition/Observation-resultslab-eu-lab"
          ]
        },
        "performer": [
          {
            "display": "The Central European Lab"
          }
        ],
        "category": [
          {
            "coding": [
              {
                "system": "http://terminology.hl7.org/CodeSystem/observation-category",
                "code": "laboratory"
              }
            ]
          }
        ],
        "code": {
          "coding": [
            {
              "code": "2069-3",
              "system": "http://loinc.org",
              "display": "Chloride [Moles/volume] in Blood"
            }
          ],
          "text": "Chloride [Moles/volume] in Blood"
        },
        "valueQuantity": {
          "system": "http://unitsofmeasure.org",
          "value": 109.2,
          "unit": "mmol/L",
          "code": "mmol/L"
        },
        "referenceRange": [
          {
            "low": {
              "value": 98,
              "code": "mmol/L",
              "system": "http://unitsofmeasure.org"
            }
          },
          {
            "high": {
              "value": 110,
              "code": "mmol/L",
              "system": "http://unitsofmeasure.org"
            }
          }
        ],
        "text": {
          "status": "generated",
          "div": "<div xmlns=\"http://www.w3.org/1999/xhtml\"><table class=\"hl7__eu__lab__report\"><tr><th>Test</th><th>30-Jan-2019</th><th>Reference&#xA0;Range</th><th>Unit</th></tr><tr><td>Chloride [Moles/volume] in Blood</td><td>109.2</td><td>98 - 110</td><td></td><td>mmol/L</td></tr></table></div>"
        },
        "status": "final",
        "subject": {
          "reference": "urn:uuid:1d2cf07e-ff01-4bfc-91da-b900c037a1ca",
          "display": "Jele Jurković"
        },
        "effectiveDateTime": "2019-01-30T18:07:38Z",
        "specimen": {
          "reference": "urn:uuid:c0b12bba-3aac-47f5-90ef-b7c97ca66228"
        }
      }
    },
    {
      "fullUrl": "urn:uuid:7b352a5e-2f30-4d28-896e-aa66c0b217fa",
      "resource": {
        "resourceType": "Observation",
        "id": "7b352a5e-2f30-4d28-896e-aa66c0b217fa",
        "meta": {
          "profile": [
            "http://hl7.eu/fhir/laboratory/StructureDefinition/Observation-resultslab-eu-lab"
          ]
        },
        "performer": [
          {
            "display": "The Central European Lab"
          }
        ],
        "category": [
          {
            "coding": [
              {
                "system": "http://terminology.hl7.org/CodeSystem/observation-category",
                "code": "laboratory"
              }
            ]
          }
        ],
        "code": {
          "coding": [
            {
              "code": "20565-8",
              "system": "http://loinc.org",
              "display": "Carbon dioxide, total [Moles/volume] in Blood"
            }
          ],
          "text": "Carbon dioxide, total [Moles/volume] in Blood"
        },
        "valueQuantity": {
          "system": "http://unitsofmeasure.org",
          "value": 27.3,
          "unit": "mmol/L",
          "code": "mmol/L"
        },
        "referenceRange": [
          {
            "low": {
              "value": 22,
              "code": "mmol/L",
              "system": "http://unitsofmeasure.org"
            }
          },
          {
            "high": {
              "value": 32,
              "code": "mmol/L",
              "system": "http://unitsofmeasure.org"
            }
          }
        ],
        "text": {
          "status": "generated",
          "div": "<div xmlns=\"http://www.w3.org/1999/xhtml\"><table class=\"hl7__eu__lab__report\"><tr><th>Test</th><th>30-Jan-2019</th><th>Reference&#xA0;Range</th><th>Unit</th></tr><tr><td>Carbon dioxide, total [Moles/volume] in Blood</td><td>27.3</td><td>22 - 32</td><td></td><td>mmol/L</td></tr></table></div>"
        },
        "status": "final",
        "subject": {
          "reference": "urn:uuid:1d2cf07e-ff01-4bfc-91da-b900c037a1ca",
          "display": "Jele Jurković"
        },
        "effectiveDateTime": "2019-01-30T18:07:38Z",
        "specimen": {
          "reference": "urn:uuid:c0b12bba-3aac-47f5-90ef-b7c97ca66228"
        }
      }
    },
    {
      "fullUrl": "urn:uuid:b19b6d4f-d8c0-4b3d-b181-bcf7c4dda515",
      "resource": {
        "resourceType": "Device",
        "id": "b19b6d4f-d8c0-4b3d-b181-bcf7c4dda515",
        "deviceName": [
          {
            "name": "SYNDERAI Synthetic Generator",
            "type": "manufacturer-name"
          }
        ],
        "version": [
          {
            "value": "5.0"
          }
        ],
        "text": {
          "status": "generated",
          "div": "<div xmlns=\"http://www.w3.org/1999/xhtml\">SYNDERAI Synthetic Generator v5.0</div>"
        },
        "status": "active\"",
        "distinctIdentifier": "synderai-generator-50",
        "manufacturer": "SYNDERAI Project"
      }
    },
    {
      "fullUrl": "urn:uuid:42036272-bb9f-4c42-86bc-449cac36d933",
      "resource": {
        "resourceType": "Provenance",
        "id": "42036272-bb9f-4c42-86bc-449cac36d933",
        "target": [
          {
            "reference": "Patient/1d2cf07e-ff01-4bfc-91da-b900c037a1ca"
          },
          {
            "reference": "Bundle/b363f27d-ec11-4679-9955-c2aace68cde2"
          },
          {
            "reference": "Composition/d47d8db2-64c6-45ea-afa6-fb07afa72301"
          },
          {
            "reference": "PractitionerRole/9502402f-0f4c-4c30-9ceb-d5bdbaf86524"
          },
          {
            "reference": "Practitioner/e1da1386-a9ce-42cf-8658-373f89179d38"
          },
          {
            "reference": "PractitionerRole/41306c04-e907-464f-a381-893e069b1e6c"
          },
          {
            "reference": "Organization/05d5085e-1253-4d05-85e5-5c0291a0be6e"
          }
        ],
        "activity": {
          "text": "Synthetic Example Data Generation"
        },
        "policy": [
          "https://synderai.net/synderai-synthetic-data-policy"
        ],
        "agent": [
          {
            "type": {
              "text": "author"
            },
            "who": {
              "reference": "Device/b19b6d4f-d8c0-4b3d-b181-bcf7c4dda515"
            }
          }
        ],
        "reason": [
          {
            "text": "Interoperability Testing and Training (non-clinical use)"
          }
        ],
        "text": {
          "status": "generated",
          "div": "<div xmlns=\"http://www.w3.org/1999/xhtml\">Provenance for SYNDERAI Synthetic Example Data Resource</div>"
        },
        "recorded": "2019-01-30T19:07:38Z"
      }
    },
    {
      "fullUrl": "urn:uuid:9502402f-0f4c-4c30-9ceb-d5bdbaf86524",
      "resource": {
        "resourceType": "PractitionerRole",
        "id": "9502402f-0f4c-4c30-9ceb-d5bdbaf86524",
        "meta": {
          "profile": [
            "http://hl7.eu/fhir/base/StructureDefinition/practitionerRole-eu"
          ]
        },
        "text": {
          "status": "generated",
          "div": "<div xmlns=\"http://www.w3.org/1999/xhtml\">Laboratory Role Id: 9502402f-0f4c-4c30-9ceb-d5bdbaf86524</div>"
        },
        "practitioner": {
          "reference": "urn:uuid:e1da1386-a9ce-42cf-8658-373f89179d38"
        }
      }
    },
    {
      "fullUrl": "urn:uuid:e1da1386-a9ce-42cf-8658-373f89179d38",
      "resource": {
        "resourceType": "Practitioner",
        "id": "e1da1386-a9ce-42cf-8658-373f89179d38",
        "meta": {
          "profile": [
            "http://hl7.eu/fhir/base/StructureDefinition/practitioner-eu"
          ]
        },
        "identifier": [
          {
            "assigner": {
              "display": "HL7 Europe"
            },
            "system": "urn:oid:2.16.840.1.113883.2.51.999",
            "value": "8abdf206-b6e9-4376-adbf-b6cad5fea119"
          }
        ],
        "name": [
          {
            "prefix": [
              "dr"
            ],
            "given": [
              "Ex"
            ],
            "family": "Ample"
          }
        ],
        "address": [
          {
            "line": [
              "Laboratoire Central Européenne",
              "Boulevard du Jardin Botanique 32"
            ],
            "postalCode": "1000",
            "city": "Brussels",
            "country": "Belgium"
          }
        ],
        "text": {
          "status": "generated",
          "div": "<div xmlns=\"http://www.w3.org/1999/xhtml\">Laboratory: Laboratoire Central Européenne, 1000 Brussels, Belgium</div>"
        }
      }
    }
  ],
  "type": "document",
  "timestamp": "2019-01-30T19:07:38Z"
}
