<Bundle xmlns="http://hl7.org/fhir">
   <id value="f8979abe-a78c-47b9-9861-b108488c4587"/>
   <meta>
      <profile value="http://hl7.eu/fhir/laboratory/StructureDefinition/Bundle-eu-lab"/>
   </meta>
   <identifier>
      <system value="urn:oid:2.16.840.1.113883.2.51.999"/>
      <value value="3691eafc-f659-46ad-846d-07a616283278"/>
      <assigner>
         <display value="HL7 Europe"/>
      </assigner>
   </identifier>
   <type value="document"/>
   <timestamp value="2020-07-17T14:15:57Z"/>
   <entry>
      <fullUrl value="urn:uuid:2b3a92ec-cc29-45e8-b2ae-bb432c61c80d"/>
      <resource>
         <Composition>
            <id value="2b3a92ec-cc29-45e8-b2ae-bb432c61c80d"/>
            <meta>
               <profile value="http://hl7.eu/fhir/laboratory/StructureDefinition/Composition-eu-lab"/>
            </meta>
            <identifier>
               <system value="urn:oid:2.16.840.1.113883.2.51.999"/>
               <value value="8a13732d-5835-4122-9c76-6bb6a9e0e9d9"/>
               <assigner>
                  <display value="HL7 Europe"/>
               </assigner>
            </identifier>
            <status value="final"/>
            <type>
               <coding>
                  <system value="http://loinc.org"/>
                  <code value="11502-2"/>
                  <display value="Laboratory report"/>
               </coding>
               <text value="Laboratory Report"/>
            </type>
            <category>
               <coding>
                  <system value="http://loinc.org"/>
                  <code value="26436-6"/>
                  <display value="Laboratory studies (set)"/>
               </coding>
            </category>
            <subject>
               <reference value="urn:uuid:4e1bcce6-0927-4195-99b4-6c1651fdaee0"/>
               <display value="Hynek Kubíčková"/>
            </subject>
            <date value="2020-07-17T14:15:57Z"/>
            <author>
               <reference value="urn:uuid:f1a8df25-fbae-4ace-ac07-386bee84563e"/>
            </author>
            <title value="Laboratory Report"/>
            <confidentiality value="N"/>
            <section>
               <title value="Laboratory Report"/>
               <code>
                  <coding>
                     <system value="http://loinc.org"/>
                     <code value="26436-6"/>
                     <display value="Laboratory studies (set)"/>
                  </coding>
                  <text value="Laboratory studies"/>
               </code>
               <section>
                  <title value="Microbiology"/>
                  <code>
                     <coding>
                        <system value="http://loinc.org"/>
                        <code value="$18725-2"/>
                        <display value="Microbiology studies"/>
                     </coding>
                     <text value="Microbiology"/>
                  </code>
                  <text>
                     <status value="generated"/>
                     <div xmlns="http://www.w3.org/1999/xhtml">
                        <h3>Microbiology</h3>
                        <table class="hl7__eu__lab__report">
                           <thead>
                              <tr>
                                 <th>Test</th>
                                 <th>17-JUL-2020</th>
                                 <th>Reference Range</th>
                                 <th>Unit</th>
                              </tr>
                           </thead>
                           <tbody>
                              <tr>
                                 <td>Influenza virus A Ag [Presence] in Upper respiratory specimen by Rapid immunoassay</td>
                                 <td>Not detected</td>
                                 <td/>
                                 <td/>
                              </tr>
                              <tr>
                                 <td>Influenza virus B Ag [Presence] in Upper respiratory specimen by Rapid immunoassay</td>
                                 <td>Not detected</td>
                                 <td/>
                                 <td/>
                              </tr>
                           </tbody>
                        </table>
                     </div>
                  </text>
                  <entry>
                     <reference value="urn:uuid:94b43f99-773b-4d25-9b07-0877ee546bd1"/>
                  </entry>
                  <entry>
                     <reference value="urn:uuid:7a70e076-6a15-4b74-b7d3-8fc9374b33db"/>
                  </entry>
               </section>
            </section>
            <section>
               <title value="Annotation comment"/>
               <code>
                  <coding>
                     <system value="http://loinc.org"/>
                     <code value="48767-8"/>
                     <display value="Annotation comment"/>
                  </coding>
               </code>
               <text>
                  <status value="generated"/>
                  <div xmlns="http://www.w3.org/1999/xhtml">
                     <h3>Annotation</h3>
                     <table class="hl7__eu__lab__report">
                        <tr>
                           <th>Conclusion and Recommendations based on this report and previous findings known to us</th>
                        </tr>
                        <tr>
                           <td>Both Influenza A and B antigens were not detected in the upper respiratory specimen, indicating no evidence of acute influenza A or B infection at the time of testing. No laboratory abnormalities are present in these results.</td>
                        </tr>
                     </table>
                  </div>
               </text>
            </section>
         </Composition>
      </resource>
   </entry>
   <entry>
      <fullUrl value="urn:uuid:6c579af5-8b9b-4487-8e3d-dad93605fe69"/>
      <resource>
         <DiagnosticReport>
            <id value="6c579af5-8b9b-4487-8e3d-dad93605fe69"/>
            <meta>
               <profile value="http://hl7.eu/fhir/laboratory/StructureDefinition/DiagnosticReport-eu-lab"/>
            </meta>
            <extension url="http://hl7.org/fhir/5.0/StructureDefinition/extension-DiagnosticReport.composition">
               <valueReference>
                  <reference value="urn:uuid:8a13732d-5835-4122-9c76-6bb6a9e0e9d9"/>
               </valueReference>
            </extension>
            <identifier>
               <system value="urn:oid:2.16.840.1.113883.2.51.999"/>
               <value value="4ac8e7f2-3f4e-46cc-9593-5386f73fd05b"/>
               <assigner>
                  <display value="HL7 Europe"/>
               </assigner>
            </identifier>
            <status value="registered"/>
            <category>
               <coding>
                  <system value="http://loinc.org"/>
                  <code value="26436-6"/>
                  <display value="Laboratory studies (set)"/>
               </coding>
            </category>
            <code>
               <coding>
                  <system value="http://loinc.org"/>
                  <code value="11502-2"/>
                  <display value="Laboratory report"/>
               </coding>
            </code>
            <subject>
               <reference value="urn:uuid:4e1bcce6-0927-4195-99b4-6c1651fdaee0"/>
               <display value="Hynek Kubíčková"/>
            </subject>
            <specimen>
               <reference value="urn:uuid:24edbdde-1de8-4496-9a5d-24daa9d3c9cc"/>
            </specimen>
            <result>
               <reference value="urn:uuid:94b43f99-773b-4d25-9b07-0877ee546bd1"/>
            </result>
            <result>
               <reference value="urn:uuid:7a70e076-6a15-4b74-b7d3-8fc9374b33db"/>
            </result>
         </DiagnosticReport>
      </resource>
   </entry>
   <entry>
      <fullUrl value="urn:uuid:4e1bcce6-0927-4195-99b4-6c1651fdaee0"/>
      <resource>
         <Patient>
            <id value="4e1bcce6-0927-4195-99b4-6c1651fdaee0"/>
            <meta>
               <profile value="http://hl7.eu/fhir/base/StructureDefinition/patient-eu-core"/>
               <security>
                  <system value="http://terminology.hl7.org/CodeSystem/v3-ActReason"/>
                  <code value="HTEST"/>
               </security>
               <security>
                  <system value="http://terminology.hl7.org/CodeSystem/v3-ActReason"/>
                  <code value="TRAIN"/>
               </security>
               <tag>
                  <system value="https://synderai.net/fhir/CodeSystem/tags"/>
                  <code value="synthetic"/>
                  <display value="SYNDERAI Synthetic data"/>
               </tag>
            </meta>
            <text>
               <status value="generated"/>
               <div xmlns="http://www.w3.org/1999/xhtml">
                  <table class="hl7__ips">
                     <tr>
                        <td>Hynek Kubíčková</td>
                        <td>male</td>
                        <td>24-Jun-2005</td>
                     </tr>
                  </table>
               </div>
            </text>
            <extension url="http://hl7.org/fhir/StructureDefinition/patient-nationality">
               <valueCodeableConcept>
                  <coding>
                     <system value="http://hl7.org/fhir/ValueSet/country"/>
                     <code value="CZ"/>
                  </coding>
               </valueCodeableConcept>
            </extension>
            <identifier>
               <type>
                  <coding>
                     <system value="http://terminology.hl7.org/CodeSystem/v2-0203"/>
                     <code value="PT"/>
                  </coding>
               </type>
               <system value="http://ec.europa.eu/identifier/eci"/>
               <value value="9771-756399-9"/>
            </identifier>
            <identifier>
               <type>
                  <coding>
                     <system value="http://terminology.hl7.org/CodeSystem/v2-0203"/>
                     <code value="MR"/>
                  </coding>
               </type>
               <system value="http://local.setting.eu/identifier"/>
               <value value="0a9c3ea6-b526-4dcc-cde1-545cdfca14b2"/>
            </identifier>
            <name>
               <family value="Kubíčková"/>
            </name>
            <name>
               <given value="Hynek"/>
            </name>
            <name>
               <text value="Hynek Kubíčková"/>
            </name>
            <telecom>
               <system value="phone"/>
               <value value="+420 605 458 784"/>
            </telecom>
            <gender value="male"/>
            <birthDate value="2005-06-24"/>
            <address>
               <use value="home"/>
               <type value="physical"/>
               <line value="Vraňanská 9"/>
               <city value="Frýdlant nad Ostravicí"/>
               <postalCode value="739 11"/>
               <country value="Czechia"/>
            </address>
         </Patient>
      </resource>
   </entry>
   <entry>
      <fullUrl value="urn:uuid:dcbf3370-9acf-46ee-b7c3-260e09740d47"/>
      <resource>
         <ServiceRequest>
            <id value="dcbf3370-9acf-46ee-b7c3-260e09740d47"/>
            <meta>
               <profile value="http://hl7.eu/fhir/laboratory/StructureDefinition/ServiceRequest-eu-lab"/>
            </meta>
            <identifier>
               <system value="http://example.org"/>
               <value value="f712f884-ac77-4f24-a06b-e7536d864a65"/>
            </identifier>
            <status value="active"/>
            <intent value="order"/>
            <code>
               <coding>
                  <system value="http://snomed.info/sct"/>
                  <code value="108252007"/>
                  <display value="Laboratory procedure"/>
               </coding>
            </code>
            <subject>
               <reference value="urn:uuid:4e1bcce6-0927-4195-99b4-6c1651fdaee0"/>
               <display value="Hynek Kubíčková"/>
            </subject>
            <requester>
               <reference value="urn:uuid:38cbff76-2a5b-42e2-ac98-b5be515a6881"/>
            </requester>
            <specimen>
               <reference value="urn:uuid:24edbdde-1de8-4496-9a5d-24daa9d3c9cc"/>
            </specimen>
         </ServiceRequest>
      </resource>
   </entry>
   <entry>
      <fullUrl value="urn:uuid:38cbff76-2a5b-42e2-ac98-b5be515a6881"/>
      <resource>
         <PractitionerRole>
            <id value="38cbff76-2a5b-42e2-ac98-b5be515a6881"/>
            <meta>
               <profile value="http://hl7.eu/fhir/base/StructureDefinition/practitionerRole-eu"/>
            </meta>
            <text>
               <status value="generated"/>
               <div xmlns="http://www.w3.org/1999/xhtml">Provider Role Id: 38cbff76-2a5b-42e2-ac98-b5be515a6881</div>
            </text>
            <organization>
               <reference value="urn:uuid:082e86df-36a6-4705-9cc7-44248333094a"/>
            </organization>
         </PractitionerRole>
      </resource>
   </entry>
   <entry>
      <fullUrl value="urn:uuid:082e86df-36a6-4705-9cc7-44248333094a"/>
      <resource>
         <Organization>
            <id value="082e86df-36a6-4705-9cc7-44248333094a"/>
            <meta>
               <profile value="http://hl7.eu/fhir/base/StructureDefinition/organization-eu"/>
            </meta>
            <text>
               <status value="generated"/>
               <div xmlns="http://www.w3.org/1999/xhtml">Provider Organization: Beskydské rehabilitační centrum</div>
            </text>
            <identifier>
               <system value="urn:oid:2.16.840.1.113883.2.51.999"/>
               <value value="50541c3c-c976-46e3-bce0-0955027bdf0f"/>
               <assigner>
                  <display value="HL7 Europe"/>
               </assigner>
            </identifier>
            <name value="Beskydské rehabilitační centrum"/>
            <address>
               <city value="Čeladná"/>
               <postalCode value="739 12"/>
               <country value="Czechia"/>
            </address>
         </Organization>
      </resource>
   </entry>
   <entry>
      <fullUrl value="urn:uuid:24edbdde-1de8-4496-9a5d-24daa9d3c9cc"/>
      <resource>
         <Specimen>
            <id value="24edbdde-1de8-4496-9a5d-24daa9d3c9cc"/>
            <meta>
               <profile value="http://hl7.eu/fhir/laboratory/StructureDefinition/Specimen-eu-lab"/>
            </meta>
            <text>
               <status value="generated"/>
               <div xmlns="http://www.w3.org/1999/xhtml">
                  <table class="hl7__eu__lab__report">
                     <tr>
                        <th>Specimen</th>
                        <th>Collection Date</th>
                     </tr>
                     <tr>
                        <td>Upper respiratory specimen (specimen)</td>
                        <td>
                           <span class="nb">17-Jul-2020</span>
                        </td>
                     </tr>
                  </table>
               </div>
            </text>
            <type>
               <coding>
                  <system value="http://snomed.info/sct"/>
                  <code value="258604001"/>
                  <display value="Upper respiratory specimen (specimen)"/>
               </coding>
            </type>
            <collection>
               <collectedDateTime value="2020-07-17"/>
            </collection>
         </Specimen>
      </resource>
   </entry>
   <entry>
      <fullUrl value="urn:uuid:94b43f99-773b-4d25-9b07-0877ee546bd1"/>
      <resource>
         <Observation>
            <id value="94b43f99-773b-4d25-9b07-0877ee546bd1"/>
            <meta>
               <profile value="http://hl7.eu/fhir/laboratory/StructureDefinition/Observation-resultslab-eu-lab"/>
            </meta>
            <text>
               <status value="generated"/>
               <div xmlns="http://www.w3.org/1999/xhtml">
                  <table class="hl7__eu__lab__report">
                     <tr>
                        <th>Test</th>
                        <th>17-Jul-2020</th>
                        <th>Reference Range</th>
                        <th>Unit</th>
                     </tr>
                     <tr>
                        <td>Influenza virus A Ag [Presence] in Upper respiratory specimen by Rapid immunoassay</td>
                     </tr>
                  </table>
               </div>
            </text>
            <status value="final"/>
            <category>
               <coding>
                  <system value="http://terminology.hl7.org/CodeSystem/observation-category"/>
                  <code value="laboratory"/>
               </coding>
            </category>
            <code>
               <coding>
                  <system value="http://loinc.org"/>
                  <code value="80382-5"/>
                  <display value="Influenza virus A Ag [Presence] in Upper respiratory specimen by Rapid immunoassay"/>
               </coding>
               <text value="Influenza virus A Ag [Presence] in Upper respiratory specimen by Rapid immunoassay"/>
            </code>
            <subject>
               <reference value="urn:uuid:4e1bcce6-0927-4195-99b4-6c1651fdaee0"/>
               <display value="Hynek Kubíčková"/>
            </subject>
            <effectiveDateTime value="2020-07-17T12:15:57Z"/>
            <performer>
               <display value="The Central European Lab"/>
            </performer>
            <specimen>
               <reference value="urn:uuid:24edbdde-1de8-4496-9a5d-24daa9d3c9cc"/>
            </specimen>
         </Observation>
      </resource>
   </entry>
   <entry>
      <fullUrl value="urn:uuid:7a70e076-6a15-4b74-b7d3-8fc9374b33db"/>
      <resource>
         <Observation>
            <id value="7a70e076-6a15-4b74-b7d3-8fc9374b33db"/>
            <meta>
               <profile value="http://hl7.eu/fhir/laboratory/StructureDefinition/Observation-resultslab-eu-lab"/>
            </meta>
            <text>
               <status value="generated"/>
               <div xmlns="http://www.w3.org/1999/xhtml">
                  <table class="hl7__eu__lab__report">
                     <tr>
                        <th>Test</th>
                        <th>17-Jul-2020</th>
                        <th>Reference Range</th>
                        <th>Unit</th>
                     </tr>
                     <tr>
                        <td>Influenza virus B Ag [Presence] in Upper respiratory specimen by Rapid immunoassay</td>
                     </tr>
                  </table>
               </div>
            </text>
            <status value="final"/>
            <category>
               <coding>
                  <system value="http://terminology.hl7.org/CodeSystem/observation-category"/>
                  <code value="laboratory"/>
               </coding>
            </category>
            <code>
               <coding>
                  <system value="http://loinc.org"/>
                  <code value="80383-3"/>
                  <display value="Influenza virus B Ag [Presence] in Upper respiratory specimen by Rapid immunoassay"/>
               </coding>
               <text value="Influenza virus B Ag [Presence] in Upper respiratory specimen by Rapid immunoassay"/>
            </code>
            <subject>
               <reference value="urn:uuid:4e1bcce6-0927-4195-99b4-6c1651fdaee0"/>
               <display value="Hynek Kubíčková"/>
            </subject>
            <effectiveDateTime value="2020-07-17T12:15:57Z"/>
            <performer>
               <display value="The Central European Lab"/>
            </performer>
            <specimen>
               <reference value="urn:uuid:24edbdde-1de8-4496-9a5d-24daa9d3c9cc"/>
            </specimen>
         </Observation>
      </resource>
   </entry>
   <entry>
      <fullUrl value="urn:uuid:b77588d9-83a3-48c7-b9b6-62fcacf733cd"/>
      <resource>
         <Device>
            <id value="b77588d9-83a3-48c7-b9b6-62fcacf733cd"/>
            <text>
               <status value="generated"/>
               <div xmlns="http://www.w3.org/1999/xhtml">SYNDERAI Synthetic Generator v5.0</div>
            </text>
            <status value="active&#34;"/>
            <distinctIdentifier value="synderai-generator-50"/>
            <manufacturer value="SYNDERAI Project"/>
            <deviceName>
               <name value="SYNDERAI Synthetic Generator"/>
               <type value="manufacturer-name"/>
            </deviceName>
            <version>
               <value value="5.0"/>
            </version>
         </Device>
      </resource>
   </entry>
   <entry>
      <fullUrl value="urn:uuid:6cb05b29-97d7-474f-80aa-20252a742bfb"/>
      <resource>
         <Provenance>
            <id value="6cb05b29-97d7-474f-80aa-20252a742bfb"/>
            <text>
               <status value="generated"/>
               <div xmlns="http://www.w3.org/1999/xhtml">Provenance for SYNDERAI Synthetic Example Data Resource</div>
            </text>
            <target>
               <reference value="Patient/4e1bcce6-0927-4195-99b4-6c1651fdaee0"/>
            </target>
            <target>
               <reference value="Bundle/f8979abe-a78c-47b9-9861-b108488c4587"/>
            </target>
            <target>
               <reference value="Composition/2b3a92ec-cc29-45e8-b2ae-bb432c61c80d"/>
            </target>
            <target>
               <reference value="PractitionerRole/f1a8df25-fbae-4ace-ac07-386bee84563e"/>
            </target>
            <target>
               <reference value="Practitioner/857a4ff1-f5d1-4789-a927-d9b782123015"/>
            </target>
            <target>
               <reference value="PractitionerRole/38cbff76-2a5b-42e2-ac98-b5be515a6881"/>
            </target>
            <target>
               <reference value="Organization/082e86df-36a6-4705-9cc7-44248333094a"/>
            </target>
            <recorded value="2020-07-17T14:15:57Z"/>
            <policy value="https://synderai.net/synderai-synthetic-data-policy"/>
            <reason>
               <text value="Interoperability Testing and Training (non-clinical use)"/>
            </reason>
            <activity>
               <text value="Synthetic Example Data Generation"/>
            </activity>
            <agent>
               <type>
                  <text value="author"/>
               </type>
               <who>
                  <reference value="Device/b77588d9-83a3-48c7-b9b6-62fcacf733cd"/>
               </who>
            </agent>
         </Provenance>
      </resource>
   </entry>
   <entry>
      <fullUrl value="urn:uuid:f1a8df25-fbae-4ace-ac07-386bee84563e"/>
      <resource>
         <PractitionerRole>
            <id value="f1a8df25-fbae-4ace-ac07-386bee84563e"/>
            <meta>
               <profile value="http://hl7.eu/fhir/base/StructureDefinition/practitionerRole-eu"/>
            </meta>
            <text>
               <status value="generated"/>
               <div xmlns="http://www.w3.org/1999/xhtml">Laboratory Role Id: f1a8df25-fbae-4ace-ac07-386bee84563e</div>
            </text>
            <practitioner>
               <reference value="urn:uuid:857a4ff1-f5d1-4789-a927-d9b782123015"/>
            </practitioner>
         </PractitionerRole>
      </resource>
   </entry>
   <entry>
      <fullUrl value="urn:uuid:857a4ff1-f5d1-4789-a927-d9b782123015"/>
      <resource>
         <Practitioner>
            <id value="857a4ff1-f5d1-4789-a927-d9b782123015"/>
            <meta>
               <profile value="http://hl7.eu/fhir/base/StructureDefinition/practitioner-eu"/>
            </meta>
            <text>
               <status value="generated"/>
               <div xmlns="http://www.w3.org/1999/xhtml">Laboratory: Laboratoire Central Européenne, 1000 Brussels, Belgium</div>
            </text>
            <identifier>
               <system value="urn:oid:2.16.840.1.113883.2.51.999"/>
               <value value="83143813-9883-4eec-a82f-f724b7f3a22e"/>
               <assigner>
                  <display value="HL7 Europe"/>
               </assigner>
            </identifier>
            <name>
               <family value="Ample"/>
               <given value="Ex"/>
               <prefix value="dr"/>
            </name>
            <address>
               <line value="Laboratoire Central Européenne"/>
               <line value="Boulevard du Jardin Botanique 32"/>
               <city value="Brussels"/>
               <postalCode value="1000"/>
               <country value="Belgium"/>
            </address>
         </Practitioner>
      </resource>
   </entry>
</Bundle>