{
  "resourceType": "Bundle",
  "id": "9d8a53a6-5284-4bdc-8e0d-ff2affa1f2b5",
  "meta": {
    "profile": [
      "http://hl7.eu/fhir/laboratory/StructureDefinition/Bundle-eu-lab"
    ]
  },
  "identifier": {
    "assigner": {
      "display": "HL7 Europe"
    },
    "system": "urn:oid:2.16.840.1.113883.2.51.999",
    "value": "77735fac-e647-425e-a01d-9678f970f05e"
  },
  "entry": [
    {
      "fullUrl": "urn:uuid:98c8d67e-ad3d-47c9-a08b-009a231025f4",
      "resource": {
        "resourceType": "Composition",
        "id": "98c8d67e-ad3d-47c9-a08b-009a231025f4",
        "meta": {
          "profile": [
            "http://hl7.eu/fhir/laboratory/StructureDefinition/Composition-eu-lab"
          ]
        },
        "identifier": {
          "assigner": {
            "display": "HL7 Europe"
          },
          "system": "urn:oid:2.16.840.1.113883.2.51.999",
          "value": "b4105889-7608-48a7-a4c7-b9e1b283b020"
        },
        "author": [
          {
            "reference": "urn:uuid:d839c309-cb36-4b22-a014-024ac0fb1aa5"
          }
        ],
        "category": [
          {
            "coding": [
              {
                "code": "26436-6",
                "system": "http://loinc.org",
                "display": "Laboratory studies (set)"
              }
            ]
          }
        ],
        "type": {
          "coding": [
            {
              "code": "11502-2",
              "system": "http://loinc.org",
              "display": "Laboratory report"
            }
          ],
          "text": "Laboratory Report"
        },
        "section": [
          {
            "code": {
              "coding": [
                {
                  "code": "26436-6",
                  "system": "http://loinc.org",
                  "display": "Laboratory studies (set)"
                }
              ],
              "text": "Laboratory studies"
            },
            "section": [
              {
                "code": {
                  "coding": [
                    {
                      "code": "$18719-5",
                      "system": "http://loinc.org",
                      "display": "Chemistry studies (set)"
                    }
                  ],
                  "text": "Chemistry"
                },
                "entry": [
                  {
                    "reference": "urn:uuid:5bf2b4eb-a4b8-4c61-9794-a37dc349d87a"
                  },
                  {
                    "reference": "urn:uuid:d5108b1a-e6ec-4c6c-8356-3f1806197bc9"
                  },
                  {
                    "reference": "urn:uuid:56de4800-4521-49a5-99da-ad8df086e4c3"
                  },
                  {
                    "reference": "urn:uuid:e8bc164f-fd7e-4516-9143-3bea7ce7b17f"
                  },
                  {
                    "reference": "urn:uuid:4ccd6a46-f1e1-4cd3-ae03-ddf3a2a72525"
                  },
                  {
                    "reference": "urn:uuid:ad01b637-ccb9-48a2-bd5c-7c3d64f381b3"
                  },
                  {
                    "reference": "urn:uuid:11e7afaf-b1d8-481c-aedd-2ac600940fc5"
                  },
                  {
                    "reference": "urn:uuid:3dcca6e9-7ff7-4b39-bfa1-2f0a5edff007"
                  },
                  {
                    "reference": "urn:uuid:d2a8c03e-69e9-4273-8235-f237487b6d81"
                  },
                  {
                    "reference": "urn:uuid:f14ca16d-ef28-4c55-9499-b9153a5cb2d0"
                  }
                ],
                "text": {
                  "status": "generated",
                  "div": "<div xmlns=\"http://www.w3.org/1999/xhtml\"><h3>Chemistry</h3><table class=\"hl7__eu__lab__report\"><thead><tr><th>Test</th><th>10-JAN-2018</th><th>Reference&#xA0;Range</th><th>Unit</th></tr></thead><tbody><tr><td>Glucose [Mass/volume] in Serum or Plasma</td><td>78.9</td><td>70 - 140</td><td>mg/dL</td></tr><tr><td>Urea nitrogen [Mass/volume] in Serum or Plasma</td><td>9.5</td><td>7 - 20</td><td>mg/dL</td></tr><tr><td>Creatinine [Mass/volume] in Serum or Plasma</td><td><strong>2.4 H</strong></td><td>0.6 - 1.3</td><td>mg/dL</td></tr><tr><td>Calcium [Mass/volume] in Serum or Plasma</td><td>8.9</td><td>8.6 - 10.4</td><td>mg/dL</td></tr><tr><td>Sodium [Moles/volume] in Serum or Plasma</td><td>138.2</td><td>135 - 145</td><td>mmol/L</td></tr><tr><td>Potassium [Moles/volume] in Serum or Plasma</td><td>4.7</td><td>3.5 - 5.1</td><td>mmol/L</td></tr><tr><td>Chloride [Moles/volume] in Serum or Plasma</td><td>101.3</td><td>98 - 108</td><td>mmol/L</td></tr><tr><td>Carbon dioxide, total [Moles/volume] in Serum or Plasma</td><td>22.7</td><td>22 - 32</td><td>mmol/L</td></tr><tr><td>Ketones [Presence] in Urine by Test strip</td><td>Urine ketone test = +++</td><td></td><td></td></tr><tr><td>Hemoglobin A1c/Hemoglobin.total in Blood</td><td><strong>3.2 L</strong></td><td>4.5 - 6.4</td><td>%</td></tr></tbody></table></div>"
                },
                "title": "Chemistry"
              },
              {
                "code": {
                  "coding": [
                    {
                      "code": "$18729-4",
                      "system": "http://loinc.org",
                      "display": "Urinalysis studies (set)"
                    }
                  ],
                  "text": "Urinalysis"
                },
                "entry": [
                  {
                    "reference": "urn:uuid:f2248a1d-b9fa-4373-9c22-4d353c66cbc4"
                  },
                  {
                    "reference": "urn:uuid:0fe19ba6-54d3-4542-9533-358da6da7e7a"
                  },
                  {
                    "reference": "urn:uuid:c7431cc1-6134-4c3a-ad7f-1d1aeb4d659d"
                  },
                  {
                    "reference": "urn:uuid:803dd94b-46dd-4104-ab12-861fa0cf14cf"
                  },
                  {
                    "reference": "urn:uuid:56d7b90e-90d8-41f4-89b7-144becbb5988"
                  },
                  {
                    "reference": "urn:uuid:bbd2aa14-b813-458d-b288-25d58dc5f413"
                  },
                  {
                    "reference": "urn:uuid:1fd57683-f713-4f54-bb5a-5f320f8846d4"
                  },
                  {
                    "reference": "urn:uuid:c03c60dc-b7b1-4978-94d9-8504db11e7e6"
                  },
                  {
                    "reference": "urn:uuid:677ca16e-24bb-4ecf-8e58-f0412cfe0901"
                  },
                  {
                    "reference": "urn:uuid:e669bd4e-dc6f-48ca-aaeb-b87089c31fe7"
                  },
                  {
                    "reference": "urn:uuid:aa0fba2f-db29-4e3c-b1f8-fcb3ce2b5ee4"
                  },
                  {
                    "reference": "urn:uuid:41afbf4a-1696-4095-82bf-eeed57c9dbc2"
                  }
                ],
                "text": {
                  "status": "generated",
                  "div": "<div xmlns=\"http://www.w3.org/1999/xhtml\"><h3>Urinalysis</h3><table class=\"hl7__eu__lab__report\"><thead><tr><th>Test</th><th>10-JAN-2018</th><th>Reference&#xA0;Range</th><th>Unit</th></tr></thead><tbody><tr><td>Glucose [Mass/volume] in Urine by Test strip</td><td><strong>1.2 H</strong></td><td>0.8 - 0</td><td>mg/dL</td></tr><tr><td>Glucose [Presence] in Urine by Test strip</td><td>++</td><td></td><td></td></tr><tr><td>Bilirubin.total [Mass/volume] in Urine by Test strip</td><td>1.4</td><td>0 - 1.5</td><td>mg/dL</td></tr><tr><td>Bilirubin.total [Presence] in Urine by Test strip</td><td>Finding of bilirubin in urine</td><td></td><td></td></tr><tr><td>Ketones [Mass/volume] in Urine by Test strip</td><td>0.9</td><td>0 - 8</td><td>mg/dL</td></tr><tr><td>Specific gravity of Urine by Test strip</td><td><strong>1.0 L</strong></td><td>1.01 - 1.03</td><td>{nominal}</td></tr><tr><td>pH of Urine by Test strip</td><td>5.8</td><td>4.6 - 7.5</td><td>pH</td></tr><tr><td>Protein [Mass/volume] in Urine by Test strip</td><td><strong>332.9 H</strong></td><td>0 - 14</td><td>mg/dL</td></tr><tr><td>Protein [Presence] in Urine by Test strip</td><td>Urine protein test = +++</td><td></td><td></td></tr><tr><td>Nitrite [Presence] in Urine by Test strip</td><td>Urine nitrite negative</td><td></td><td></td></tr><tr><td>Hemoglobin [Presence] in Urine by Test strip</td><td>Urine blood test = negative</td><td></td><td></td></tr><tr><td>Leukocyte esterase [Presence] in Urine by Test strip</td><td>Urine leukocyte test negative</td><td></td><td></td></tr></tbody></table></div>"
                },
                "title": "Urinalysis"
              },
              {
                "code": {
                  "coding": [
                    {
                      "code": "$LP7846-1",
                      "system": "http://loinc.org",
                      "display": "Specimen information"
                    }
                  ],
                  "text": "Specimen information"
                },
                "entry": [
                  {
                    "reference": "urn:uuid:db11480a-b819-4078-b4f5-13a3d9c128c0"
                  },
                  {
                    "reference": "urn:uuid:21546b4a-08bc-4e03-9954-789bea0c87bb"
                  },
                  {
                    "reference": "urn:uuid:5521343a-341e-4eb5-badf-2d9ef7d5a274"
                  },
                  {
                    "reference": "urn:uuid:df6b313f-d143-44d7-875f-75e28e8c866b"
                  }
                ],
                "text": {
                  "status": "generated",
                  "div": "<div xmlns=\"http://www.w3.org/1999/xhtml\"><h3>Specimen information</h3><table class=\"hl7__eu__lab__report\"><thead><tr><th>Test</th><th>10-JAN-2018</th><th>Specimen</th><th></th></tr></thead><tbody><tr><td>Appearance of Urine</td><td>Cloudy urine</td><td>Urine</td><td></td></tr><tr><td>Odor of Urine</td><td>Urine smell ammoniacal</td><td>Urine</td><td></td></tr><tr><td>Clarity of Urine</td><td>Translucent</td><td>Urine</td><td></td></tr><tr><td>Color of Urine</td><td>Brown color</td><td>Urine</td><td></td></tr></tbody></table></div>"
                },
                "title": "Specimen information"
              }
            ],
            "title": "Laboratory Report"
          },
          {
            "text": {
              "status": "generated",
              "div": "<div xmlns=\"http://www.w3.org/1999/xhtml\"><h3>Annotation</h3><table class=\"hl7__eu__lab__report\"><tr><th>Conclusion and Recommendations based on this report and previous findings known to us</th></tr><tr><td>The patient shows elevated serum creatinine, indicating impaired renal function. Urinalysis reveals significant proteinuria, glucosuria, ketonuria, low specific gravity, and abnormal urine appearance, suggesting possible nephrotic syndrome or diabetic nephropathy, though HbA1c is low. No evidence of urinary tract infection. Further nephrological evaluation is recommended.</td></tr></table></div>"
            },
            "code": {
              "coding": [
                {
                  "system": "http://loinc.org",
                  "code": "48767-8",
                  "display": "Annotation comment"
                }
              ]
            },
            "title": "Annotation comment"
          }
        ],
        "status": "final",
        "subject": {
          "reference": "urn:uuid:dde1886b-abd1-4dd6-ab1b-d9462687fb5c",
          "display": "Maria Nohlmans"
        },
        "date": "2018-01-10T12:02:39Z",
        "title": "Laboratory Report",
        "confidentiality": "N"
      }
    },
    {
      "fullUrl": "urn:uuid:d471ac23-5de3-4d25-9211-4325266bf2b8",
      "resource": {
        "resourceType": "DiagnosticReport",
        "id": "d471ac23-5de3-4d25-9211-4325266bf2b8",
        "meta": {
          "profile": [
            "http://hl7.eu/fhir/laboratory/StructureDefinition/DiagnosticReport-eu-lab"
          ]
        },
        "identifier": [
          {
            "assigner": {
              "display": "HL7 Europe"
            },
            "system": "urn:oid:2.16.840.1.113883.2.51.999",
            "value": "391de9d3-c6bb-4ac7-950b-1169af4c4ede"
          }
        ],
        "extension": [
          {
            "url": "http://hl7.org/fhir/5.0/StructureDefinition/extension-DiagnosticReport.composition",
            "valueReference": {
              "reference": "urn:uuid:b4105889-7608-48a7-a4c7-b9e1b283b020"
            }
          }
        ],
        "category": [
          {
            "coding": [
              {
                "code": "26436-6",
                "system": "http://loinc.org",
                "display": "Laboratory studies (set)"
              }
            ]
          }
        ],
        "specimen": [
          {
            "reference": "urn:uuid:66608e9f-cd71-4e50-9809-9bd1ba41d942"
          },
          {
            "reference": "urn:uuid:8e74fae7-6dfa-4ff6-96b2-c84cca2e52f3"
          },
          {
            "reference": "urn:uuid:3a99d166-0fd5-44b0-ac4c-8224363fd640"
          }
        ],
        "result": [
          {
            "reference": "urn:uuid:5bf2b4eb-a4b8-4c61-9794-a37dc349d87a"
          },
          {
            "reference": "urn:uuid:d5108b1a-e6ec-4c6c-8356-3f1806197bc9"
          },
          {
            "reference": "urn:uuid:56de4800-4521-49a5-99da-ad8df086e4c3"
          },
          {
            "reference": "urn:uuid:e8bc164f-fd7e-4516-9143-3bea7ce7b17f"
          },
          {
            "reference": "urn:uuid:4ccd6a46-f1e1-4cd3-ae03-ddf3a2a72525"
          },
          {
            "reference": "urn:uuid:ad01b637-ccb9-48a2-bd5c-7c3d64f381b3"
          },
          {
            "reference": "urn:uuid:11e7afaf-b1d8-481c-aedd-2ac600940fc5"
          },
          {
            "reference": "urn:uuid:3dcca6e9-7ff7-4b39-bfa1-2f0a5edff007"
          },
          {
            "reference": "urn:uuid:db11480a-b819-4078-b4f5-13a3d9c128c0"
          },
          {
            "reference": "urn:uuid:21546b4a-08bc-4e03-9954-789bea0c87bb"
          },
          {
            "reference": "urn:uuid:5521343a-341e-4eb5-badf-2d9ef7d5a274"
          },
          {
            "reference": "urn:uuid:df6b313f-d143-44d7-875f-75e28e8c866b"
          },
          {
            "reference": "urn:uuid:f2248a1d-b9fa-4373-9c22-4d353c66cbc4"
          },
          {
            "reference": "urn:uuid:0fe19ba6-54d3-4542-9533-358da6da7e7a"
          },
          {
            "reference": "urn:uuid:c7431cc1-6134-4c3a-ad7f-1d1aeb4d659d"
          },
          {
            "reference": "urn:uuid:803dd94b-46dd-4104-ab12-861fa0cf14cf"
          },
          {
            "reference": "urn:uuid:56d7b90e-90d8-41f4-89b7-144becbb5988"
          },
          {
            "reference": "urn:uuid:d2a8c03e-69e9-4273-8235-f237487b6d81"
          },
          {
            "reference": "urn:uuid:bbd2aa14-b813-458d-b288-25d58dc5f413"
          },
          {
            "reference": "urn:uuid:1fd57683-f713-4f54-bb5a-5f320f8846d4"
          },
          {
            "reference": "urn:uuid:c03c60dc-b7b1-4978-94d9-8504db11e7e6"
          },
          {
            "reference": "urn:uuid:677ca16e-24bb-4ecf-8e58-f0412cfe0901"
          },
          {
            "reference": "urn:uuid:e669bd4e-dc6f-48ca-aaeb-b87089c31fe7"
          },
          {
            "reference": "urn:uuid:aa0fba2f-db29-4e3c-b1f8-fcb3ce2b5ee4"
          },
          {
            "reference": "urn:uuid:41afbf4a-1696-4095-82bf-eeed57c9dbc2"
          },
          {
            "reference": "urn:uuid:f14ca16d-ef28-4c55-9499-b9153a5cb2d0"
          }
        ],
        "status": "registered",
        "code": {
          "coding": [
            {
              "code": "11502-2",
              "system": "http://loinc.org",
              "display": "Laboratory report"
            }
          ]
        },
        "subject": {
          "reference": "urn:uuid:dde1886b-abd1-4dd6-ab1b-d9462687fb5c",
          "display": "Maria Nohlmans"
        }
      }
    },
    {
      "fullUrl": "urn:uuid:dde1886b-abd1-4dd6-ab1b-d9462687fb5c",
      "resource": {
        "resourceType": "Patient",
        "id": "dde1886b-abd1-4dd6-ab1b-d9462687fb5c",
        "meta": {
          "security": [
            {
              "system": "http://terminology.hl7.org/CodeSystem/v3-ActReason",
              "code": "HTEST"
            },
            {
              "system": "http://terminology.hl7.org/CodeSystem/v3-ActReason",
              "code": "TRAIN"
            }
          ],
          "tag": [
            {
              "system": "https://synderai.net/fhir/CodeSystem/tags",
              "code": "synthetic",
              "display": "SYNDERAI Synthetic data"
            }
          ],
          "profile": [
            "http://hl7.eu/fhir/base/StructureDefinition/patient-eu-core"
          ]
        },
        "identifier": [
          {
            "type": {
              "coding": [
                {
                  "code": "PT",
                  "system": "http://terminology.hl7.org/CodeSystem/v2-0203"
                }
              ]
            },
            "system": "http://ec.europa.eu/identifier/eci",
            "value": "6886-506417-1"
          },
          {
            "type": {
              "coding": [
                {
                  "code": "MR",
                  "system": "http://terminology.hl7.org/CodeSystem/v2-0203"
                }
              ]
            },
            "system": "http://local.setting.eu/identifier",
            "value": "2cb21ed6-b617-b1f3-2290-589a710de5ee"
          }
        ],
        "name": [
          {
            "family": "Nohlmans"
          },
          {
            "given": [
              "Maria"
            ]
          },
          {
            "text": "Maria Nohlmans"
          }
        ],
        "address": [
          {
            "line": [
              "Alfons-Wulff-Weg 1"
            ],
            "use": "home",
            "type": "physical",
            "postalCode": "25813",
            "city": "Husum",
            "country": "Germany"
          }
        ],
        "telecom": [
          {
            "system": "phone",
            "value": "+49(0)1911 105501"
          }
        ],
        "extension": [
          {
            "url": "http://hl7.org/fhir/StructureDefinition/patient-nationality",
            "valueCodeableConcept": {
              "coding": [
                {
                  "code": "DE",
                  "system": "http://hl7.org/fhir/ValueSet/country"
                }
              ]
            }
          }
        ],
        "text": {
          "status": "generated",
          "div": "<div xmlns=\"http://www.w3.org/1999/xhtml\"><table class=\"hl7__ips\"><tr><td>Maria Nohlmans</td><td>female</td><td>11-Jun-1947</td></tr></table></div>"
        },
        "gender": "female",
        "birthDate": "1947-06-11"
      }
    },
    {
      "fullUrl": "urn:uuid:61bf9f12-a8d7-438f-97a9-a7836f0abc60",
      "resource": {
        "resourceType": "ServiceRequest",
        "id": "61bf9f12-a8d7-438f-97a9-a7836f0abc60",
        "meta": {
          "profile": [
            "http://hl7.eu/fhir/laboratory/StructureDefinition/ServiceRequest-eu-lab"
          ]
        },
        "identifier": [
          {
            "system": "http://example.org",
            "value": "8ae038c4-4e6d-47ed-ada6-cf4352def497"
          }
        ],
        "specimen": [
          {
            "reference": "urn:uuid:66608e9f-cd71-4e50-9809-9bd1ba41d942"
          },
          {
            "reference": "urn:uuid:8e74fae7-6dfa-4ff6-96b2-c84cca2e52f3"
          },
          {
            "reference": "urn:uuid:3a99d166-0fd5-44b0-ac4c-8224363fd640"
          }
        ],
        "reasonCode": [
          {
            "coding": [
              {
                "code": "401314000",
                "system": "http://snomed.info/sct",
                "display": "Acute non-ST segment elevation myocardial infarction"
              }
            ]
          },
          {
            "coding": [
              {
                "code": "157141000119108",
                "system": "http://snomed.info/sct",
                "display": "Proteinuria due to type 2 diabetes mellitus"
              }
            ]
          },
          {
            "coding": [
              {
                "code": "237602007",
                "system": "http://snomed.info/sct",
                "display": "Metabolic syndrome X"
              }
            ]
          },
          {
            "coding": [
              {
                "code": "90781000119102",
                "system": "http://snomed.info/sct",
                "display": "Microalbuminuria due to type 2 diabetes mellitus"
              }
            ]
          },
          {
            "coding": [
              {
                "code": "127013003",
                "system": "http://snomed.info/sct",
                "display": "Disorder of kidney due to diabetes mellitus"
              }
            ]
          },
          {
            "coding": [
              {
                "code": "59621000",
                "system": "http://snomed.info/sct",
                "display": "Essential hypertension"
              }
            ]
          },
          {
            "coding": [
              {
                "code": "271737000",
                "system": "http://snomed.info/sct",
                "display": "Anemia"
              }
            ]
          },
          {
            "coding": [
              {
                "code": "15777000",
                "system": "http://snomed.info/sct",
                "display": "Prediabetes"
              }
            ]
          }
        ],
        "status": "active",
        "intent": "order",
        "code": {
          "coding": [
            {
              "code": "108252007",
              "system": "http://snomed.info/sct",
              "display": "Laboratory procedure"
            }
          ]
        },
        "subject": {
          "reference": "urn:uuid:dde1886b-abd1-4dd6-ab1b-d9462687fb5c",
          "display": "Maria Nohlmans"
        },
        "requester": {
          "reference": "urn:uuid:e62d1118-3d5a-40fb-b904-c1c590871334"
        }
      }
    },
    {
      "fullUrl": "urn:uuid:e62d1118-3d5a-40fb-b904-c1c590871334",
      "resource": {
        "resourceType": "PractitionerRole",
        "id": "e62d1118-3d5a-40fb-b904-c1c590871334",
        "meta": {
          "profile": [
            "http://hl7.eu/fhir/base/StructureDefinition/practitionerRole-eu"
          ]
        },
        "text": {
          "status": "generated",
          "div": "<div xmlns=\"http://www.w3.org/1999/xhtml\">Provider Role Id: e62d1118-3d5a-40fb-b904-c1c590871334</div>"
        },
        "organization": {
          "reference": "urn:uuid:2f5b6cac-c996-4d90-b692-46d3b923c8ff"
        }
      }
    },
    {
      "fullUrl": "urn:uuid:2f5b6cac-c996-4d90-b692-46d3b923c8ff",
      "resource": {
        "resourceType": "Organization",
        "id": "2f5b6cac-c996-4d90-b692-46d3b923c8ff",
        "meta": {
          "profile": [
            "http://hl7.eu/fhir/base/StructureDefinition/organization-eu"
          ]
        },
        "identifier": [
          {
            "assigner": {
              "display": "HL7 Europe"
            },
            "system": "urn:oid:2.16.840.1.113883.2.51.999",
            "value": "5ed3654d-62ff-470d-9d7a-0966cf2e5b6a"
          }
        ],
        "address": [
          {
            "line": [
              "Brinckmannstraße 35"
            ],
            "city": "Husum",
            "postalCode": "25813",
            "country": "Germany"
          }
        ],
        "text": {
          "status": "generated",
          "div": "<div xmlns=\"http://www.w3.org/1999/xhtml\">Provider Organization: Dr. Wolfram Hussels Kieferorthopäde</div>"
        },
        "name": "Dr. Wolfram Hussels Kieferorthopäde"
      }
    },
    {
      "fullUrl": "urn:uuid:66608e9f-cd71-4e50-9809-9bd1ba41d942",
      "resource": {
        "resourceType": "Specimen",
        "id": "66608e9f-cd71-4e50-9809-9bd1ba41d942",
        "meta": {
          "profile": [
            "http://hl7.eu/fhir/laboratory/StructureDefinition/Specimen-eu-lab"
          ]
        },
        "collection": {
          "collectedDateTime": "2018-01-10"
        },
        "text": {
          "status": "generated",
          "div": "<div xmlns=\"http://www.w3.org/1999/xhtml\"><table class=\"hl7__eu__lab__report\"><tr><th>Specimen</th><th>Collection Date</th></tr><tr><td>Acellular blood (serum or plasma) specimen</td><td><span class=\"nb\">10-Jan-2018</span></td></tr></table></div>"
        },
        "type": {
          "coding": [
            {
              "code": "122592007",
              "system": "http://snomed.info/sct",
              "display": "Acellular blood (serum or plasma) specimen"
            }
          ]
        }
      }
    },
    {
      "fullUrl": "urn:uuid:8e74fae7-6dfa-4ff6-96b2-c84cca2e52f3",
      "resource": {
        "resourceType": "Specimen",
        "id": "8e74fae7-6dfa-4ff6-96b2-c84cca2e52f3",
        "meta": {
          "profile": [
            "http://hl7.eu/fhir/laboratory/StructureDefinition/Specimen-eu-lab"
          ]
        },
        "collection": {
          "collectedDateTime": "2018-01-10"
        },
        "text": {
          "status": "generated",
          "div": "<div xmlns=\"http://www.w3.org/1999/xhtml\"><table class=\"hl7__eu__lab__report\"><tr><th>Specimen</th><th>Collection Date</th></tr><tr><td>Urine specimen</td><td><span class=\"nb\">10-Jan-2018</span></td></tr></table></div>"
        },
        "type": {
          "coding": [
            {
              "code": "122575003",
              "system": "http://snomed.info/sct",
              "display": "Urine specimen"
            }
          ]
        }
      }
    },
    {
      "fullUrl": "urn:uuid:3a99d166-0fd5-44b0-ac4c-8224363fd640",
      "resource": {
        "resourceType": "Specimen",
        "id": "3a99d166-0fd5-44b0-ac4c-8224363fd640",
        "meta": {
          "profile": [
            "http://hl7.eu/fhir/laboratory/StructureDefinition/Specimen-eu-lab"
          ]
        },
        "collection": {
          "collectedDateTime": "2018-01-10"
        },
        "text": {
          "status": "generated",
          "div": "<div xmlns=\"http://www.w3.org/1999/xhtml\"><table class=\"hl7__eu__lab__report\"><tr><th>Specimen</th><th>Collection Date</th></tr><tr><td>Whole blood specimen (specimen)</td><td><span class=\"nb\">10-Jan-2018</span></td></tr></table></div>"
        },
        "type": {
          "coding": [
            {
              "code": "258580003",
              "system": "http://snomed.info/sct",
              "display": "Whole blood specimen (specimen)"
            }
          ]
        }
      }
    },
    {
      "fullUrl": "urn:uuid:5bf2b4eb-a4b8-4c61-9794-a37dc349d87a",
      "resource": {
        "resourceType": "Observation",
        "id": "5bf2b4eb-a4b8-4c61-9794-a37dc349d87a",
        "meta": {
          "profile": [
            "http://hl7.eu/fhir/laboratory/StructureDefinition/Observation-resultslab-eu-lab"
          ]
        },
        "performer": [
          {
            "display": "The Central European Lab"
          }
        ],
        "category": [
          {
            "coding": [
              {
                "system": "http://terminology.hl7.org/CodeSystem/observation-category",
                "code": "laboratory"
              }
            ]
          }
        ],
        "code": {
          "coding": [
            {
              "code": "2345-7",
              "system": "http://loinc.org",
              "display": "Glucose [Mass/volume] in Serum or Plasma"
            }
          ],
          "text": "Glucose [Mass/volume] in Serum or Plasma"
        },
        "valueQuantity": {
          "system": "http://unitsofmeasure.org",
          "value": 78.9,
          "unit": "mg/dL",
          "code": "mg/dL"
        },
        "referenceRange": [
          {
            "low": {
              "value": 70,
              "code": "mg/dL",
              "system": "http://unitsofmeasure.org"
            }
          },
          {
            "high": {
              "value": 140,
              "code": "mg/dL",
              "system": "http://unitsofmeasure.org"
            }
          }
        ],
        "text": {
          "status": "generated",
          "div": "<div xmlns=\"http://www.w3.org/1999/xhtml\"><table class=\"hl7__eu__lab__report\"><tr><th>Test</th><th>10-Jan-2018</th><th>Reference&#xA0;Range</th><th>Unit</th></tr><tr><td>Glucose [Mass/volume] in Serum or Plasma</td><td>78.9</td><td>70 - 140</td><td></td><td>mg/dL</td></tr></table></div>"
        },
        "status": "final",
        "subject": {
          "reference": "urn:uuid:dde1886b-abd1-4dd6-ab1b-d9462687fb5c",
          "display": "Maria Nohlmans"
        },
        "effectiveDateTime": "2018-01-10T11:02:39Z",
        "specimen": {
          "reference": "urn:uuid:66608e9f-cd71-4e50-9809-9bd1ba41d942"
        }
      }
    },
    {
      "fullUrl": "urn:uuid:d5108b1a-e6ec-4c6c-8356-3f1806197bc9",
      "resource": {
        "resourceType": "Observation",
        "id": "d5108b1a-e6ec-4c6c-8356-3f1806197bc9",
        "meta": {
          "profile": [
            "http://hl7.eu/fhir/laboratory/StructureDefinition/Observation-resultslab-eu-lab"
          ]
        },
        "performer": [
          {
            "display": "The Central European Lab"
          }
        ],
        "category": [
          {
            "coding": [
              {
                "system": "http://terminology.hl7.org/CodeSystem/observation-category",
                "code": "laboratory"
              }
            ]
          }
        ],
        "code": {
          "coding": [
            {
              "code": "3094-0",
              "system": "http://loinc.org",
              "display": "Urea nitrogen [Mass/volume] in Serum or Plasma"
            }
          ],
          "text": "Urea nitrogen [Mass/volume] in Serum or Plasma"
        },
        "valueQuantity": {
          "system": "http://unitsofmeasure.org",
          "value": 9.5,
          "unit": "mg/dL",
          "code": "mg/dL"
        },
        "referenceRange": [
          {
            "low": {
              "value": 7,
              "code": "mg/dL",
              "system": "http://unitsofmeasure.org"
            }
          },
          {
            "high": {
              "value": 20,
              "code": "mg/dL",
              "system": "http://unitsofmeasure.org"
            }
          }
        ],
        "text": {
          "status": "generated",
          "div": "<div xmlns=\"http://www.w3.org/1999/xhtml\"><table class=\"hl7__eu__lab__report\"><tr><th>Test</th><th>10-Jan-2018</th><th>Reference&#xA0;Range</th><th>Unit</th></tr><tr><td>Urea nitrogen [Mass/volume] in Serum or Plasma</td><td>9.5</td><td>7 - 20</td><td></td><td>mg/dL</td></tr></table></div>"
        },
        "status": "final",
        "subject": {
          "reference": "urn:uuid:dde1886b-abd1-4dd6-ab1b-d9462687fb5c",
          "display": "Maria Nohlmans"
        },
        "effectiveDateTime": "2018-01-10T11:02:39Z",
        "specimen": {
          "reference": "urn:uuid:66608e9f-cd71-4e50-9809-9bd1ba41d942"
        }
      }
    },
    {
      "fullUrl": "urn:uuid:56de4800-4521-49a5-99da-ad8df086e4c3",
      "resource": {
        "resourceType": "Observation",
        "id": "56de4800-4521-49a5-99da-ad8df086e4c3",
        "meta": {
          "profile": [
            "http://hl7.eu/fhir/laboratory/StructureDefinition/Observation-resultslab-eu-lab"
          ]
        },
        "performer": [
          {
            "display": "The Central European Lab"
          }
        ],
        "category": [
          {
            "coding": [
              {
                "system": "http://terminology.hl7.org/CodeSystem/observation-category",
                "code": "laboratory"
              }
            ]
          }
        ],
        "code": {
          "coding": [
            {
              "code": "2160-0",
              "system": "http://loinc.org",
              "display": "Creatinine [Mass/volume] in Serum or Plasma"
            }
          ],
          "text": "Creatinine [Mass/volume] in Serum or Plasma"
        },
        "valueQuantity": {
          "system": "http://unitsofmeasure.org",
          "value": 2.4,
          "unit": "mg/dL",
          "code": "mg/dL"
        },
        "referenceRange": [
          {
            "low": {
              "value": 0.6,
              "code": "mg/dL",
              "system": "http://unitsofmeasure.org"
            }
          },
          {
            "high": {
              "value": 1.3,
              "code": "mg/dL",
              "system": "http://unitsofmeasure.org"
            }
          }
        ],
        "interpretation": [
          {
            "coding": [
              {
                "code": "H",
                "system": "http://terminology.hl7.org/CodeSystem/v3-ObservationInterpretation",
                "display": "High"
              }
            ]
          }
        ],
        "text": {
          "status": "generated",
          "div": "<div xmlns=\"http://www.w3.org/1999/xhtml\"><table class=\"hl7__eu__lab__report\"><tr><th>Test</th><th>10-Jan-2018</th><th>Reference&#xA0;Range</th><th>Unit</th></tr><tr><td>Creatinine [Mass/volume] in Serum or Plasma</td><td>2.4</td><td>0.6 - 1.3</td><td>H</td><td>mg/dL</td></tr></table></div>"
        },
        "status": "final",
        "subject": {
          "reference": "urn:uuid:dde1886b-abd1-4dd6-ab1b-d9462687fb5c",
          "display": "Maria Nohlmans"
        },
        "effectiveDateTime": "2018-01-10T11:02:39Z",
        "specimen": {
          "reference": "urn:uuid:66608e9f-cd71-4e50-9809-9bd1ba41d942"
        }
      }
    },
    {
      "fullUrl": "urn:uuid:e8bc164f-fd7e-4516-9143-3bea7ce7b17f",
      "resource": {
        "resourceType": "Observation",
        "id": "e8bc164f-fd7e-4516-9143-3bea7ce7b17f",
        "meta": {
          "profile": [
            "http://hl7.eu/fhir/laboratory/StructureDefinition/Observation-resultslab-eu-lab"
          ]
        },
        "performer": [
          {
            "display": "The Central European Lab"
          }
        ],
        "category": [
          {
            "coding": [
              {
                "system": "http://terminology.hl7.org/CodeSystem/observation-category",
                "code": "laboratory"
              }
            ]
          }
        ],
        "code": {
          "coding": [
            {
              "code": "17861-6",
              "system": "http://loinc.org",
              "display": "Calcium [Mass/volume] in Serum or Plasma"
            }
          ],
          "text": "Calcium [Mass/volume] in Serum or Plasma"
        },
        "valueQuantity": {
          "system": "http://unitsofmeasure.org",
          "value": 8.9,
          "unit": "mg/dL",
          "code": "mg/dL"
        },
        "referenceRange": [
          {
            "low": {
              "value": 8.6,
              "code": "mg/dL",
              "system": "http://unitsofmeasure.org"
            }
          },
          {
            "high": {
              "value": 10.4,
              "code": "mg/dL",
              "system": "http://unitsofmeasure.org"
            }
          }
        ],
        "text": {
          "status": "generated",
          "div": "<div xmlns=\"http://www.w3.org/1999/xhtml\"><table class=\"hl7__eu__lab__report\"><tr><th>Test</th><th>10-Jan-2018</th><th>Reference&#xA0;Range</th><th>Unit</th></tr><tr><td>Calcium [Mass/volume] in Serum or Plasma</td><td>8.9</td><td>8.6 - 10.4</td><td></td><td>mg/dL</td></tr></table></div>"
        },
        "status": "final",
        "subject": {
          "reference": "urn:uuid:dde1886b-abd1-4dd6-ab1b-d9462687fb5c",
          "display": "Maria Nohlmans"
        },
        "effectiveDateTime": "2018-01-10T11:02:39Z",
        "specimen": {
          "reference": "urn:uuid:66608e9f-cd71-4e50-9809-9bd1ba41d942"
        }
      }
    },
    {
      "fullUrl": "urn:uuid:4ccd6a46-f1e1-4cd3-ae03-ddf3a2a72525",
      "resource": {
        "resourceType": "Observation",
        "id": "4ccd6a46-f1e1-4cd3-ae03-ddf3a2a72525",
        "meta": {
          "profile": [
            "http://hl7.eu/fhir/laboratory/StructureDefinition/Observation-resultslab-eu-lab"
          ]
        },
        "performer": [
          {
            "display": "The Central European Lab"
          }
        ],
        "category": [
          {
            "coding": [
              {
                "system": "http://terminology.hl7.org/CodeSystem/observation-category",
                "code": "laboratory"
              }
            ]
          }
        ],
        "code": {
          "coding": [
            {
              "code": "2951-2",
              "system": "http://loinc.org",
              "display": "Sodium [Moles/volume] in Serum or Plasma"
            }
          ],
          "text": "Sodium [Moles/volume] in Serum or Plasma"
        },
        "valueQuantity": {
          "system": "http://unitsofmeasure.org",
          "value": 138.2,
          "unit": "mmol/L",
          "code": "mmol/L"
        },
        "referenceRange": [
          {
            "low": {
              "value": 135,
              "code": "mmol/L",
              "system": "http://unitsofmeasure.org"
            }
          },
          {
            "high": {
              "value": 145,
              "code": "mmol/L",
              "system": "http://unitsofmeasure.org"
            }
          }
        ],
        "text": {
          "status": "generated",
          "div": "<div xmlns=\"http://www.w3.org/1999/xhtml\"><table class=\"hl7__eu__lab__report\"><tr><th>Test</th><th>10-Jan-2018</th><th>Reference&#xA0;Range</th><th>Unit</th></tr><tr><td>Sodium [Moles/volume] in Serum or Plasma</td><td>138.2</td><td>135 - 145</td><td></td><td>mmol/L</td></tr></table></div>"
        },
        "status": "final",
        "subject": {
          "reference": "urn:uuid:dde1886b-abd1-4dd6-ab1b-d9462687fb5c",
          "display": "Maria Nohlmans"
        },
        "effectiveDateTime": "2018-01-10T11:02:39Z",
        "specimen": {
          "reference": "urn:uuid:66608e9f-cd71-4e50-9809-9bd1ba41d942"
        }
      }
    },
    {
      "fullUrl": "urn:uuid:ad01b637-ccb9-48a2-bd5c-7c3d64f381b3",
      "resource": {
        "resourceType": "Observation",
        "id": "ad01b637-ccb9-48a2-bd5c-7c3d64f381b3",
        "meta": {
          "profile": [
            "http://hl7.eu/fhir/laboratory/StructureDefinition/Observation-resultslab-eu-lab"
          ]
        },
        "performer": [
          {
            "display": "The Central European Lab"
          }
        ],
        "category": [
          {
            "coding": [
              {
                "system": "http://terminology.hl7.org/CodeSystem/observation-category",
                "code": "laboratory"
              }
            ]
          }
        ],
        "code": {
          "coding": [
            {
              "code": "2823-3",
              "system": "http://loinc.org",
              "display": "Potassium [Moles/volume] in Serum or Plasma"
            }
          ],
          "text": "Potassium [Moles/volume] in Serum or Plasma"
        },
        "valueQuantity": {
          "system": "http://unitsofmeasure.org",
          "value": 4.7,
          "unit": "mmol/L",
          "code": "mmol/L"
        },
        "referenceRange": [
          {
            "low": {
              "value": 3.5,
              "code": "mmol/L",
              "system": "http://unitsofmeasure.org"
            }
          },
          {
            "high": {
              "value": 5.1,
              "code": "mmol/L",
              "system": "http://unitsofmeasure.org"
            }
          }
        ],
        "text": {
          "status": "generated",
          "div": "<div xmlns=\"http://www.w3.org/1999/xhtml\"><table class=\"hl7__eu__lab__report\"><tr><th>Test</th><th>10-Jan-2018</th><th>Reference&#xA0;Range</th><th>Unit</th></tr><tr><td>Potassium [Moles/volume] in Serum or Plasma</td><td>4.7</td><td>3.5 - 5.1</td><td></td><td>mmol/L</td></tr></table></div>"
        },
        "status": "final",
        "subject": {
          "reference": "urn:uuid:dde1886b-abd1-4dd6-ab1b-d9462687fb5c",
          "display": "Maria Nohlmans"
        },
        "effectiveDateTime": "2018-01-10T11:02:39Z",
        "specimen": {
          "reference": "urn:uuid:66608e9f-cd71-4e50-9809-9bd1ba41d942"
        }
      }
    },
    {
      "fullUrl": "urn:uuid:11e7afaf-b1d8-481c-aedd-2ac600940fc5",
      "resource": {
        "resourceType": "Observation",
        "id": "11e7afaf-b1d8-481c-aedd-2ac600940fc5",
        "meta": {
          "profile": [
            "http://hl7.eu/fhir/laboratory/StructureDefinition/Observation-resultslab-eu-lab"
          ]
        },
        "performer": [
          {
            "display": "The Central European Lab"
          }
        ],
        "category": [
          {
            "coding": [
              {
                "system": "http://terminology.hl7.org/CodeSystem/observation-category",
                "code": "laboratory"
              }
            ]
          }
        ],
        "code": {
          "coding": [
            {
              "code": "2075-0",
              "system": "http://loinc.org",
              "display": "Chloride [Moles/volume] in Serum or Plasma"
            }
          ],
          "text": "Chloride [Moles/volume] in Serum or Plasma"
        },
        "valueQuantity": {
          "system": "http://unitsofmeasure.org",
          "value": 101.3,
          "unit": "mmol/L",
          "code": "mmol/L"
        },
        "referenceRange": [
          {
            "low": {
              "value": 98,
              "code": "mmol/L",
              "system": "http://unitsofmeasure.org"
            }
          },
          {
            "high": {
              "value": 108,
              "code": "mmol/L",
              "system": "http://unitsofmeasure.org"
            }
          }
        ],
        "text": {
          "status": "generated",
          "div": "<div xmlns=\"http://www.w3.org/1999/xhtml\"><table class=\"hl7__eu__lab__report\"><tr><th>Test</th><th>10-Jan-2018</th><th>Reference&#xA0;Range</th><th>Unit</th></tr><tr><td>Chloride [Moles/volume] in Serum or Plasma</td><td>101.3</td><td>98 - 108</td><td></td><td>mmol/L</td></tr></table></div>"
        },
        "status": "final",
        "subject": {
          "reference": "urn:uuid:dde1886b-abd1-4dd6-ab1b-d9462687fb5c",
          "display": "Maria Nohlmans"
        },
        "effectiveDateTime": "2018-01-10T11:02:39Z",
        "specimen": {
          "reference": "urn:uuid:66608e9f-cd71-4e50-9809-9bd1ba41d942"
        }
      }
    },
    {
      "fullUrl": "urn:uuid:3dcca6e9-7ff7-4b39-bfa1-2f0a5edff007",
      "resource": {
        "resourceType": "Observation",
        "id": "3dcca6e9-7ff7-4b39-bfa1-2f0a5edff007",
        "meta": {
          "profile": [
            "http://hl7.eu/fhir/laboratory/StructureDefinition/Observation-resultslab-eu-lab"
          ]
        },
        "performer": [
          {
            "display": "The Central European Lab"
          }
        ],
        "category": [
          {
            "coding": [
              {
                "system": "http://terminology.hl7.org/CodeSystem/observation-category",
                "code": "laboratory"
              }
            ]
          }
        ],
        "code": {
          "coding": [
            {
              "code": "2028-9",
              "system": "http://loinc.org",
              "display": "Carbon dioxide, total [Moles/volume] in Serum or Plasma"
            }
          ],
          "text": "Carbon dioxide, total [Moles/volume] in Serum or Plasma"
        },
        "valueQuantity": {
          "system": "http://unitsofmeasure.org",
          "value": 22.7,
          "unit": "mmol/L",
          "code": "mmol/L"
        },
        "referenceRange": [
          {
            "low": {
              "value": 22,
              "code": "mmol/L",
              "system": "http://unitsofmeasure.org"
            }
          },
          {
            "high": {
              "value": 32,
              "code": "mmol/L",
              "system": "http://unitsofmeasure.org"
            }
          }
        ],
        "text": {
          "status": "generated",
          "div": "<div xmlns=\"http://www.w3.org/1999/xhtml\"><table class=\"hl7__eu__lab__report\"><tr><th>Test</th><th>10-Jan-2018</th><th>Reference&#xA0;Range</th><th>Unit</th></tr><tr><td>Carbon dioxide, total [Moles/volume] in Serum or Plasma</td><td>22.7</td><td>22 - 32</td><td></td><td>mmol/L</td></tr></table></div>"
        },
        "status": "final",
        "subject": {
          "reference": "urn:uuid:dde1886b-abd1-4dd6-ab1b-d9462687fb5c",
          "display": "Maria Nohlmans"
        },
        "effectiveDateTime": "2018-01-10T11:02:39Z",
        "specimen": {
          "reference": "urn:uuid:66608e9f-cd71-4e50-9809-9bd1ba41d942"
        }
      }
    },
    {
      "fullUrl": "urn:uuid:db11480a-b819-4078-b4f5-13a3d9c128c0",
      "resource": {
        "resourceType": "Observation",
        "id": "db11480a-b819-4078-b4f5-13a3d9c128c0",
        "meta": {
          "profile": [
            "http://hl7.eu/fhir/laboratory/StructureDefinition/Observation-resultslab-eu-lab"
          ]
        },
        "performer": [
          {
            "display": "The Central European Lab"
          }
        ],
        "category": [
          {
            "coding": [
              {
                "system": "http://terminology.hl7.org/CodeSystem/observation-category",
                "code": "laboratory"
              }
            ]
          }
        ],
        "code": {
          "coding": [
            {
              "code": "5767-9",
              "system": "http://loinc.org",
              "display": "Appearance of Urine"
            }
          ],
          "text": "Appearance of Urine"
        },
        "text": {
          "status": "generated",
          "div": "<div xmlns=\"http://www.w3.org/1999/xhtml\"><table class=\"hl7__eu__lab__report\"><tr><th>Test</th><th>10-Jan-2018</th><th>Reference&#xA0;Range</th><th>Unit</th></tr><tr><td>Appearance of Urine</td></tr></table></div>"
        },
        "status": "final",
        "subject": {
          "reference": "urn:uuid:dde1886b-abd1-4dd6-ab1b-d9462687fb5c",
          "display": "Maria Nohlmans"
        },
        "effectiveDateTime": "2018-01-10T11:02:39Z",
        "specimen": {
          "reference": "urn:uuid:8e74fae7-6dfa-4ff6-96b2-c84cca2e52f3"
        }
      }
    },
    {
      "fullUrl": "urn:uuid:21546b4a-08bc-4e03-9954-789bea0c87bb",
      "resource": {
        "resourceType": "Observation",
        "id": "21546b4a-08bc-4e03-9954-789bea0c87bb",
        "meta": {
          "profile": [
            "http://hl7.eu/fhir/laboratory/StructureDefinition/Observation-resultslab-eu-lab"
          ]
        },
        "performer": [
          {
            "display": "The Central European Lab"
          }
        ],
        "category": [
          {
            "coding": [
              {
                "system": "http://terminology.hl7.org/CodeSystem/observation-category",
                "code": "laboratory"
              }
            ]
          }
        ],
        "code": {
          "coding": [
            {
              "code": "34533-0",
              "system": "http://loinc.org",
              "display": "Odor of Urine"
            }
          ],
          "text": "Odor of Urine"
        },
        "text": {
          "status": "generated",
          "div": "<div xmlns=\"http://www.w3.org/1999/xhtml\"><table class=\"hl7__eu__lab__report\"><tr><th>Test</th><th>10-Jan-2018</th><th>Reference&#xA0;Range</th><th>Unit</th></tr><tr><td>Odor of Urine</td></tr></table></div>"
        },
        "status": "final",
        "subject": {
          "reference": "urn:uuid:dde1886b-abd1-4dd6-ab1b-d9462687fb5c",
          "display": "Maria Nohlmans"
        },
        "effectiveDateTime": "2018-01-10T11:02:39Z",
        "specimen": {
          "reference": "urn:uuid:8e74fae7-6dfa-4ff6-96b2-c84cca2e52f3"
        }
      }
    },
    {
      "fullUrl": "urn:uuid:5521343a-341e-4eb5-badf-2d9ef7d5a274",
      "resource": {
        "resourceType": "Observation",
        "id": "5521343a-341e-4eb5-badf-2d9ef7d5a274",
        "meta": {
          "profile": [
            "http://hl7.eu/fhir/laboratory/StructureDefinition/Observation-resultslab-eu-lab"
          ]
        },
        "performer": [
          {
            "display": "The Central European Lab"
          }
        ],
        "category": [
          {
            "coding": [
              {
                "system": "http://terminology.hl7.org/CodeSystem/observation-category",
                "code": "laboratory"
              }
            ]
          }
        ],
        "code": {
          "coding": [
            {
              "code": "32167-9",
              "system": "http://loinc.org",
              "display": "Clarity of Urine"
            }
          ],
          "text": "Clarity of Urine"
        },
        "text": {
          "status": "generated",
          "div": "<div xmlns=\"http://www.w3.org/1999/xhtml\"><table class=\"hl7__eu__lab__report\"><tr><th>Test</th><th>10-Jan-2018</th><th>Reference&#xA0;Range</th><th>Unit</th></tr><tr><td>Clarity of Urine</td></tr></table></div>"
        },
        "status": "final",
        "subject": {
          "reference": "urn:uuid:dde1886b-abd1-4dd6-ab1b-d9462687fb5c",
          "display": "Maria Nohlmans"
        },
        "effectiveDateTime": "2018-01-10T11:02:39Z",
        "specimen": {
          "reference": "urn:uuid:8e74fae7-6dfa-4ff6-96b2-c84cca2e52f3"
        }
      }
    },
    {
      "fullUrl": "urn:uuid:df6b313f-d143-44d7-875f-75e28e8c866b",
      "resource": {
        "resourceType": "Observation",
        "id": "df6b313f-d143-44d7-875f-75e28e8c866b",
        "meta": {
          "profile": [
            "http://hl7.eu/fhir/laboratory/StructureDefinition/Observation-resultslab-eu-lab"
          ]
        },
        "performer": [
          {
            "display": "The Central European Lab"
          }
        ],
        "category": [
          {
            "coding": [
              {
                "system": "http://terminology.hl7.org/CodeSystem/observation-category",
                "code": "laboratory"
              }
            ]
          }
        ],
        "code": {
          "coding": [
            {
              "code": "5778-6",
              "system": "http://loinc.org",
              "display": "Color of Urine"
            }
          ],
          "text": "Color of Urine"
        },
        "text": {
          "status": "generated",
          "div": "<div xmlns=\"http://www.w3.org/1999/xhtml\"><table class=\"hl7__eu__lab__report\"><tr><th>Test</th><th>10-Jan-2018</th><th>Reference&#xA0;Range</th><th>Unit</th></tr><tr><td>Color of Urine</td></tr></table></div>"
        },
        "status": "final",
        "subject": {
          "reference": "urn:uuid:dde1886b-abd1-4dd6-ab1b-d9462687fb5c",
          "display": "Maria Nohlmans"
        },
        "effectiveDateTime": "2018-01-10T11:02:39Z",
        "specimen": {
          "reference": "urn:uuid:8e74fae7-6dfa-4ff6-96b2-c84cca2e52f3"
        }
      }
    },
    {
      "fullUrl": "urn:uuid:f2248a1d-b9fa-4373-9c22-4d353c66cbc4",
      "resource": {
        "resourceType": "Observation",
        "id": "f2248a1d-b9fa-4373-9c22-4d353c66cbc4",
        "meta": {
          "profile": [
            "http://hl7.eu/fhir/laboratory/StructureDefinition/Observation-resultslab-eu-lab"
          ]
        },
        "performer": [
          {
            "display": "The Central European Lab"
          }
        ],
        "category": [
          {
            "coding": [
              {
                "system": "http://terminology.hl7.org/CodeSystem/observation-category",
                "code": "laboratory"
              }
            ]
          }
        ],
        "code": {
          "coding": [
            {
              "code": "5792-7",
              "system": "http://loinc.org",
              "display": "Glucose [Mass/volume] in Urine by Test strip"
            }
          ],
          "text": "Glucose [Mass/volume] in Urine by Test strip"
        },
        "valueQuantity": {
          "system": "http://unitsofmeasure.org",
          "value": 1.2,
          "unit": "mg/dL",
          "code": "mg/dL"
        },
        "referenceRange": [
          {
            "low": {
              "value": 0.8,
              "code": "mg/dL",
              "system": "http://unitsofmeasure.org"
            }
          },
          {
            "high": {
              "value": 0,
              "code": "mg/dL",
              "system": "http://unitsofmeasure.org"
            }
          }
        ],
        "interpretation": [
          {
            "coding": [
              {
                "code": "H",
                "system": "http://terminology.hl7.org/CodeSystem/v3-ObservationInterpretation",
                "display": "High"
              }
            ]
          }
        ],
        "text": {
          "status": "generated",
          "div": "<div xmlns=\"http://www.w3.org/1999/xhtml\"><table class=\"hl7__eu__lab__report\"><tr><th>Test</th><th>10-Jan-2018</th><th>Reference&#xA0;Range</th><th>Unit</th></tr><tr><td>Glucose [Mass/volume] in Urine by Test strip</td><td>1.2</td><td>0.8 - 0</td><td>H</td><td>mg/dL</td></tr></table></div>"
        },
        "status": "final",
        "subject": {
          "reference": "urn:uuid:dde1886b-abd1-4dd6-ab1b-d9462687fb5c",
          "display": "Maria Nohlmans"
        },
        "effectiveDateTime": "2018-01-10T11:02:39Z",
        "specimen": {
          "reference": "urn:uuid:8e74fae7-6dfa-4ff6-96b2-c84cca2e52f3"
        }
      }
    },
    {
      "fullUrl": "urn:uuid:0fe19ba6-54d3-4542-9533-358da6da7e7a",
      "resource": {
        "resourceType": "Observation",
        "id": "0fe19ba6-54d3-4542-9533-358da6da7e7a",
        "meta": {
          "profile": [
            "http://hl7.eu/fhir/laboratory/StructureDefinition/Observation-resultslab-eu-lab"
          ]
        },
        "performer": [
          {
            "display": "The Central European Lab"
          }
        ],
        "category": [
          {
            "coding": [
              {
                "system": "http://terminology.hl7.org/CodeSystem/observation-category",
                "code": "laboratory"
              }
            ]
          }
        ],
        "code": {
          "coding": [
            {
              "code": "25428-4",
              "system": "http://loinc.org",
              "display": "Glucose [Presence] in Urine by Test strip"
            }
          ],
          "text": "Glucose [Presence] in Urine by Test strip"
        },
        "text": {
          "status": "generated",
          "div": "<div xmlns=\"http://www.w3.org/1999/xhtml\"><table class=\"hl7__eu__lab__report\"><tr><th>Test</th><th>10-Jan-2018</th><th>Reference&#xA0;Range</th><th>Unit</th></tr><tr><td>Glucose [Presence] in Urine by Test strip</td></tr></table></div>"
        },
        "status": "final",
        "subject": {
          "reference": "urn:uuid:dde1886b-abd1-4dd6-ab1b-d9462687fb5c",
          "display": "Maria Nohlmans"
        },
        "effectiveDateTime": "2018-01-10T11:02:39Z",
        "specimen": {
          "reference": "urn:uuid:8e74fae7-6dfa-4ff6-96b2-c84cca2e52f3"
        }
      }
    },
    {
      "fullUrl": "urn:uuid:c7431cc1-6134-4c3a-ad7f-1d1aeb4d659d",
      "resource": {
        "resourceType": "Observation",
        "id": "c7431cc1-6134-4c3a-ad7f-1d1aeb4d659d",
        "meta": {
          "profile": [
            "http://hl7.eu/fhir/laboratory/StructureDefinition/Observation-resultslab-eu-lab"
          ]
        },
        "performer": [
          {
            "display": "The Central European Lab"
          }
        ],
        "category": [
          {
            "coding": [
              {
                "system": "http://terminology.hl7.org/CodeSystem/observation-category",
                "code": "laboratory"
              }
            ]
          }
        ],
        "code": {
          "coding": [
            {
              "code": "20505-4",
              "system": "http://loinc.org",
              "display": "Bilirubin.total [Mass/volume] in Urine by Test strip"
            }
          ],
          "text": "Bilirubin.total [Mass/volume] in Urine by Test strip"
        },
        "valueQuantity": {
          "system": "http://unitsofmeasure.org",
          "value": 1.4,
          "unit": "mg/dL",
          "code": "mg/dL"
        },
        "referenceRange": [
          {
            "low": {
              "value": 0,
              "code": "mg/dL",
              "system": "http://unitsofmeasure.org"
            }
          },
          {
            "high": {
              "value": 1.5,
              "code": "mg/dL",
              "system": "http://unitsofmeasure.org"
            }
          }
        ],
        "text": {
          "status": "generated",
          "div": "<div xmlns=\"http://www.w3.org/1999/xhtml\"><table class=\"hl7__eu__lab__report\"><tr><th>Test</th><th>10-Jan-2018</th><th>Reference&#xA0;Range</th><th>Unit</th></tr><tr><td>Bilirubin.total [Mass/volume] in Urine by Test strip</td><td>1.4</td><td>0 - 1.5</td><td></td><td>mg/dL</td></tr></table></div>"
        },
        "status": "final",
        "subject": {
          "reference": "urn:uuid:dde1886b-abd1-4dd6-ab1b-d9462687fb5c",
          "display": "Maria Nohlmans"
        },
        "effectiveDateTime": "2018-01-10T11:02:39Z",
        "specimen": {
          "reference": "urn:uuid:8e74fae7-6dfa-4ff6-96b2-c84cca2e52f3"
        }
      }
    },
    {
      "fullUrl": "urn:uuid:803dd94b-46dd-4104-ab12-861fa0cf14cf",
      "resource": {
        "resourceType": "Observation",
        "id": "803dd94b-46dd-4104-ab12-861fa0cf14cf",
        "meta": {
          "profile": [
            "http://hl7.eu/fhir/laboratory/StructureDefinition/Observation-resultslab-eu-lab"
          ]
        },
        "performer": [
          {
            "display": "The Central European Lab"
          }
        ],
        "category": [
          {
            "coding": [
              {
                "system": "http://terminology.hl7.org/CodeSystem/observation-category",
                "code": "laboratory"
              }
            ]
          }
        ],
        "code": {
          "coding": [
            {
              "code": "5770-3",
              "system": "http://loinc.org",
              "display": "Bilirubin.total [Presence] in Urine by Test strip"
            }
          ],
          "text": "Bilirubin.total [Presence] in Urine by Test strip"
        },
        "text": {
          "status": "generated",
          "div": "<div xmlns=\"http://www.w3.org/1999/xhtml\"><table class=\"hl7__eu__lab__report\"><tr><th>Test</th><th>10-Jan-2018</th><th>Reference&#xA0;Range</th><th>Unit</th></tr><tr><td>Bilirubin.total [Presence] in Urine by Test strip</td></tr></table></div>"
        },
        "status": "final",
        "subject": {
          "reference": "urn:uuid:dde1886b-abd1-4dd6-ab1b-d9462687fb5c",
          "display": "Maria Nohlmans"
        },
        "effectiveDateTime": "2018-01-10T11:02:39Z",
        "specimen": {
          "reference": "urn:uuid:8e74fae7-6dfa-4ff6-96b2-c84cca2e52f3"
        }
      }
    },
    {
      "fullUrl": "urn:uuid:56d7b90e-90d8-41f4-89b7-144becbb5988",
      "resource": {
        "resourceType": "Observation",
        "id": "56d7b90e-90d8-41f4-89b7-144becbb5988",
        "meta": {
          "profile": [
            "http://hl7.eu/fhir/laboratory/StructureDefinition/Observation-resultslab-eu-lab"
          ]
        },
        "performer": [
          {
            "display": "The Central European Lab"
          }
        ],
        "category": [
          {
            "coding": [
              {
                "system": "http://terminology.hl7.org/CodeSystem/observation-category",
                "code": "laboratory"
              }
            ]
          }
        ],
        "code": {
          "coding": [
            {
              "code": "5797-6",
              "system": "http://loinc.org",
              "display": "Ketones [Mass/volume] in Urine by Test strip"
            }
          ],
          "text": "Ketones [Mass/volume] in Urine by Test strip"
        },
        "valueQuantity": {
          "system": "http://unitsofmeasure.org",
          "value": 0.9,
          "unit": "mg/dL",
          "code": "mg/dL"
        },
        "referenceRange": [
          {
            "low": {
              "value": 0,
              "code": "mg/dL",
              "system": "http://unitsofmeasure.org"
            }
          },
          {
            "high": {
              "value": 8,
              "code": "mg/dL",
              "system": "http://unitsofmeasure.org"
            }
          }
        ],
        "text": {
          "status": "generated",
          "div": "<div xmlns=\"http://www.w3.org/1999/xhtml\"><table class=\"hl7__eu__lab__report\"><tr><th>Test</th><th>10-Jan-2018</th><th>Reference&#xA0;Range</th><th>Unit</th></tr><tr><td>Ketones [Mass/volume] in Urine by Test strip</td><td>0.9</td><td>0 - 8</td><td></td><td>mg/dL</td></tr></table></div>"
        },
        "status": "final",
        "subject": {
          "reference": "urn:uuid:dde1886b-abd1-4dd6-ab1b-d9462687fb5c",
          "display": "Maria Nohlmans"
        },
        "effectiveDateTime": "2018-01-10T11:02:39Z",
        "specimen": {
          "reference": "urn:uuid:8e74fae7-6dfa-4ff6-96b2-c84cca2e52f3"
        }
      }
    },
    {
      "fullUrl": "urn:uuid:d2a8c03e-69e9-4273-8235-f237487b6d81",
      "resource": {
        "resourceType": "Observation",
        "id": "d2a8c03e-69e9-4273-8235-f237487b6d81",
        "meta": {
          "profile": [
            "http://hl7.eu/fhir/laboratory/StructureDefinition/Observation-resultslab-eu-lab"
          ]
        },
        "performer": [
          {
            "display": "The Central European Lab"
          }
        ],
        "category": [
          {
            "coding": [
              {
                "system": "http://terminology.hl7.org/CodeSystem/observation-category",
                "code": "laboratory"
              }
            ]
          }
        ],
        "code": {
          "coding": [
            {
              "code": "2514-8",
              "system": "http://loinc.org",
              "display": "Ketones [Presence] in Urine by Test strip"
            }
          ],
          "text": "Ketones [Presence] in Urine by Test strip"
        },
        "text": {
          "status": "generated",
          "div": "<div xmlns=\"http://www.w3.org/1999/xhtml\"><table class=\"hl7__eu__lab__report\"><tr><th>Test</th><th>10-Jan-2018</th><th>Reference&#xA0;Range</th><th>Unit</th></tr><tr><td>Ketones [Presence] in Urine by Test strip</td></tr></table></div>"
        },
        "status": "final",
        "subject": {
          "reference": "urn:uuid:dde1886b-abd1-4dd6-ab1b-d9462687fb5c",
          "display": "Maria Nohlmans"
        },
        "effectiveDateTime": "2018-01-10T11:02:39Z",
        "specimen": {
          "reference": "urn:uuid:8e74fae7-6dfa-4ff6-96b2-c84cca2e52f3"
        }
      }
    },
    {
      "fullUrl": "urn:uuid:bbd2aa14-b813-458d-b288-25d58dc5f413",
      "resource": {
        "resourceType": "Observation",
        "id": "bbd2aa14-b813-458d-b288-25d58dc5f413",
        "meta": {
          "profile": [
            "http://hl7.eu/fhir/laboratory/StructureDefinition/Observation-resultslab-eu-lab"
          ]
        },
        "performer": [
          {
            "display": "The Central European Lab"
          }
        ],
        "category": [
          {
            "coding": [
              {
                "system": "http://terminology.hl7.org/CodeSystem/observation-category",
                "code": "laboratory"
              }
            ]
          }
        ],
        "code": {
          "coding": [
            {
              "code": "5811-5",
              "system": "http://loinc.org",
              "display": "Specific gravity of Urine by Test strip"
            }
          ],
          "text": "Specific gravity of Urine by Test strip"
        },
        "valueQuantity": {
          "system": "http://unitsofmeasure.org",
          "value": 1,
          "unit": "{nominal}",
          "code": "{nominal}"
        },
        "referenceRange": [
          {
            "low": {
              "value": 1.01,
              "code": "g/mL",
              "system": "http://unitsofmeasure.org"
            }
          },
          {
            "high": {
              "value": 1.03,
              "code": "g/mL",
              "system": "http://unitsofmeasure.org"
            }
          }
        ],
        "interpretation": [
          {
            "coding": [
              {
                "code": "L",
                "system": "http://terminology.hl7.org/CodeSystem/v3-ObservationInterpretation",
                "display": "Low"
              }
            ]
          }
        ],
        "text": {
          "status": "generated",
          "div": "<div xmlns=\"http://www.w3.org/1999/xhtml\"><table class=\"hl7__eu__lab__report\"><tr><th>Test</th><th>10-Jan-2018</th><th>Reference&#xA0;Range</th><th>Unit</th></tr><tr><td>Specific gravity of Urine by Test strip</td><td>1.0</td><td>1.01 - 1.03</td><td>L</td><td>{nominal}</td></tr></table></div>"
        },
        "status": "final",
        "subject": {
          "reference": "urn:uuid:dde1886b-abd1-4dd6-ab1b-d9462687fb5c",
          "display": "Maria Nohlmans"
        },
        "effectiveDateTime": "2018-01-10T11:02:39Z",
        "specimen": {
          "reference": "urn:uuid:8e74fae7-6dfa-4ff6-96b2-c84cca2e52f3"
        }
      }
    },
    {
      "fullUrl": "urn:uuid:1fd57683-f713-4f54-bb5a-5f320f8846d4",
      "resource": {
        "resourceType": "Observation",
        "id": "1fd57683-f713-4f54-bb5a-5f320f8846d4",
        "meta": {
          "profile": [
            "http://hl7.eu/fhir/laboratory/StructureDefinition/Observation-resultslab-eu-lab"
          ]
        },
        "performer": [
          {
            "display": "The Central European Lab"
          }
        ],
        "category": [
          {
            "coding": [
              {
                "system": "http://terminology.hl7.org/CodeSystem/observation-category",
                "code": "laboratory"
              }
            ]
          }
        ],
        "code": {
          "coding": [
            {
              "code": "5803-2",
              "system": "http://loinc.org",
              "display": "pH of Urine by Test strip"
            }
          ],
          "text": "pH of Urine by Test strip"
        },
        "valueQuantity": {
          "system": "http://unitsofmeasure.org",
          "value": 5.8,
          "unit": "pH",
          "code": "pH"
        },
        "referenceRange": [
          {
            "low": {
              "value": 4.6,
              "code": "pH",
              "system": "http://unitsofmeasure.org"
            }
          },
          {
            "high": {
              "value": 7.5,
              "code": "pH",
              "system": "http://unitsofmeasure.org"
            }
          }
        ],
        "text": {
          "status": "generated",
          "div": "<div xmlns=\"http://www.w3.org/1999/xhtml\"><table class=\"hl7__eu__lab__report\"><tr><th>Test</th><th>10-Jan-2018</th><th>Reference&#xA0;Range</th><th>Unit</th></tr><tr><td>pH of Urine by Test strip</td><td>5.8</td><td>4.6 - 7.5</td><td></td><td>pH</td></tr></table></div>"
        },
        "status": "final",
        "subject": {
          "reference": "urn:uuid:dde1886b-abd1-4dd6-ab1b-d9462687fb5c",
          "display": "Maria Nohlmans"
        },
        "effectiveDateTime": "2018-01-10T11:02:39Z",
        "specimen": {
          "reference": "urn:uuid:8e74fae7-6dfa-4ff6-96b2-c84cca2e52f3"
        }
      }
    },
    {
      "fullUrl": "urn:uuid:c03c60dc-b7b1-4978-94d9-8504db11e7e6",
      "resource": {
        "resourceType": "Observation",
        "id": "c03c60dc-b7b1-4978-94d9-8504db11e7e6",
        "meta": {
          "profile": [
            "http://hl7.eu/fhir/laboratory/StructureDefinition/Observation-resultslab-eu-lab"
          ]
        },
        "performer": [
          {
            "display": "The Central European Lab"
          }
        ],
        "category": [
          {
            "coding": [
              {
                "system": "http://terminology.hl7.org/CodeSystem/observation-category",
                "code": "laboratory"
              }
            ]
          }
        ],
        "code": {
          "coding": [
            {
              "code": "5804-0",
              "system": "http://loinc.org",
              "display": "Protein [Mass/volume] in Urine by Test strip"
            }
          ],
          "text": "Protein [Mass/volume] in Urine by Test strip"
        },
        "valueQuantity": {
          "system": "http://unitsofmeasure.org",
          "value": 332.9,
          "unit": "mg/dL",
          "code": "mg/dL"
        },
        "referenceRange": [
          {
            "low": {
              "value": 0,
              "code": "mg/dL",
              "system": "http://unitsofmeasure.org"
            }
          },
          {
            "high": {
              "value": 14,
              "code": "mg/dL",
              "system": "http://unitsofmeasure.org"
            }
          }
        ],
        "interpretation": [
          {
            "coding": [
              {
                "code": "H",
                "system": "http://terminology.hl7.org/CodeSystem/v3-ObservationInterpretation",
                "display": "High"
              }
            ]
          }
        ],
        "text": {
          "status": "generated",
          "div": "<div xmlns=\"http://www.w3.org/1999/xhtml\"><table class=\"hl7__eu__lab__report\"><tr><th>Test</th><th>10-Jan-2018</th><th>Reference&#xA0;Range</th><th>Unit</th></tr><tr><td>Protein [Mass/volume] in Urine by Test strip</td><td>332.9</td><td>0 - 14</td><td>H</td><td>mg/dL</td></tr></table></div>"
        },
        "status": "final",
        "subject": {
          "reference": "urn:uuid:dde1886b-abd1-4dd6-ab1b-d9462687fb5c",
          "display": "Maria Nohlmans"
        },
        "effectiveDateTime": "2018-01-10T11:02:39Z",
        "specimen": {
          "reference": "urn:uuid:8e74fae7-6dfa-4ff6-96b2-c84cca2e52f3"
        }
      }
    },
    {
      "fullUrl": "urn:uuid:677ca16e-24bb-4ecf-8e58-f0412cfe0901",
      "resource": {
        "resourceType": "Observation",
        "id": "677ca16e-24bb-4ecf-8e58-f0412cfe0901",
        "meta": {
          "profile": [
            "http://hl7.eu/fhir/laboratory/StructureDefinition/Observation-resultslab-eu-lab"
          ]
        },
        "performer": [
          {
            "display": "The Central European Lab"
          }
        ],
        "category": [
          {
            "coding": [
              {
                "system": "http://terminology.hl7.org/CodeSystem/observation-category",
                "code": "laboratory"
              }
            ]
          }
        ],
        "code": {
          "coding": [
            {
              "code": "20454-5",
              "system": "http://loinc.org",
              "display": "Protein [Presence] in Urine by Test strip"
            }
          ],
          "text": "Protein [Presence] in Urine by Test strip"
        },
        "text": {
          "status": "generated",
          "div": "<div xmlns=\"http://www.w3.org/1999/xhtml\"><table class=\"hl7__eu__lab__report\"><tr><th>Test</th><th>10-Jan-2018</th><th>Reference&#xA0;Range</th><th>Unit</th></tr><tr><td>Protein [Presence] in Urine by Test strip</td></tr></table></div>"
        },
        "status": "final",
        "subject": {
          "reference": "urn:uuid:dde1886b-abd1-4dd6-ab1b-d9462687fb5c",
          "display": "Maria Nohlmans"
        },
        "effectiveDateTime": "2018-01-10T11:02:39Z",
        "specimen": {
          "reference": "urn:uuid:8e74fae7-6dfa-4ff6-96b2-c84cca2e52f3"
        }
      }
    },
    {
      "fullUrl": "urn:uuid:e669bd4e-dc6f-48ca-aaeb-b87089c31fe7",
      "resource": {
        "resourceType": "Observation",
        "id": "e669bd4e-dc6f-48ca-aaeb-b87089c31fe7",
        "meta": {
          "profile": [
            "http://hl7.eu/fhir/laboratory/StructureDefinition/Observation-resultslab-eu-lab"
          ]
        },
        "performer": [
          {
            "display": "The Central European Lab"
          }
        ],
        "category": [
          {
            "coding": [
              {
                "system": "http://terminology.hl7.org/CodeSystem/observation-category",
                "code": "laboratory"
              }
            ]
          }
        ],
        "code": {
          "coding": [
            {
              "code": "5802-4",
              "system": "http://loinc.org",
              "display": "Nitrite [Presence] in Urine by Test strip"
            }
          ],
          "text": "Nitrite [Presence] in Urine by Test strip"
        },
        "text": {
          "status": "generated",
          "div": "<div xmlns=\"http://www.w3.org/1999/xhtml\"><table class=\"hl7__eu__lab__report\"><tr><th>Test</th><th>10-Jan-2018</th><th>Reference&#xA0;Range</th><th>Unit</th></tr><tr><td>Nitrite [Presence] in Urine by Test strip</td></tr></table></div>"
        },
        "status": "final",
        "subject": {
          "reference": "urn:uuid:dde1886b-abd1-4dd6-ab1b-d9462687fb5c",
          "display": "Maria Nohlmans"
        },
        "effectiveDateTime": "2018-01-10T11:02:39Z",
        "specimen": {
          "reference": "urn:uuid:8e74fae7-6dfa-4ff6-96b2-c84cca2e52f3"
        }
      }
    },
    {
      "fullUrl": "urn:uuid:aa0fba2f-db29-4e3c-b1f8-fcb3ce2b5ee4",
      "resource": {
        "resourceType": "Observation",
        "id": "aa0fba2f-db29-4e3c-b1f8-fcb3ce2b5ee4",
        "meta": {
          "profile": [
            "http://hl7.eu/fhir/laboratory/StructureDefinition/Observation-resultslab-eu-lab"
          ]
        },
        "performer": [
          {
            "display": "The Central European Lab"
          }
        ],
        "category": [
          {
            "coding": [
              {
                "system": "http://terminology.hl7.org/CodeSystem/observation-category",
                "code": "laboratory"
              }
            ]
          }
        ],
        "code": {
          "coding": [
            {
              "code": "5794-3",
              "system": "http://loinc.org",
              "display": "Hemoglobin [Presence] in Urine by Test strip"
            }
          ],
          "text": "Hemoglobin [Presence] in Urine by Test strip"
        },
        "text": {
          "status": "generated",
          "div": "<div xmlns=\"http://www.w3.org/1999/xhtml\"><table class=\"hl7__eu__lab__report\"><tr><th>Test</th><th>10-Jan-2018</th><th>Reference&#xA0;Range</th><th>Unit</th></tr><tr><td>Hemoglobin [Presence] in Urine by Test strip</td></tr></table></div>"
        },
        "status": "final",
        "subject": {
          "reference": "urn:uuid:dde1886b-abd1-4dd6-ab1b-d9462687fb5c",
          "display": "Maria Nohlmans"
        },
        "effectiveDateTime": "2018-01-10T11:02:39Z",
        "specimen": {
          "reference": "urn:uuid:8e74fae7-6dfa-4ff6-96b2-c84cca2e52f3"
        }
      }
    },
    {
      "fullUrl": "urn:uuid:41afbf4a-1696-4095-82bf-eeed57c9dbc2",
      "resource": {
        "resourceType": "Observation",
        "id": "41afbf4a-1696-4095-82bf-eeed57c9dbc2",
        "meta": {
          "profile": [
            "http://hl7.eu/fhir/laboratory/StructureDefinition/Observation-resultslab-eu-lab"
          ]
        },
        "performer": [
          {
            "display": "The Central European Lab"
          }
        ],
        "category": [
          {
            "coding": [
              {
                "system": "http://terminology.hl7.org/CodeSystem/observation-category",
                "code": "laboratory"
              }
            ]
          }
        ],
        "code": {
          "coding": [
            {
              "code": "5799-2",
              "system": "http://loinc.org",
              "display": "Leukocyte esterase [Presence] in Urine by Test strip"
            }
          ],
          "text": "Leukocyte esterase [Presence] in Urine by Test strip"
        },
        "text": {
          "status": "generated",
          "div": "<div xmlns=\"http://www.w3.org/1999/xhtml\"><table class=\"hl7__eu__lab__report\"><tr><th>Test</th><th>10-Jan-2018</th><th>Reference&#xA0;Range</th><th>Unit</th></tr><tr><td>Leukocyte esterase [Presence] in Urine by Test strip</td></tr></table></div>"
        },
        "status": "final",
        "subject": {
          "reference": "urn:uuid:dde1886b-abd1-4dd6-ab1b-d9462687fb5c",
          "display": "Maria Nohlmans"
        },
        "effectiveDateTime": "2018-01-10T11:02:39Z",
        "specimen": {
          "reference": "urn:uuid:8e74fae7-6dfa-4ff6-96b2-c84cca2e52f3"
        }
      }
    },
    {
      "fullUrl": "urn:uuid:f14ca16d-ef28-4c55-9499-b9153a5cb2d0",
      "resource": {
        "resourceType": "Observation",
        "id": "f14ca16d-ef28-4c55-9499-b9153a5cb2d0",
        "meta": {
          "profile": [
            "http://hl7.eu/fhir/laboratory/StructureDefinition/Observation-resultslab-eu-lab"
          ]
        },
        "performer": [
          {
            "display": "The Central European Lab"
          }
        ],
        "category": [
          {
            "coding": [
              {
                "system": "http://terminology.hl7.org/CodeSystem/observation-category",
                "code": "laboratory"
              }
            ]
          }
        ],
        "code": {
          "coding": [
            {
              "code": "4548-4",
              "system": "http://loinc.org",
              "display": "Hemoglobin A1c/Hemoglobin.total in Blood"
            }
          ],
          "text": "Hemoglobin A1c/Hemoglobin.total in Blood"
        },
        "valueQuantity": {
          "system": "http://unitsofmeasure.org",
          "value": 3.2,
          "unit": "%",
          "code": "%"
        },
        "referenceRange": [
          {
            "low": {
              "value": 4.5,
              "code": "%",
              "system": "http://unitsofmeasure.org"
            }
          },
          {
            "high": {
              "value": 6.4,
              "code": "%",
              "system": "http://unitsofmeasure.org"
            }
          }
        ],
        "interpretation": [
          {
            "coding": [
              {
                "code": "L",
                "system": "http://terminology.hl7.org/CodeSystem/v3-ObservationInterpretation",
                "display": "Low"
              }
            ]
          }
        ],
        "text": {
          "status": "generated",
          "div": "<div xmlns=\"http://www.w3.org/1999/xhtml\"><table class=\"hl7__eu__lab__report\"><tr><th>Test</th><th>10-Jan-2018</th><th>Reference&#xA0;Range</th><th>Unit</th></tr><tr><td>Hemoglobin A1c/Hemoglobin.total in Blood</td><td>3.2</td><td>4.5 - 6.4</td><td>L</td><td>%</td></tr></table></div>"
        },
        "status": "final",
        "subject": {
          "reference": "urn:uuid:dde1886b-abd1-4dd6-ab1b-d9462687fb5c",
          "display": "Maria Nohlmans"
        },
        "effectiveDateTime": "2018-01-10T11:02:39Z",
        "specimen": {
          "reference": "urn:uuid:3a99d166-0fd5-44b0-ac4c-8224363fd640"
        }
      }
    },
    {
      "fullUrl": "urn:uuid:74dbaa7c-18ca-4359-888c-000095d6acb3",
      "resource": {
        "resourceType": "Device",
        "id": "74dbaa7c-18ca-4359-888c-000095d6acb3",
        "deviceName": [
          {
            "name": "SYNDERAI Synthetic Generator",
            "type": "manufacturer-name"
          }
        ],
        "version": [
          {
            "value": "5.0"
          }
        ],
        "text": {
          "status": "generated",
          "div": "<div xmlns=\"http://www.w3.org/1999/xhtml\">SYNDERAI Synthetic Generator v5.0</div>"
        },
        "status": "active\"",
        "distinctIdentifier": "synderai-generator-50",
        "manufacturer": "SYNDERAI Project"
      }
    },
    {
      "fullUrl": "urn:uuid:c854abf2-610f-4b21-9ebe-7d5d297300c5",
      "resource": {
        "resourceType": "Provenance",
        "id": "c854abf2-610f-4b21-9ebe-7d5d297300c5",
        "target": [
          {
            "reference": "Patient/dde1886b-abd1-4dd6-ab1b-d9462687fb5c"
          },
          {
            "reference": "Bundle/9d8a53a6-5284-4bdc-8e0d-ff2affa1f2b5"
          },
          {
            "reference": "Composition/98c8d67e-ad3d-47c9-a08b-009a231025f4"
          },
          {
            "reference": "PractitionerRole/d839c309-cb36-4b22-a014-024ac0fb1aa5"
          },
          {
            "reference": "Practitioner/4c155223-9409-42cf-9fc1-a214ee7e7430"
          },
          {
            "reference": "PractitionerRole/e62d1118-3d5a-40fb-b904-c1c590871334"
          },
          {
            "reference": "Organization/2f5b6cac-c996-4d90-b692-46d3b923c8ff"
          }
        ],
        "activity": {
          "text": "Synthetic Example Data Generation"
        },
        "policy": [
          "https://synderai.net/synderai-synthetic-data-policy"
        ],
        "agent": [
          {
            "type": {
              "text": "author"
            },
            "who": {
              "reference": "Device/74dbaa7c-18ca-4359-888c-000095d6acb3"
            }
          }
        ],
        "reason": [
          {
            "text": "Interoperability Testing and Training (non-clinical use)"
          }
        ],
        "text": {
          "status": "generated",
          "div": "<div xmlns=\"http://www.w3.org/1999/xhtml\">Provenance for SYNDERAI Synthetic Example Data Resource</div>"
        },
        "recorded": "2018-01-10T12:02:39Z"
      }
    },
    {
      "fullUrl": "urn:uuid:d839c309-cb36-4b22-a014-024ac0fb1aa5",
      "resource": {
        "resourceType": "PractitionerRole",
        "id": "d839c309-cb36-4b22-a014-024ac0fb1aa5",
        "meta": {
          "profile": [
            "http://hl7.eu/fhir/base/StructureDefinition/practitionerRole-eu"
          ]
        },
        "text": {
          "status": "generated",
          "div": "<div xmlns=\"http://www.w3.org/1999/xhtml\">Laboratory Role Id: d839c309-cb36-4b22-a014-024ac0fb1aa5</div>"
        },
        "practitioner": {
          "reference": "urn:uuid:4c155223-9409-42cf-9fc1-a214ee7e7430"
        }
      }
    },
    {
      "fullUrl": "urn:uuid:4c155223-9409-42cf-9fc1-a214ee7e7430",
      "resource": {
        "resourceType": "Practitioner",
        "id": "4c155223-9409-42cf-9fc1-a214ee7e7430",
        "meta": {
          "profile": [
            "http://hl7.eu/fhir/base/StructureDefinition/practitioner-eu"
          ]
        },
        "identifier": [
          {
            "assigner": {
              "display": "HL7 Europe"
            },
            "system": "urn:oid:2.16.840.1.113883.2.51.999",
            "value": "b51217cc-5ce3-44dc-9ec5-69d97b60c152"
          }
        ],
        "name": [
          {
            "prefix": [
              "dr"
            ],
            "given": [
              "Ex"
            ],
            "family": "Ample"
          }
        ],
        "address": [
          {
            "line": [
              "Laboratoire Central Européenne",
              "Boulevard du Jardin Botanique 32"
            ],
            "postalCode": "1000",
            "city": "Brussels",
            "country": "Belgium"
          }
        ],
        "text": {
          "status": "generated",
          "div": "<div xmlns=\"http://www.w3.org/1999/xhtml\">Laboratory: Laboratoire Central Européenne, 1000 Brussels, Belgium</div>"
        }
      }
    }
  ],
  "type": "document",
  "timestamp": "2018-01-10T12:02:39Z"
}
