{
  "resourceType": "Bundle",
  "id": "e3afb3d4-382b-474a-968f-7ce785a460b7",
  "meta": {
    "profile": [
      "http://hl7.eu/fhir/laboratory/StructureDefinition/Bundle-eu-lab"
    ]
  },
  "identifier": {
    "assigner": {
      "display": "HL7 Europe"
    },
    "system": "urn:oid:2.16.840.1.113883.2.51.999",
    "value": "92b09a53-d694-4c46-9e4a-de181b456a04"
  },
  "entry": [
    {
      "fullUrl": "urn:uuid:7af40971-ae62-4325-ab11-61be992f85df",
      "resource": {
        "resourceType": "Composition",
        "id": "7af40971-ae62-4325-ab11-61be992f85df",
        "meta": {
          "profile": [
            "http://hl7.eu/fhir/laboratory/StructureDefinition/Composition-eu-lab"
          ]
        },
        "identifier": {
          "assigner": {
            "display": "HL7 Europe"
          },
          "system": "urn:oid:2.16.840.1.113883.2.51.999",
          "value": "f1559ee7-4e6f-4096-9d66-bfa3b336754e"
        },
        "author": [
          {
            "reference": "urn:uuid:1c169b6e-c41c-4f48-8570-1f0c8ec1c7a2"
          }
        ],
        "category": [
          {
            "coding": [
              {
                "code": "26436-6",
                "system": "http://loinc.org",
                "display": "Laboratory studies (set)"
              }
            ]
          }
        ],
        "type": {
          "coding": [
            {
              "code": "11502-2",
              "system": "http://loinc.org",
              "display": "Laboratory report"
            }
          ],
          "text": "Laboratory Report"
        },
        "section": [
          {
            "code": {
              "coding": [
                {
                  "code": "26436-6",
                  "system": "http://loinc.org",
                  "display": "Laboratory studies (set)"
                }
              ],
              "text": "Laboratory studies"
            },
            "section": [
              {
                "code": {
                  "coding": [
                    {
                      "code": "$18719-5",
                      "system": "http://loinc.org",
                      "display": "Chemistry studies (set)"
                    }
                  ],
                  "text": "Chemistry"
                },
                "entry": [
                  {
                    "reference": "urn:uuid:3c1bd4a7-31cb-44d2-9f50-9ab46d42beec"
                  },
                  {
                    "reference": "urn:uuid:0a5abdf0-417f-4dff-895c-b0635307bc3b"
                  },
                  {
                    "reference": "urn:uuid:51fd01ae-ae93-4fec-9677-0865e7d1affc"
                  },
                  {
                    "reference": "urn:uuid:94872981-f4ff-4746-af49-c54bb45baf69"
                  },
                  {
                    "reference": "urn:uuid:e6bab039-50a4-4f5a-99be-928e097d3acc"
                  },
                  {
                    "reference": "urn:uuid:ff4ab35f-50c7-4ead-9610-8cd51d62ff20"
                  },
                  {
                    "reference": "urn:uuid:a9db7c63-28c8-4bd1-8aaf-3010bfc449e0"
                  },
                  {
                    "reference": "urn:uuid:38d8687e-83bb-4a06-a7fb-00ab2cf5edab"
                  },
                  {
                    "reference": "urn:uuid:c3487913-ee54-48b3-908f-a0168b9c9873"
                  }
                ],
                "text": {
                  "status": "generated",
                  "div": "<div xmlns=\"http://www.w3.org/1999/xhtml\"><h3>Chemistry</h3><table class=\"hl7__eu__lab__report\"><thead><tr><th>Test</th><th>28-JUL-2022</th><th>Reference&#xA0;Range</th><th>Unit</th></tr></thead><tbody><tr><td>Glucose [Mass/volume] in Serum or Plasma</td><td>83.5</td><td>70 - 140</td><td>mg/dL</td></tr><tr><td>Urea nitrogen [Mass/volume] in Serum or Plasma</td><td>17.9</td><td>7 - 50</td><td>mg/dL</td></tr><tr><td>Creatinine [Mass/volume] in Serum or Plasma</td><td><strong>1.8 H</strong></td><td>0.6 - 1.1</td><td>mg/dL</td></tr><tr><td>Calcium [Mass/volume] in Serum or Plasma</td><td>8.8</td><td>8.5 - 10.5</td><td>mg/dL</td></tr><tr><td>Sodium [Moles/volume] in Serum or Plasma</td><td>140.2</td><td>135 - 145</td><td>mmol/L</td></tr><tr><td>Potassium [Moles/volume] in Serum or Plasma</td><td>4.6</td><td>3.5 - 5.1</td><td>mmol/L</td></tr><tr><td>Chloride [Moles/volume] in Serum or Plasma</td><td>101.3</td><td>98 - 108</td><td>mmol/L</td></tr><tr><td>Carbon dioxide, total [Moles/volume] in Serum or Plasma</td><td><strong>21.2 L</strong></td><td>22 - 32</td><td>mmol/L</td></tr><tr><td>Ketones [Presence] in Urine by Test strip</td><td>Urine ketone test = +</td><td></td><td></td></tr></tbody></table></div>"
                },
                "title": "Chemistry"
              },
              {
                "code": {
                  "coding": [
                    {
                      "code": "$18729-4",
                      "system": "http://loinc.org",
                      "display": "Urinalysis studies (set)"
                    }
                  ],
                  "text": "Urinalysis"
                },
                "entry": [
                  {
                    "reference": "urn:uuid:12e0e9ba-153e-41bb-823b-0cf21f34773a"
                  },
                  {
                    "reference": "urn:uuid:489b1a32-e93c-49c0-8bb0-f893cb4854cf"
                  },
                  {
                    "reference": "urn:uuid:7322008e-97e4-4c14-b82b-9b1f6ba9fdbb"
                  },
                  {
                    "reference": "urn:uuid:11d9724d-cccd-4aac-bd93-db19c3981894"
                  },
                  {
                    "reference": "urn:uuid:c80520b1-d8a1-4bb0-955d-ab4ce454ff2b"
                  },
                  {
                    "reference": "urn:uuid:ff72a46b-9e20-4e17-ab3c-36d701cfb4ff"
                  },
                  {
                    "reference": "urn:uuid:2cb27d8d-ce2e-472c-99f6-603e03c229fa"
                  },
                  {
                    "reference": "urn:uuid:e5bd0e20-75d3-4652-aef0-ceaa2c1a50ab"
                  },
                  {
                    "reference": "urn:uuid:ac7be6d1-8073-44c5-aea4-95c0c462f228"
                  },
                  {
                    "reference": "urn:uuid:ee521fff-177d-478d-92ad-4e228be17a09"
                  },
                  {
                    "reference": "urn:uuid:5d784774-8b2d-4fac-8d73-0da176f9a329"
                  },
                  {
                    "reference": "urn:uuid:77d04bde-bf22-46a1-80e0-b07deb8b919a"
                  }
                ],
                "text": {
                  "status": "generated",
                  "div": "<div xmlns=\"http://www.w3.org/1999/xhtml\"><h3>Urinalysis</h3><table class=\"hl7__eu__lab__report\"><thead><tr><th>Test</th><th>28-JUL-2022</th><th>Reference&#xA0;Range</th><th>Unit</th></tr></thead><tbody><tr><td>Glucose [Mass/volume] in Urine by Test strip</td><td><strong>1.6 H</strong></td><td>0.8 - 0</td><td>mg/dL</td></tr><tr><td>Glucose [Presence] in Urine by Test strip</td><td>++</td><td></td><td></td></tr><tr><td>Bilirubin.total [Mass/volume] in Urine by Test strip</td><td>0.6</td><td>0 - 1</td><td>mg/dL</td></tr><tr><td>Bilirubin.total [Presence] in Urine by Test strip</td><td>Finding of bilirubin in urine</td><td></td><td></td></tr><tr><td>Ketones [Mass/volume] in Urine by Test strip</td><td>12.9</td><td>0 - 20</td><td>mg/dL</td></tr><tr><td>Specific gravity of Urine by Test strip</td><td><strong>1.0 L</strong></td><td>1.01 - 1.03</td><td>{nominal}</td></tr><tr><td>pH of Urine by Test strip</td><td>6.3</td><td>4.6 - 7</td><td>pH</td></tr><tr><td>Protein [Mass/volume] in Urine by Test strip</td><td><strong>349.0 H</strong></td><td>0 - 15</td><td>mg/dL</td></tr><tr><td>Protein [Presence] in Urine by Test strip</td><td>Urine protein test = ++</td><td></td><td></td></tr><tr><td>Nitrite [Presence] in Urine by Test strip</td><td>Urine nitrite negative</td><td></td><td></td></tr><tr><td>Hemoglobin [Presence] in Urine by Test strip</td><td>Urine blood test = negative</td><td></td><td></td></tr><tr><td>Leukocyte esterase [Presence] in Urine by Test strip</td><td>Urine leukocyte test negative</td><td></td><td></td></tr></tbody></table></div>"
                },
                "title": "Urinalysis"
              },
              {
                "code": {
                  "coding": [
                    {
                      "code": "$LP7846-1",
                      "system": "http://loinc.org",
                      "display": "Specimen information"
                    }
                  ],
                  "text": "Specimen information"
                },
                "entry": [
                  {
                    "reference": "urn:uuid:3accc69f-92fa-4c7c-a8e6-adea3eac38be"
                  },
                  {
                    "reference": "urn:uuid:b7816823-211b-4474-8f98-7576624ab8c0"
                  },
                  {
                    "reference": "urn:uuid:b480b2e2-b93f-43cf-b1f1-08203490434e"
                  },
                  {
                    "reference": "urn:uuid:a5c94d8d-bb60-419e-ad5c-ab7c75335c1b"
                  }
                ],
                "text": {
                  "status": "generated",
                  "div": "<div xmlns=\"http://www.w3.org/1999/xhtml\"><h3>Specimen information</h3><table class=\"hl7__eu__lab__report\"><thead><tr><th>Test</th><th>28-JUL-2022</th><th>Specimen</th><th></th></tr></thead><tbody><tr><td>Appearance of Urine</td><td>Cloudy urine</td><td>Urine</td><td></td></tr><tr><td>Odor of Urine</td><td>Urine smell ammoniacal</td><td>Urine</td><td></td></tr><tr><td>Clarity of Urine</td><td>Translucent</td><td>Urine</td><td></td></tr><tr><td>Color of Urine</td><td>Brown color</td><td>Urine</td><td></td></tr></tbody></table></div>"
                },
                "title": "Specimen information"
              }
            ],
            "title": "Laboratory Report"
          },
          {
            "text": {
              "status": "generated",
              "div": "<div xmlns=\"http://www.w3.org/1999/xhtml\"><h3>Annotation</h3><table class=\"hl7__eu__lab__report\"><tr><th>Conclusion and Recommendations based on this report and previous findings known to us</th></tr><tr><td>The patient shows elevated serum creatinine, low total CO₂, and significant proteinuria with glucosuria, low urine specific gravity, and abnormal urine appearance (cloudy, brown, ammoniacal). These findings suggest impaired renal function, possibly chronic kidney disease with tubular dysfunction. No evidence of urinary tract infection is present. Further nephrological evaluation is recommended.</td></tr></table></div>"
            },
            "code": {
              "coding": [
                {
                  "system": "http://loinc.org",
                  "code": "48767-8",
                  "display": "Annotation comment"
                }
              ]
            },
            "title": "Annotation comment"
          }
        ],
        "status": "final",
        "subject": {
          "reference": "urn:uuid:26bd996a-407b-4941-9a57-42b59891cca9",
          "display": "Marthe Gallet"
        },
        "date": "2022-07-28T21:05:43Z",
        "title": "Laboratory Report",
        "confidentiality": "N"
      }
    },
    {
      "fullUrl": "urn:uuid:f370587b-d578-4c6f-91ad-e9aea39604eb",
      "resource": {
        "resourceType": "DiagnosticReport",
        "id": "f370587b-d578-4c6f-91ad-e9aea39604eb",
        "meta": {
          "profile": [
            "http://hl7.eu/fhir/laboratory/StructureDefinition/DiagnosticReport-eu-lab"
          ]
        },
        "identifier": [
          {
            "assigner": {
              "display": "HL7 Europe"
            },
            "system": "urn:oid:2.16.840.1.113883.2.51.999",
            "value": "ee0aab26-7ff4-4dd5-bb0f-dfd737ab19f8"
          }
        ],
        "extension": [
          {
            "url": "http://hl7.org/fhir/5.0/StructureDefinition/extension-DiagnosticReport.composition",
            "valueReference": {
              "reference": "urn:uuid:f1559ee7-4e6f-4096-9d66-bfa3b336754e"
            }
          }
        ],
        "category": [
          {
            "coding": [
              {
                "code": "26436-6",
                "system": "http://loinc.org",
                "display": "Laboratory studies (set)"
              }
            ]
          }
        ],
        "specimen": [
          {
            "reference": "urn:uuid:0d100822-0b12-4e39-9d29-1f651a858894"
          },
          {
            "reference": "urn:uuid:6c515ab8-75c9-4456-b89f-05e53b736878"
          }
        ],
        "result": [
          {
            "reference": "urn:uuid:3c1bd4a7-31cb-44d2-9f50-9ab46d42beec"
          },
          {
            "reference": "urn:uuid:0a5abdf0-417f-4dff-895c-b0635307bc3b"
          },
          {
            "reference": "urn:uuid:51fd01ae-ae93-4fec-9677-0865e7d1affc"
          },
          {
            "reference": "urn:uuid:94872981-f4ff-4746-af49-c54bb45baf69"
          },
          {
            "reference": "urn:uuid:e6bab039-50a4-4f5a-99be-928e097d3acc"
          },
          {
            "reference": "urn:uuid:ff4ab35f-50c7-4ead-9610-8cd51d62ff20"
          },
          {
            "reference": "urn:uuid:a9db7c63-28c8-4bd1-8aaf-3010bfc449e0"
          },
          {
            "reference": "urn:uuid:38d8687e-83bb-4a06-a7fb-00ab2cf5edab"
          },
          {
            "reference": "urn:uuid:3accc69f-92fa-4c7c-a8e6-adea3eac38be"
          },
          {
            "reference": "urn:uuid:b7816823-211b-4474-8f98-7576624ab8c0"
          },
          {
            "reference": "urn:uuid:b480b2e2-b93f-43cf-b1f1-08203490434e"
          },
          {
            "reference": "urn:uuid:a5c94d8d-bb60-419e-ad5c-ab7c75335c1b"
          },
          {
            "reference": "urn:uuid:12e0e9ba-153e-41bb-823b-0cf21f34773a"
          },
          {
            "reference": "urn:uuid:489b1a32-e93c-49c0-8bb0-f893cb4854cf"
          },
          {
            "reference": "urn:uuid:7322008e-97e4-4c14-b82b-9b1f6ba9fdbb"
          },
          {
            "reference": "urn:uuid:11d9724d-cccd-4aac-bd93-db19c3981894"
          },
          {
            "reference": "urn:uuid:c80520b1-d8a1-4bb0-955d-ab4ce454ff2b"
          },
          {
            "reference": "urn:uuid:c3487913-ee54-48b3-908f-a0168b9c9873"
          },
          {
            "reference": "urn:uuid:ff72a46b-9e20-4e17-ab3c-36d701cfb4ff"
          },
          {
            "reference": "urn:uuid:2cb27d8d-ce2e-472c-99f6-603e03c229fa"
          },
          {
            "reference": "urn:uuid:e5bd0e20-75d3-4652-aef0-ceaa2c1a50ab"
          },
          {
            "reference": "urn:uuid:ac7be6d1-8073-44c5-aea4-95c0c462f228"
          },
          {
            "reference": "urn:uuid:ee521fff-177d-478d-92ad-4e228be17a09"
          },
          {
            "reference": "urn:uuid:5d784774-8b2d-4fac-8d73-0da176f9a329"
          },
          {
            "reference": "urn:uuid:77d04bde-bf22-46a1-80e0-b07deb8b919a"
          }
        ],
        "status": "registered",
        "code": {
          "coding": [
            {
              "code": "11502-2",
              "system": "http://loinc.org",
              "display": "Laboratory report"
            }
          ]
        },
        "subject": {
          "reference": "urn:uuid:26bd996a-407b-4941-9a57-42b59891cca9",
          "display": "Marthe Gallet"
        }
      }
    },
    {
      "fullUrl": "urn:uuid:26bd996a-407b-4941-9a57-42b59891cca9",
      "resource": {
        "resourceType": "Patient",
        "id": "26bd996a-407b-4941-9a57-42b59891cca9",
        "meta": {
          "security": [
            {
              "system": "http://terminology.hl7.org/CodeSystem/v3-ActReason",
              "code": "HTEST"
            },
            {
              "system": "http://terminology.hl7.org/CodeSystem/v3-ActReason",
              "code": "TRAIN"
            }
          ],
          "tag": [
            {
              "system": "https://synderai.net/fhir/CodeSystem/tags",
              "code": "synthetic",
              "display": "SYNDERAI Synthetic data"
            }
          ],
          "profile": [
            "http://hl7.eu/fhir/base/StructureDefinition/patient-eu-core"
          ]
        },
        "identifier": [
          {
            "type": {
              "coding": [
                {
                  "code": "PT",
                  "system": "http://terminology.hl7.org/CodeSystem/v2-0203"
                }
              ]
            },
            "system": "http://ec.europa.eu/identifier/eci",
            "value": "9444-947487-6"
          },
          {
            "type": {
              "coding": [
                {
                  "code": "MR",
                  "system": "http://terminology.hl7.org/CodeSystem/v2-0203"
                }
              ]
            },
            "system": "http://local.setting.eu/identifier",
            "value": "854228d5-a476-2d9c-a1d7-c3202375a617"
          }
        ],
        "name": [
          {
            "family": "Gallet"
          },
          {
            "given": [
              "Marthe"
            ]
          },
          {
            "text": "Marthe Gallet"
          }
        ],
        "address": [
          {
            "line": [
              "3, rue Emmanuel Goncalves"
            ],
            "use": "home",
            "type": "physical",
            "postalCode": "49490",
            "city": "Briand",
            "country": "France"
          }
        ],
        "telecom": [
          {
            "system": "phone",
            "value": "+33 1 70 99 82 74"
          }
        ],
        "extension": [
          {
            "url": "http://hl7.org/fhir/StructureDefinition/patient-nationality",
            "valueCodeableConcept": {
              "coding": [
                {
                  "code": "FR",
                  "system": "http://hl7.org/fhir/ValueSet/country"
                }
              ]
            }
          }
        ],
        "text": {
          "status": "generated",
          "div": "<div xmlns=\"http://www.w3.org/1999/xhtml\"><table class=\"hl7__ips\"><tr><td>Marthe Gallet</td><td>female</td><td>29-Oct-1950</td></tr></table></div>"
        },
        "gender": "female",
        "birthDate": "1950-10-29"
      }
    },
    {
      "fullUrl": "urn:uuid:b217de2d-ee70-48c3-aba1-7bb13d2e76fc",
      "resource": {
        "resourceType": "ServiceRequest",
        "id": "b217de2d-ee70-48c3-aba1-7bb13d2e76fc",
        "meta": {
          "profile": [
            "http://hl7.eu/fhir/laboratory/StructureDefinition/ServiceRequest-eu-lab"
          ]
        },
        "identifier": [
          {
            "system": "http://example.org",
            "value": "bbf62671-c969-46c7-ac2c-ad144619cb2c"
          }
        ],
        "specimen": [
          {
            "reference": "urn:uuid:0d100822-0b12-4e39-9d29-1f651a858894"
          },
          {
            "reference": "urn:uuid:6c515ab8-75c9-4456-b89f-05e53b736878"
          }
        ],
        "reasonCode": [
          {
            "coding": [
              {
                "code": "431856006",
                "system": "http://snomed.info/sct",
                "display": "Chronic kidney disease stage 2"
              }
            ]
          },
          {
            "coding": [
              {
                "code": "90781000119102",
                "system": "http://snomed.info/sct",
                "display": "Microalbuminuria due to type 2 diabetes mellitus"
              }
            ]
          },
          {
            "coding": [
              {
                "code": "127013003",
                "system": "http://snomed.info/sct",
                "display": "Disorder of kidney due to diabetes mellitus"
              }
            ]
          },
          {
            "coding": [
              {
                "code": "431855005",
                "system": "http://snomed.info/sct",
                "display": "Chronic kidney disease stage 1"
              }
            ]
          },
          {
            "coding": [
              {
                "code": "55822004",
                "system": "http://snomed.info/sct",
                "display": "Hyperlipidemia"
              }
            ]
          },
          {
            "coding": [
              {
                "code": "59621000",
                "system": "http://snomed.info/sct",
                "display": "Essential hypertension"
              }
            ]
          }
        ],
        "status": "active",
        "intent": "order",
        "code": {
          "coding": [
            {
              "code": "108252007",
              "system": "http://snomed.info/sct",
              "display": "Laboratory procedure"
            }
          ]
        },
        "subject": {
          "reference": "urn:uuid:26bd996a-407b-4941-9a57-42b59891cca9",
          "display": "Marthe Gallet"
        },
        "requester": {
          "reference": "urn:uuid:1ef7b74c-c8f2-401e-b807-684838171eba"
        }
      }
    },
    {
      "fullUrl": "urn:uuid:1ef7b74c-c8f2-401e-b807-684838171eba",
      "resource": {
        "resourceType": "PractitionerRole",
        "id": "1ef7b74c-c8f2-401e-b807-684838171eba",
        "meta": {
          "profile": [
            "http://hl7.eu/fhir/base/StructureDefinition/practitionerRole-eu"
          ]
        },
        "text": {
          "status": "generated",
          "div": "<div xmlns=\"http://www.w3.org/1999/xhtml\">Provider Role Id: 1ef7b74c-c8f2-401e-b807-684838171eba</div>"
        },
        "organization": {
          "reference": "urn:uuid:d4540c40-328b-4d8c-9e31-b9fe23e22a69"
        }
      }
    },
    {
      "fullUrl": "urn:uuid:d4540c40-328b-4d8c-9e31-b9fe23e22a69",
      "resource": {
        "resourceType": "Organization",
        "id": "d4540c40-328b-4d8c-9e31-b9fe23e22a69",
        "meta": {
          "profile": [
            "http://hl7.eu/fhir/base/StructureDefinition/organization-eu"
          ]
        },
        "identifier": [
          {
            "assigner": {
              "display": "HL7 Europe"
            },
            "system": "urn:oid:2.16.840.1.113883.2.51.999",
            "value": "3a33e430-24d3-4985-ad80-cddd07870207"
          }
        ],
        "address": [
          {
            "line": [
              "Rue Larrey nan"
            ],
            "city": "Angers",
            "postalCode": "49100",
            "country": "France"
          }
        ],
        "text": {
          "status": "generated",
          "div": "<div xmlns=\"http://www.w3.org/1999/xhtml\">Provider Organization: CHU d&#039;Angers</div>"
        },
        "name": "CHU d&#039;Angers"
      }
    },
    {
      "fullUrl": "urn:uuid:0d100822-0b12-4e39-9d29-1f651a858894",
      "resource": {
        "resourceType": "Specimen",
        "id": "0d100822-0b12-4e39-9d29-1f651a858894",
        "meta": {
          "profile": [
            "http://hl7.eu/fhir/laboratory/StructureDefinition/Specimen-eu-lab"
          ]
        },
        "collection": {
          "collectedDateTime": "2022-07-28"
        },
        "text": {
          "status": "generated",
          "div": "<div xmlns=\"http://www.w3.org/1999/xhtml\"><table class=\"hl7__eu__lab__report\"><tr><th>Specimen</th><th>Collection Date</th></tr><tr><td>Acellular blood (serum or plasma) specimen</td><td><span class=\"nb\">28-Jul-2022</span></td></tr></table></div>"
        },
        "type": {
          "coding": [
            {
              "code": "122592007",
              "system": "http://snomed.info/sct",
              "display": "Acellular blood (serum or plasma) specimen"
            }
          ]
        }
      }
    },
    {
      "fullUrl": "urn:uuid:6c515ab8-75c9-4456-b89f-05e53b736878",
      "resource": {
        "resourceType": "Specimen",
        "id": "6c515ab8-75c9-4456-b89f-05e53b736878",
        "meta": {
          "profile": [
            "http://hl7.eu/fhir/laboratory/StructureDefinition/Specimen-eu-lab"
          ]
        },
        "collection": {
          "collectedDateTime": "2022-07-28"
        },
        "text": {
          "status": "generated",
          "div": "<div xmlns=\"http://www.w3.org/1999/xhtml\"><table class=\"hl7__eu__lab__report\"><tr><th>Specimen</th><th>Collection Date</th></tr><tr><td>Urine specimen</td><td><span class=\"nb\">28-Jul-2022</span></td></tr></table></div>"
        },
        "type": {
          "coding": [
            {
              "code": "122575003",
              "system": "http://snomed.info/sct",
              "display": "Urine specimen"
            }
          ]
        }
      }
    },
    {
      "fullUrl": "urn:uuid:3c1bd4a7-31cb-44d2-9f50-9ab46d42beec",
      "resource": {
        "resourceType": "Observation",
        "id": "3c1bd4a7-31cb-44d2-9f50-9ab46d42beec",
        "meta": {
          "profile": [
            "http://hl7.eu/fhir/laboratory/StructureDefinition/Observation-resultslab-eu-lab"
          ]
        },
        "performer": [
          {
            "display": "The Central European Lab"
          }
        ],
        "category": [
          {
            "coding": [
              {
                "system": "http://terminology.hl7.org/CodeSystem/observation-category",
                "code": "laboratory"
              }
            ]
          }
        ],
        "code": {
          "coding": [
            {
              "code": "2345-7",
              "system": "http://loinc.org",
              "display": "Glucose [Mass/volume] in Serum or Plasma"
            }
          ],
          "text": "Glucose [Mass/volume] in Serum or Plasma"
        },
        "valueQuantity": {
          "system": "http://unitsofmeasure.org",
          "value": 83.5,
          "unit": "mg/dL",
          "code": "mg/dL"
        },
        "referenceRange": [
          {
            "low": {
              "value": 70,
              "code": "mg/dL",
              "system": "http://unitsofmeasure.org"
            }
          },
          {
            "high": {
              "value": 140,
              "code": "mg/dL",
              "system": "http://unitsofmeasure.org"
            }
          }
        ],
        "text": {
          "status": "generated",
          "div": "<div xmlns=\"http://www.w3.org/1999/xhtml\"><table class=\"hl7__eu__lab__report\"><tr><th>Test</th><th>28-Jul-2022</th><th>Reference&#xA0;Range</th><th>Unit</th></tr><tr><td>Glucose [Mass/volume] in Serum or Plasma</td><td>83.5</td><td>70 - 140</td><td></td><td>mg/dL</td></tr></table></div>"
        },
        "status": "final",
        "subject": {
          "reference": "urn:uuid:26bd996a-407b-4941-9a57-42b59891cca9",
          "display": "Marthe Gallet"
        },
        "effectiveDateTime": "2022-07-28T19:05:43Z",
        "specimen": {
          "reference": "urn:uuid:0d100822-0b12-4e39-9d29-1f651a858894"
        }
      }
    },
    {
      "fullUrl": "urn:uuid:0a5abdf0-417f-4dff-895c-b0635307bc3b",
      "resource": {
        "resourceType": "Observation",
        "id": "0a5abdf0-417f-4dff-895c-b0635307bc3b",
        "meta": {
          "profile": [
            "http://hl7.eu/fhir/laboratory/StructureDefinition/Observation-resultslab-eu-lab"
          ]
        },
        "performer": [
          {
            "display": "The Central European Lab"
          }
        ],
        "category": [
          {
            "coding": [
              {
                "system": "http://terminology.hl7.org/CodeSystem/observation-category",
                "code": "laboratory"
              }
            ]
          }
        ],
        "code": {
          "coding": [
            {
              "code": "3094-0",
              "system": "http://loinc.org",
              "display": "Urea nitrogen [Mass/volume] in Serum or Plasma"
            }
          ],
          "text": "Urea nitrogen [Mass/volume] in Serum or Plasma"
        },
        "valueQuantity": {
          "system": "http://unitsofmeasure.org",
          "value": 17.9,
          "unit": "mg/dL",
          "code": "mg/dL"
        },
        "referenceRange": [
          {
            "low": {
              "value": 7,
              "code": "mg/dL",
              "system": "http://unitsofmeasure.org"
            }
          },
          {
            "high": {
              "value": 50,
              "code": "mg/dL",
              "system": "http://unitsofmeasure.org"
            }
          }
        ],
        "text": {
          "status": "generated",
          "div": "<div xmlns=\"http://www.w3.org/1999/xhtml\"><table class=\"hl7__eu__lab__report\"><tr><th>Test</th><th>28-Jul-2022</th><th>Reference&#xA0;Range</th><th>Unit</th></tr><tr><td>Urea nitrogen [Mass/volume] in Serum or Plasma</td><td>17.9</td><td>7 - 50</td><td></td><td>mg/dL</td></tr></table></div>"
        },
        "status": "final",
        "subject": {
          "reference": "urn:uuid:26bd996a-407b-4941-9a57-42b59891cca9",
          "display": "Marthe Gallet"
        },
        "effectiveDateTime": "2022-07-28T19:05:43Z",
        "specimen": {
          "reference": "urn:uuid:0d100822-0b12-4e39-9d29-1f651a858894"
        }
      }
    },
    {
      "fullUrl": "urn:uuid:51fd01ae-ae93-4fec-9677-0865e7d1affc",
      "resource": {
        "resourceType": "Observation",
        "id": "51fd01ae-ae93-4fec-9677-0865e7d1affc",
        "meta": {
          "profile": [
            "http://hl7.eu/fhir/laboratory/StructureDefinition/Observation-resultslab-eu-lab"
          ]
        },
        "performer": [
          {
            "display": "The Central European Lab"
          }
        ],
        "category": [
          {
            "coding": [
              {
                "system": "http://terminology.hl7.org/CodeSystem/observation-category",
                "code": "laboratory"
              }
            ]
          }
        ],
        "code": {
          "coding": [
            {
              "code": "2160-0",
              "system": "http://loinc.org",
              "display": "Creatinine [Mass/volume] in Serum or Plasma"
            }
          ],
          "text": "Creatinine [Mass/volume] in Serum or Plasma"
        },
        "valueQuantity": {
          "system": "http://unitsofmeasure.org",
          "value": 1.8,
          "unit": "mg/dL",
          "code": "mg/dL"
        },
        "referenceRange": [
          {
            "low": {
              "value": 0.6,
              "code": "mg/dL",
              "system": "http://unitsofmeasure.org"
            }
          },
          {
            "high": {
              "value": 1.1,
              "code": "mg/dL",
              "system": "http://unitsofmeasure.org"
            }
          }
        ],
        "interpretation": [
          {
            "coding": [
              {
                "code": "H",
                "system": "http://terminology.hl7.org/CodeSystem/v3-ObservationInterpretation",
                "display": "High"
              }
            ]
          }
        ],
        "text": {
          "status": "generated",
          "div": "<div xmlns=\"http://www.w3.org/1999/xhtml\"><table class=\"hl7__eu__lab__report\"><tr><th>Test</th><th>28-Jul-2022</th><th>Reference&#xA0;Range</th><th>Unit</th></tr><tr><td>Creatinine [Mass/volume] in Serum or Plasma</td><td>1.8</td><td>0.6 - 1.1</td><td>H</td><td>mg/dL</td></tr></table></div>"
        },
        "status": "final",
        "subject": {
          "reference": "urn:uuid:26bd996a-407b-4941-9a57-42b59891cca9",
          "display": "Marthe Gallet"
        },
        "effectiveDateTime": "2022-07-28T19:05:43Z",
        "specimen": {
          "reference": "urn:uuid:0d100822-0b12-4e39-9d29-1f651a858894"
        }
      }
    },
    {
      "fullUrl": "urn:uuid:94872981-f4ff-4746-af49-c54bb45baf69",
      "resource": {
        "resourceType": "Observation",
        "id": "94872981-f4ff-4746-af49-c54bb45baf69",
        "meta": {
          "profile": [
            "http://hl7.eu/fhir/laboratory/StructureDefinition/Observation-resultslab-eu-lab"
          ]
        },
        "performer": [
          {
            "display": "The Central European Lab"
          }
        ],
        "category": [
          {
            "coding": [
              {
                "system": "http://terminology.hl7.org/CodeSystem/observation-category",
                "code": "laboratory"
              }
            ]
          }
        ],
        "code": {
          "coding": [
            {
              "code": "17861-6",
              "system": "http://loinc.org",
              "display": "Calcium [Mass/volume] in Serum or Plasma"
            }
          ],
          "text": "Calcium [Mass/volume] in Serum or Plasma"
        },
        "valueQuantity": {
          "system": "http://unitsofmeasure.org",
          "value": 8.8,
          "unit": "mg/dL",
          "code": "mg/dL"
        },
        "referenceRange": [
          {
            "low": {
              "value": 8.5,
              "code": "mg/dL",
              "system": "http://unitsofmeasure.org"
            }
          },
          {
            "high": {
              "value": 10.5,
              "code": "mg/dL",
              "system": "http://unitsofmeasure.org"
            }
          }
        ],
        "text": {
          "status": "generated",
          "div": "<div xmlns=\"http://www.w3.org/1999/xhtml\"><table class=\"hl7__eu__lab__report\"><tr><th>Test</th><th>28-Jul-2022</th><th>Reference&#xA0;Range</th><th>Unit</th></tr><tr><td>Calcium [Mass/volume] in Serum or Plasma</td><td>8.8</td><td>8.5 - 10.5</td><td></td><td>mg/dL</td></tr></table></div>"
        },
        "status": "final",
        "subject": {
          "reference": "urn:uuid:26bd996a-407b-4941-9a57-42b59891cca9",
          "display": "Marthe Gallet"
        },
        "effectiveDateTime": "2022-07-28T19:05:43Z",
        "specimen": {
          "reference": "urn:uuid:0d100822-0b12-4e39-9d29-1f651a858894"
        }
      }
    },
    {
      "fullUrl": "urn:uuid:e6bab039-50a4-4f5a-99be-928e097d3acc",
      "resource": {
        "resourceType": "Observation",
        "id": "e6bab039-50a4-4f5a-99be-928e097d3acc",
        "meta": {
          "profile": [
            "http://hl7.eu/fhir/laboratory/StructureDefinition/Observation-resultslab-eu-lab"
          ]
        },
        "performer": [
          {
            "display": "The Central European Lab"
          }
        ],
        "category": [
          {
            "coding": [
              {
                "system": "http://terminology.hl7.org/CodeSystem/observation-category",
                "code": "laboratory"
              }
            ]
          }
        ],
        "code": {
          "coding": [
            {
              "code": "2951-2",
              "system": "http://loinc.org",
              "display": "Sodium [Moles/volume] in Serum or Plasma"
            }
          ],
          "text": "Sodium [Moles/volume] in Serum or Plasma"
        },
        "valueQuantity": {
          "system": "http://unitsofmeasure.org",
          "value": 140.2,
          "unit": "mmol/L",
          "code": "mmol/L"
        },
        "referenceRange": [
          {
            "low": {
              "value": 135,
              "code": "mmol/L",
              "system": "http://unitsofmeasure.org"
            }
          },
          {
            "high": {
              "value": 145,
              "code": "mmol/L",
              "system": "http://unitsofmeasure.org"
            }
          }
        ],
        "text": {
          "status": "generated",
          "div": "<div xmlns=\"http://www.w3.org/1999/xhtml\"><table class=\"hl7__eu__lab__report\"><tr><th>Test</th><th>28-Jul-2022</th><th>Reference&#xA0;Range</th><th>Unit</th></tr><tr><td>Sodium [Moles/volume] in Serum or Plasma</td><td>140.2</td><td>135 - 145</td><td></td><td>mmol/L</td></tr></table></div>"
        },
        "status": "final",
        "subject": {
          "reference": "urn:uuid:26bd996a-407b-4941-9a57-42b59891cca9",
          "display": "Marthe Gallet"
        },
        "effectiveDateTime": "2022-07-28T19:05:43Z",
        "specimen": {
          "reference": "urn:uuid:0d100822-0b12-4e39-9d29-1f651a858894"
        }
      }
    },
    {
      "fullUrl": "urn:uuid:ff4ab35f-50c7-4ead-9610-8cd51d62ff20",
      "resource": {
        "resourceType": "Observation",
        "id": "ff4ab35f-50c7-4ead-9610-8cd51d62ff20",
        "meta": {
          "profile": [
            "http://hl7.eu/fhir/laboratory/StructureDefinition/Observation-resultslab-eu-lab"
          ]
        },
        "performer": [
          {
            "display": "The Central European Lab"
          }
        ],
        "category": [
          {
            "coding": [
              {
                "system": "http://terminology.hl7.org/CodeSystem/observation-category",
                "code": "laboratory"
              }
            ]
          }
        ],
        "code": {
          "coding": [
            {
              "code": "2823-3",
              "system": "http://loinc.org",
              "display": "Potassium [Moles/volume] in Serum or Plasma"
            }
          ],
          "text": "Potassium [Moles/volume] in Serum or Plasma"
        },
        "valueQuantity": {
          "system": "http://unitsofmeasure.org",
          "value": 4.6,
          "unit": "mmol/L",
          "code": "mmol/L"
        },
        "referenceRange": [
          {
            "low": {
              "value": 3.5,
              "code": "mmol/L",
              "system": "http://unitsofmeasure.org"
            }
          },
          {
            "high": {
              "value": 5.1,
              "code": "mmol/L",
              "system": "http://unitsofmeasure.org"
            }
          }
        ],
        "text": {
          "status": "generated",
          "div": "<div xmlns=\"http://www.w3.org/1999/xhtml\"><table class=\"hl7__eu__lab__report\"><tr><th>Test</th><th>28-Jul-2022</th><th>Reference&#xA0;Range</th><th>Unit</th></tr><tr><td>Potassium [Moles/volume] in Serum or Plasma</td><td>4.6</td><td>3.5 - 5.1</td><td></td><td>mmol/L</td></tr></table></div>"
        },
        "status": "final",
        "subject": {
          "reference": "urn:uuid:26bd996a-407b-4941-9a57-42b59891cca9",
          "display": "Marthe Gallet"
        },
        "effectiveDateTime": "2022-07-28T19:05:43Z",
        "specimen": {
          "reference": "urn:uuid:0d100822-0b12-4e39-9d29-1f651a858894"
        }
      }
    },
    {
      "fullUrl": "urn:uuid:a9db7c63-28c8-4bd1-8aaf-3010bfc449e0",
      "resource": {
        "resourceType": "Observation",
        "id": "a9db7c63-28c8-4bd1-8aaf-3010bfc449e0",
        "meta": {
          "profile": [
            "http://hl7.eu/fhir/laboratory/StructureDefinition/Observation-resultslab-eu-lab"
          ]
        },
        "performer": [
          {
            "display": "The Central European Lab"
          }
        ],
        "category": [
          {
            "coding": [
              {
                "system": "http://terminology.hl7.org/CodeSystem/observation-category",
                "code": "laboratory"
              }
            ]
          }
        ],
        "code": {
          "coding": [
            {
              "code": "2075-0",
              "system": "http://loinc.org",
              "display": "Chloride [Moles/volume] in Serum or Plasma"
            }
          ],
          "text": "Chloride [Moles/volume] in Serum or Plasma"
        },
        "valueQuantity": {
          "system": "http://unitsofmeasure.org",
          "value": 101.3,
          "unit": "mmol/L",
          "code": "mmol/L"
        },
        "referenceRange": [
          {
            "low": {
              "value": 98,
              "code": "mmol/L",
              "system": "http://unitsofmeasure.org"
            }
          },
          {
            "high": {
              "value": 108,
              "code": "mmol/L",
              "system": "http://unitsofmeasure.org"
            }
          }
        ],
        "text": {
          "status": "generated",
          "div": "<div xmlns=\"http://www.w3.org/1999/xhtml\"><table class=\"hl7__eu__lab__report\"><tr><th>Test</th><th>28-Jul-2022</th><th>Reference&#xA0;Range</th><th>Unit</th></tr><tr><td>Chloride [Moles/volume] in Serum or Plasma</td><td>101.3</td><td>98 - 108</td><td></td><td>mmol/L</td></tr></table></div>"
        },
        "status": "final",
        "subject": {
          "reference": "urn:uuid:26bd996a-407b-4941-9a57-42b59891cca9",
          "display": "Marthe Gallet"
        },
        "effectiveDateTime": "2022-07-28T19:05:43Z",
        "specimen": {
          "reference": "urn:uuid:0d100822-0b12-4e39-9d29-1f651a858894"
        }
      }
    },
    {
      "fullUrl": "urn:uuid:38d8687e-83bb-4a06-a7fb-00ab2cf5edab",
      "resource": {
        "resourceType": "Observation",
        "id": "38d8687e-83bb-4a06-a7fb-00ab2cf5edab",
        "meta": {
          "profile": [
            "http://hl7.eu/fhir/laboratory/StructureDefinition/Observation-resultslab-eu-lab"
          ]
        },
        "performer": [
          {
            "display": "The Central European Lab"
          }
        ],
        "category": [
          {
            "coding": [
              {
                "system": "http://terminology.hl7.org/CodeSystem/observation-category",
                "code": "laboratory"
              }
            ]
          }
        ],
        "code": {
          "coding": [
            {
              "code": "2028-9",
              "system": "http://loinc.org",
              "display": "Carbon dioxide, total [Moles/volume] in Serum or Plasma"
            }
          ],
          "text": "Carbon dioxide, total [Moles/volume] in Serum or Plasma"
        },
        "valueQuantity": {
          "system": "http://unitsofmeasure.org",
          "value": 21.2,
          "unit": "mmol/L",
          "code": "mmol/L"
        },
        "referenceRange": [
          {
            "low": {
              "value": 22,
              "code": "mmol/L",
              "system": "http://unitsofmeasure.org"
            }
          },
          {
            "high": {
              "value": 32,
              "code": "mmol/L",
              "system": "http://unitsofmeasure.org"
            }
          }
        ],
        "interpretation": [
          {
            "coding": [
              {
                "code": "L",
                "system": "http://terminology.hl7.org/CodeSystem/v3-ObservationInterpretation",
                "display": "Low"
              }
            ]
          }
        ],
        "text": {
          "status": "generated",
          "div": "<div xmlns=\"http://www.w3.org/1999/xhtml\"><table class=\"hl7__eu__lab__report\"><tr><th>Test</th><th>28-Jul-2022</th><th>Reference&#xA0;Range</th><th>Unit</th></tr><tr><td>Carbon dioxide, total [Moles/volume] in Serum or Plasma</td><td>21.2</td><td>22 - 32</td><td>L</td><td>mmol/L</td></tr></table></div>"
        },
        "status": "final",
        "subject": {
          "reference": "urn:uuid:26bd996a-407b-4941-9a57-42b59891cca9",
          "display": "Marthe Gallet"
        },
        "effectiveDateTime": "2022-07-28T19:05:43Z",
        "specimen": {
          "reference": "urn:uuid:0d100822-0b12-4e39-9d29-1f651a858894"
        }
      }
    },
    {
      "fullUrl": "urn:uuid:3accc69f-92fa-4c7c-a8e6-adea3eac38be",
      "resource": {
        "resourceType": "Observation",
        "id": "3accc69f-92fa-4c7c-a8e6-adea3eac38be",
        "meta": {
          "profile": [
            "http://hl7.eu/fhir/laboratory/StructureDefinition/Observation-resultslab-eu-lab"
          ]
        },
        "performer": [
          {
            "display": "The Central European Lab"
          }
        ],
        "category": [
          {
            "coding": [
              {
                "system": "http://terminology.hl7.org/CodeSystem/observation-category",
                "code": "laboratory"
              }
            ]
          }
        ],
        "code": {
          "coding": [
            {
              "code": "5767-9",
              "system": "http://loinc.org",
              "display": "Appearance of Urine"
            }
          ],
          "text": "Appearance of Urine"
        },
        "text": {
          "status": "generated",
          "div": "<div xmlns=\"http://www.w3.org/1999/xhtml\"><table class=\"hl7__eu__lab__report\"><tr><th>Test</th><th>28-Jul-2022</th><th>Reference&#xA0;Range</th><th>Unit</th></tr><tr><td>Appearance of Urine</td></tr></table></div>"
        },
        "status": "final",
        "subject": {
          "reference": "urn:uuid:26bd996a-407b-4941-9a57-42b59891cca9",
          "display": "Marthe Gallet"
        },
        "effectiveDateTime": "2022-07-28T19:05:43Z",
        "specimen": {
          "reference": "urn:uuid:6c515ab8-75c9-4456-b89f-05e53b736878"
        }
      }
    },
    {
      "fullUrl": "urn:uuid:b7816823-211b-4474-8f98-7576624ab8c0",
      "resource": {
        "resourceType": "Observation",
        "id": "b7816823-211b-4474-8f98-7576624ab8c0",
        "meta": {
          "profile": [
            "http://hl7.eu/fhir/laboratory/StructureDefinition/Observation-resultslab-eu-lab"
          ]
        },
        "performer": [
          {
            "display": "The Central European Lab"
          }
        ],
        "category": [
          {
            "coding": [
              {
                "system": "http://terminology.hl7.org/CodeSystem/observation-category",
                "code": "laboratory"
              }
            ]
          }
        ],
        "code": {
          "coding": [
            {
              "code": "34533-0",
              "system": "http://loinc.org",
              "display": "Odor of Urine"
            }
          ],
          "text": "Odor of Urine"
        },
        "text": {
          "status": "generated",
          "div": "<div xmlns=\"http://www.w3.org/1999/xhtml\"><table class=\"hl7__eu__lab__report\"><tr><th>Test</th><th>28-Jul-2022</th><th>Reference&#xA0;Range</th><th>Unit</th></tr><tr><td>Odor of Urine</td></tr></table></div>"
        },
        "status": "final",
        "subject": {
          "reference": "urn:uuid:26bd996a-407b-4941-9a57-42b59891cca9",
          "display": "Marthe Gallet"
        },
        "effectiveDateTime": "2022-07-28T19:05:43Z",
        "specimen": {
          "reference": "urn:uuid:6c515ab8-75c9-4456-b89f-05e53b736878"
        }
      }
    },
    {
      "fullUrl": "urn:uuid:b480b2e2-b93f-43cf-b1f1-08203490434e",
      "resource": {
        "resourceType": "Observation",
        "id": "b480b2e2-b93f-43cf-b1f1-08203490434e",
        "meta": {
          "profile": [
            "http://hl7.eu/fhir/laboratory/StructureDefinition/Observation-resultslab-eu-lab"
          ]
        },
        "performer": [
          {
            "display": "The Central European Lab"
          }
        ],
        "category": [
          {
            "coding": [
              {
                "system": "http://terminology.hl7.org/CodeSystem/observation-category",
                "code": "laboratory"
              }
            ]
          }
        ],
        "code": {
          "coding": [
            {
              "code": "32167-9",
              "system": "http://loinc.org",
              "display": "Clarity of Urine"
            }
          ],
          "text": "Clarity of Urine"
        },
        "text": {
          "status": "generated",
          "div": "<div xmlns=\"http://www.w3.org/1999/xhtml\"><table class=\"hl7__eu__lab__report\"><tr><th>Test</th><th>28-Jul-2022</th><th>Reference&#xA0;Range</th><th>Unit</th></tr><tr><td>Clarity of Urine</td></tr></table></div>"
        },
        "status": "final",
        "subject": {
          "reference": "urn:uuid:26bd996a-407b-4941-9a57-42b59891cca9",
          "display": "Marthe Gallet"
        },
        "effectiveDateTime": "2022-07-28T19:05:43Z",
        "specimen": {
          "reference": "urn:uuid:6c515ab8-75c9-4456-b89f-05e53b736878"
        }
      }
    },
    {
      "fullUrl": "urn:uuid:a5c94d8d-bb60-419e-ad5c-ab7c75335c1b",
      "resource": {
        "resourceType": "Observation",
        "id": "a5c94d8d-bb60-419e-ad5c-ab7c75335c1b",
        "meta": {
          "profile": [
            "http://hl7.eu/fhir/laboratory/StructureDefinition/Observation-resultslab-eu-lab"
          ]
        },
        "performer": [
          {
            "display": "The Central European Lab"
          }
        ],
        "category": [
          {
            "coding": [
              {
                "system": "http://terminology.hl7.org/CodeSystem/observation-category",
                "code": "laboratory"
              }
            ]
          }
        ],
        "code": {
          "coding": [
            {
              "code": "5778-6",
              "system": "http://loinc.org",
              "display": "Color of Urine"
            }
          ],
          "text": "Color of Urine"
        },
        "text": {
          "status": "generated",
          "div": "<div xmlns=\"http://www.w3.org/1999/xhtml\"><table class=\"hl7__eu__lab__report\"><tr><th>Test</th><th>28-Jul-2022</th><th>Reference&#xA0;Range</th><th>Unit</th></tr><tr><td>Color of Urine</td></tr></table></div>"
        },
        "status": "final",
        "subject": {
          "reference": "urn:uuid:26bd996a-407b-4941-9a57-42b59891cca9",
          "display": "Marthe Gallet"
        },
        "effectiveDateTime": "2022-07-28T19:05:43Z",
        "specimen": {
          "reference": "urn:uuid:6c515ab8-75c9-4456-b89f-05e53b736878"
        }
      }
    },
    {
      "fullUrl": "urn:uuid:12e0e9ba-153e-41bb-823b-0cf21f34773a",
      "resource": {
        "resourceType": "Observation",
        "id": "12e0e9ba-153e-41bb-823b-0cf21f34773a",
        "meta": {
          "profile": [
            "http://hl7.eu/fhir/laboratory/StructureDefinition/Observation-resultslab-eu-lab"
          ]
        },
        "performer": [
          {
            "display": "The Central European Lab"
          }
        ],
        "category": [
          {
            "coding": [
              {
                "system": "http://terminology.hl7.org/CodeSystem/observation-category",
                "code": "laboratory"
              }
            ]
          }
        ],
        "code": {
          "coding": [
            {
              "code": "5792-7",
              "system": "http://loinc.org",
              "display": "Glucose [Mass/volume] in Urine by Test strip"
            }
          ],
          "text": "Glucose [Mass/volume] in Urine by Test strip"
        },
        "valueQuantity": {
          "system": "http://unitsofmeasure.org",
          "value": 1.6,
          "unit": "mg/dL",
          "code": "mg/dL"
        },
        "referenceRange": [
          {
            "low": {
              "value": 0.8,
              "code": "mg/dL",
              "system": "http://unitsofmeasure.org"
            }
          },
          {
            "high": {
              "value": 0,
              "code": "mg/dL",
              "system": "http://unitsofmeasure.org"
            }
          }
        ],
        "interpretation": [
          {
            "coding": [
              {
                "code": "H",
                "system": "http://terminology.hl7.org/CodeSystem/v3-ObservationInterpretation",
                "display": "High"
              }
            ]
          }
        ],
        "text": {
          "status": "generated",
          "div": "<div xmlns=\"http://www.w3.org/1999/xhtml\"><table class=\"hl7__eu__lab__report\"><tr><th>Test</th><th>28-Jul-2022</th><th>Reference&#xA0;Range</th><th>Unit</th></tr><tr><td>Glucose [Mass/volume] in Urine by Test strip</td><td>1.6</td><td>0.8 - 0</td><td>H</td><td>mg/dL</td></tr></table></div>"
        },
        "status": "final",
        "subject": {
          "reference": "urn:uuid:26bd996a-407b-4941-9a57-42b59891cca9",
          "display": "Marthe Gallet"
        },
        "effectiveDateTime": "2022-07-28T19:05:43Z",
        "specimen": {
          "reference": "urn:uuid:6c515ab8-75c9-4456-b89f-05e53b736878"
        }
      }
    },
    {
      "fullUrl": "urn:uuid:489b1a32-e93c-49c0-8bb0-f893cb4854cf",
      "resource": {
        "resourceType": "Observation",
        "id": "489b1a32-e93c-49c0-8bb0-f893cb4854cf",
        "meta": {
          "profile": [
            "http://hl7.eu/fhir/laboratory/StructureDefinition/Observation-resultslab-eu-lab"
          ]
        },
        "performer": [
          {
            "display": "The Central European Lab"
          }
        ],
        "category": [
          {
            "coding": [
              {
                "system": "http://terminology.hl7.org/CodeSystem/observation-category",
                "code": "laboratory"
              }
            ]
          }
        ],
        "code": {
          "coding": [
            {
              "code": "25428-4",
              "system": "http://loinc.org",
              "display": "Glucose [Presence] in Urine by Test strip"
            }
          ],
          "text": "Glucose [Presence] in Urine by Test strip"
        },
        "text": {
          "status": "generated",
          "div": "<div xmlns=\"http://www.w3.org/1999/xhtml\"><table class=\"hl7__eu__lab__report\"><tr><th>Test</th><th>28-Jul-2022</th><th>Reference&#xA0;Range</th><th>Unit</th></tr><tr><td>Glucose [Presence] in Urine by Test strip</td></tr></table></div>"
        },
        "status": "final",
        "subject": {
          "reference": "urn:uuid:26bd996a-407b-4941-9a57-42b59891cca9",
          "display": "Marthe Gallet"
        },
        "effectiveDateTime": "2022-07-28T19:05:43Z",
        "specimen": {
          "reference": "urn:uuid:6c515ab8-75c9-4456-b89f-05e53b736878"
        }
      }
    },
    {
      "fullUrl": "urn:uuid:7322008e-97e4-4c14-b82b-9b1f6ba9fdbb",
      "resource": {
        "resourceType": "Observation",
        "id": "7322008e-97e4-4c14-b82b-9b1f6ba9fdbb",
        "meta": {
          "profile": [
            "http://hl7.eu/fhir/laboratory/StructureDefinition/Observation-resultslab-eu-lab"
          ]
        },
        "performer": [
          {
            "display": "The Central European Lab"
          }
        ],
        "category": [
          {
            "coding": [
              {
                "system": "http://terminology.hl7.org/CodeSystem/observation-category",
                "code": "laboratory"
              }
            ]
          }
        ],
        "code": {
          "coding": [
            {
              "code": "20505-4",
              "system": "http://loinc.org",
              "display": "Bilirubin.total [Mass/volume] in Urine by Test strip"
            }
          ],
          "text": "Bilirubin.total [Mass/volume] in Urine by Test strip"
        },
        "valueQuantity": {
          "system": "http://unitsofmeasure.org",
          "value": 0.6,
          "unit": "mg/dL",
          "code": "mg/dL"
        },
        "referenceRange": [
          {
            "low": {
              "value": 0,
              "code": "mg/dL",
              "system": "http://unitsofmeasure.org"
            }
          },
          {
            "high": {
              "value": 1,
              "code": "mg/dL",
              "system": "http://unitsofmeasure.org"
            }
          }
        ],
        "text": {
          "status": "generated",
          "div": "<div xmlns=\"http://www.w3.org/1999/xhtml\"><table class=\"hl7__eu__lab__report\"><tr><th>Test</th><th>28-Jul-2022</th><th>Reference&#xA0;Range</th><th>Unit</th></tr><tr><td>Bilirubin.total [Mass/volume] in Urine by Test strip</td><td>0.6</td><td>0 - 1</td><td></td><td>mg/dL</td></tr></table></div>"
        },
        "status": "final",
        "subject": {
          "reference": "urn:uuid:26bd996a-407b-4941-9a57-42b59891cca9",
          "display": "Marthe Gallet"
        },
        "effectiveDateTime": "2022-07-28T19:05:43Z",
        "specimen": {
          "reference": "urn:uuid:6c515ab8-75c9-4456-b89f-05e53b736878"
        }
      }
    },
    {
      "fullUrl": "urn:uuid:11d9724d-cccd-4aac-bd93-db19c3981894",
      "resource": {
        "resourceType": "Observation",
        "id": "11d9724d-cccd-4aac-bd93-db19c3981894",
        "meta": {
          "profile": [
            "http://hl7.eu/fhir/laboratory/StructureDefinition/Observation-resultslab-eu-lab"
          ]
        },
        "performer": [
          {
            "display": "The Central European Lab"
          }
        ],
        "category": [
          {
            "coding": [
              {
                "system": "http://terminology.hl7.org/CodeSystem/observation-category",
                "code": "laboratory"
              }
            ]
          }
        ],
        "code": {
          "coding": [
            {
              "code": "5770-3",
              "system": "http://loinc.org",
              "display": "Bilirubin.total [Presence] in Urine by Test strip"
            }
          ],
          "text": "Bilirubin.total [Presence] in Urine by Test strip"
        },
        "text": {
          "status": "generated",
          "div": "<div xmlns=\"http://www.w3.org/1999/xhtml\"><table class=\"hl7__eu__lab__report\"><tr><th>Test</th><th>28-Jul-2022</th><th>Reference&#xA0;Range</th><th>Unit</th></tr><tr><td>Bilirubin.total [Presence] in Urine by Test strip</td></tr></table></div>"
        },
        "status": "final",
        "subject": {
          "reference": "urn:uuid:26bd996a-407b-4941-9a57-42b59891cca9",
          "display": "Marthe Gallet"
        },
        "effectiveDateTime": "2022-07-28T19:05:43Z",
        "specimen": {
          "reference": "urn:uuid:6c515ab8-75c9-4456-b89f-05e53b736878"
        }
      }
    },
    {
      "fullUrl": "urn:uuid:c80520b1-d8a1-4bb0-955d-ab4ce454ff2b",
      "resource": {
        "resourceType": "Observation",
        "id": "c80520b1-d8a1-4bb0-955d-ab4ce454ff2b",
        "meta": {
          "profile": [
            "http://hl7.eu/fhir/laboratory/StructureDefinition/Observation-resultslab-eu-lab"
          ]
        },
        "performer": [
          {
            "display": "The Central European Lab"
          }
        ],
        "category": [
          {
            "coding": [
              {
                "system": "http://terminology.hl7.org/CodeSystem/observation-category",
                "code": "laboratory"
              }
            ]
          }
        ],
        "code": {
          "coding": [
            {
              "code": "5797-6",
              "system": "http://loinc.org",
              "display": "Ketones [Mass/volume] in Urine by Test strip"
            }
          ],
          "text": "Ketones [Mass/volume] in Urine by Test strip"
        },
        "valueQuantity": {
          "system": "http://unitsofmeasure.org",
          "value": 12.9,
          "unit": "mg/dL",
          "code": "mg/dL"
        },
        "referenceRange": [
          {
            "low": {
              "value": 0,
              "code": "mg/dL",
              "system": "http://unitsofmeasure.org"
            }
          },
          {
            "high": {
              "value": 20,
              "code": "mg/dL",
              "system": "http://unitsofmeasure.org"
            }
          }
        ],
        "text": {
          "status": "generated",
          "div": "<div xmlns=\"http://www.w3.org/1999/xhtml\"><table class=\"hl7__eu__lab__report\"><tr><th>Test</th><th>28-Jul-2022</th><th>Reference&#xA0;Range</th><th>Unit</th></tr><tr><td>Ketones [Mass/volume] in Urine by Test strip</td><td>12.9</td><td>0 - 20</td><td></td><td>mg/dL</td></tr></table></div>"
        },
        "status": "final",
        "subject": {
          "reference": "urn:uuid:26bd996a-407b-4941-9a57-42b59891cca9",
          "display": "Marthe Gallet"
        },
        "effectiveDateTime": "2022-07-28T19:05:43Z",
        "specimen": {
          "reference": "urn:uuid:6c515ab8-75c9-4456-b89f-05e53b736878"
        }
      }
    },
    {
      "fullUrl": "urn:uuid:c3487913-ee54-48b3-908f-a0168b9c9873",
      "resource": {
        "resourceType": "Observation",
        "id": "c3487913-ee54-48b3-908f-a0168b9c9873",
        "meta": {
          "profile": [
            "http://hl7.eu/fhir/laboratory/StructureDefinition/Observation-resultslab-eu-lab"
          ]
        },
        "performer": [
          {
            "display": "The Central European Lab"
          }
        ],
        "category": [
          {
            "coding": [
              {
                "system": "http://terminology.hl7.org/CodeSystem/observation-category",
                "code": "laboratory"
              }
            ]
          }
        ],
        "code": {
          "coding": [
            {
              "code": "2514-8",
              "system": "http://loinc.org",
              "display": "Ketones [Presence] in Urine by Test strip"
            }
          ],
          "text": "Ketones [Presence] in Urine by Test strip"
        },
        "text": {
          "status": "generated",
          "div": "<div xmlns=\"http://www.w3.org/1999/xhtml\"><table class=\"hl7__eu__lab__report\"><tr><th>Test</th><th>28-Jul-2022</th><th>Reference&#xA0;Range</th><th>Unit</th></tr><tr><td>Ketones [Presence] in Urine by Test strip</td></tr></table></div>"
        },
        "status": "final",
        "subject": {
          "reference": "urn:uuid:26bd996a-407b-4941-9a57-42b59891cca9",
          "display": "Marthe Gallet"
        },
        "effectiveDateTime": "2022-07-28T19:05:43Z",
        "specimen": {
          "reference": "urn:uuid:6c515ab8-75c9-4456-b89f-05e53b736878"
        }
      }
    },
    {
      "fullUrl": "urn:uuid:ff72a46b-9e20-4e17-ab3c-36d701cfb4ff",
      "resource": {
        "resourceType": "Observation",
        "id": "ff72a46b-9e20-4e17-ab3c-36d701cfb4ff",
        "meta": {
          "profile": [
            "http://hl7.eu/fhir/laboratory/StructureDefinition/Observation-resultslab-eu-lab"
          ]
        },
        "performer": [
          {
            "display": "The Central European Lab"
          }
        ],
        "category": [
          {
            "coding": [
              {
                "system": "http://terminology.hl7.org/CodeSystem/observation-category",
                "code": "laboratory"
              }
            ]
          }
        ],
        "code": {
          "coding": [
            {
              "code": "5811-5",
              "system": "http://loinc.org",
              "display": "Specific gravity of Urine by Test strip"
            }
          ],
          "text": "Specific gravity of Urine by Test strip"
        },
        "valueQuantity": {
          "system": "http://unitsofmeasure.org",
          "value": 1,
          "unit": "{nominal}",
          "code": "{nominal}"
        },
        "referenceRange": [
          {
            "low": {
              "value": 1.01,
              "code": "g/mL",
              "system": "http://unitsofmeasure.org"
            }
          },
          {
            "high": {
              "value": 1.03,
              "code": "g/mL",
              "system": "http://unitsofmeasure.org"
            }
          }
        ],
        "interpretation": [
          {
            "coding": [
              {
                "code": "L",
                "system": "http://terminology.hl7.org/CodeSystem/v3-ObservationInterpretation",
                "display": "Low"
              }
            ]
          }
        ],
        "text": {
          "status": "generated",
          "div": "<div xmlns=\"http://www.w3.org/1999/xhtml\"><table class=\"hl7__eu__lab__report\"><tr><th>Test</th><th>28-Jul-2022</th><th>Reference&#xA0;Range</th><th>Unit</th></tr><tr><td>Specific gravity of Urine by Test strip</td><td>1.0</td><td>1.01 - 1.03</td><td>L</td><td>{nominal}</td></tr></table></div>"
        },
        "status": "final",
        "subject": {
          "reference": "urn:uuid:26bd996a-407b-4941-9a57-42b59891cca9",
          "display": "Marthe Gallet"
        },
        "effectiveDateTime": "2022-07-28T19:05:43Z",
        "specimen": {
          "reference": "urn:uuid:6c515ab8-75c9-4456-b89f-05e53b736878"
        }
      }
    },
    {
      "fullUrl": "urn:uuid:2cb27d8d-ce2e-472c-99f6-603e03c229fa",
      "resource": {
        "resourceType": "Observation",
        "id": "2cb27d8d-ce2e-472c-99f6-603e03c229fa",
        "meta": {
          "profile": [
            "http://hl7.eu/fhir/laboratory/StructureDefinition/Observation-resultslab-eu-lab"
          ]
        },
        "performer": [
          {
            "display": "The Central European Lab"
          }
        ],
        "category": [
          {
            "coding": [
              {
                "system": "http://terminology.hl7.org/CodeSystem/observation-category",
                "code": "laboratory"
              }
            ]
          }
        ],
        "code": {
          "coding": [
            {
              "code": "5803-2",
              "system": "http://loinc.org",
              "display": "pH of Urine by Test strip"
            }
          ],
          "text": "pH of Urine by Test strip"
        },
        "valueQuantity": {
          "system": "http://unitsofmeasure.org",
          "value": 6.3,
          "unit": "pH",
          "code": "pH"
        },
        "referenceRange": [
          {
            "low": {
              "value": 4.6,
              "code": "pH",
              "system": "http://unitsofmeasure.org"
            }
          },
          {
            "high": {
              "value": 7,
              "code": "pH",
              "system": "http://unitsofmeasure.org"
            }
          }
        ],
        "text": {
          "status": "generated",
          "div": "<div xmlns=\"http://www.w3.org/1999/xhtml\"><table class=\"hl7__eu__lab__report\"><tr><th>Test</th><th>28-Jul-2022</th><th>Reference&#xA0;Range</th><th>Unit</th></tr><tr><td>pH of Urine by Test strip</td><td>6.3</td><td>4.6 - 7</td><td></td><td>pH</td></tr></table></div>"
        },
        "status": "final",
        "subject": {
          "reference": "urn:uuid:26bd996a-407b-4941-9a57-42b59891cca9",
          "display": "Marthe Gallet"
        },
        "effectiveDateTime": "2022-07-28T19:05:43Z",
        "specimen": {
          "reference": "urn:uuid:6c515ab8-75c9-4456-b89f-05e53b736878"
        }
      }
    },
    {
      "fullUrl": "urn:uuid:e5bd0e20-75d3-4652-aef0-ceaa2c1a50ab",
      "resource": {
        "resourceType": "Observation",
        "id": "e5bd0e20-75d3-4652-aef0-ceaa2c1a50ab",
        "meta": {
          "profile": [
            "http://hl7.eu/fhir/laboratory/StructureDefinition/Observation-resultslab-eu-lab"
          ]
        },
        "performer": [
          {
            "display": "The Central European Lab"
          }
        ],
        "category": [
          {
            "coding": [
              {
                "system": "http://terminology.hl7.org/CodeSystem/observation-category",
                "code": "laboratory"
              }
            ]
          }
        ],
        "code": {
          "coding": [
            {
              "code": "5804-0",
              "system": "http://loinc.org",
              "display": "Protein [Mass/volume] in Urine by Test strip"
            }
          ],
          "text": "Protein [Mass/volume] in Urine by Test strip"
        },
        "valueQuantity": {
          "system": "http://unitsofmeasure.org",
          "value": 349,
          "unit": "mg/dL",
          "code": "mg/dL"
        },
        "referenceRange": [
          {
            "low": {
              "value": 0,
              "code": "mg/dL",
              "system": "http://unitsofmeasure.org"
            }
          },
          {
            "high": {
              "value": 15,
              "code": "mg/dL",
              "system": "http://unitsofmeasure.org"
            }
          }
        ],
        "interpretation": [
          {
            "coding": [
              {
                "code": "H",
                "system": "http://terminology.hl7.org/CodeSystem/v3-ObservationInterpretation",
                "display": "High"
              }
            ]
          }
        ],
        "text": {
          "status": "generated",
          "div": "<div xmlns=\"http://www.w3.org/1999/xhtml\"><table class=\"hl7__eu__lab__report\"><tr><th>Test</th><th>28-Jul-2022</th><th>Reference&#xA0;Range</th><th>Unit</th></tr><tr><td>Protein [Mass/volume] in Urine by Test strip</td><td>349.0</td><td>0 - 15</td><td>H</td><td>mg/dL</td></tr></table></div>"
        },
        "status": "final",
        "subject": {
          "reference": "urn:uuid:26bd996a-407b-4941-9a57-42b59891cca9",
          "display": "Marthe Gallet"
        },
        "effectiveDateTime": "2022-07-28T19:05:43Z",
        "specimen": {
          "reference": "urn:uuid:6c515ab8-75c9-4456-b89f-05e53b736878"
        }
      }
    },
    {
      "fullUrl": "urn:uuid:ac7be6d1-8073-44c5-aea4-95c0c462f228",
      "resource": {
        "resourceType": "Observation",
        "id": "ac7be6d1-8073-44c5-aea4-95c0c462f228",
        "meta": {
          "profile": [
            "http://hl7.eu/fhir/laboratory/StructureDefinition/Observation-resultslab-eu-lab"
          ]
        },
        "performer": [
          {
            "display": "The Central European Lab"
          }
        ],
        "category": [
          {
            "coding": [
              {
                "system": "http://terminology.hl7.org/CodeSystem/observation-category",
                "code": "laboratory"
              }
            ]
          }
        ],
        "code": {
          "coding": [
            {
              "code": "20454-5",
              "system": "http://loinc.org",
              "display": "Protein [Presence] in Urine by Test strip"
            }
          ],
          "text": "Protein [Presence] in Urine by Test strip"
        },
        "text": {
          "status": "generated",
          "div": "<div xmlns=\"http://www.w3.org/1999/xhtml\"><table class=\"hl7__eu__lab__report\"><tr><th>Test</th><th>28-Jul-2022</th><th>Reference&#xA0;Range</th><th>Unit</th></tr><tr><td>Protein [Presence] in Urine by Test strip</td></tr></table></div>"
        },
        "status": "final",
        "subject": {
          "reference": "urn:uuid:26bd996a-407b-4941-9a57-42b59891cca9",
          "display": "Marthe Gallet"
        },
        "effectiveDateTime": "2022-07-28T19:05:43Z",
        "specimen": {
          "reference": "urn:uuid:6c515ab8-75c9-4456-b89f-05e53b736878"
        }
      }
    },
    {
      "fullUrl": "urn:uuid:ee521fff-177d-478d-92ad-4e228be17a09",
      "resource": {
        "resourceType": "Observation",
        "id": "ee521fff-177d-478d-92ad-4e228be17a09",
        "meta": {
          "profile": [
            "http://hl7.eu/fhir/laboratory/StructureDefinition/Observation-resultslab-eu-lab"
          ]
        },
        "performer": [
          {
            "display": "The Central European Lab"
          }
        ],
        "category": [
          {
            "coding": [
              {
                "system": "http://terminology.hl7.org/CodeSystem/observation-category",
                "code": "laboratory"
              }
            ]
          }
        ],
        "code": {
          "coding": [
            {
              "code": "5802-4",
              "system": "http://loinc.org",
              "display": "Nitrite [Presence] in Urine by Test strip"
            }
          ],
          "text": "Nitrite [Presence] in Urine by Test strip"
        },
        "text": {
          "status": "generated",
          "div": "<div xmlns=\"http://www.w3.org/1999/xhtml\"><table class=\"hl7__eu__lab__report\"><tr><th>Test</th><th>28-Jul-2022</th><th>Reference&#xA0;Range</th><th>Unit</th></tr><tr><td>Nitrite [Presence] in Urine by Test strip</td></tr></table></div>"
        },
        "status": "final",
        "subject": {
          "reference": "urn:uuid:26bd996a-407b-4941-9a57-42b59891cca9",
          "display": "Marthe Gallet"
        },
        "effectiveDateTime": "2022-07-28T19:05:43Z",
        "specimen": {
          "reference": "urn:uuid:6c515ab8-75c9-4456-b89f-05e53b736878"
        }
      }
    },
    {
      "fullUrl": "urn:uuid:5d784774-8b2d-4fac-8d73-0da176f9a329",
      "resource": {
        "resourceType": "Observation",
        "id": "5d784774-8b2d-4fac-8d73-0da176f9a329",
        "meta": {
          "profile": [
            "http://hl7.eu/fhir/laboratory/StructureDefinition/Observation-resultslab-eu-lab"
          ]
        },
        "performer": [
          {
            "display": "The Central European Lab"
          }
        ],
        "category": [
          {
            "coding": [
              {
                "system": "http://terminology.hl7.org/CodeSystem/observation-category",
                "code": "laboratory"
              }
            ]
          }
        ],
        "code": {
          "coding": [
            {
              "code": "5794-3",
              "system": "http://loinc.org",
              "display": "Hemoglobin [Presence] in Urine by Test strip"
            }
          ],
          "text": "Hemoglobin [Presence] in Urine by Test strip"
        },
        "text": {
          "status": "generated",
          "div": "<div xmlns=\"http://www.w3.org/1999/xhtml\"><table class=\"hl7__eu__lab__report\"><tr><th>Test</th><th>28-Jul-2022</th><th>Reference&#xA0;Range</th><th>Unit</th></tr><tr><td>Hemoglobin [Presence] in Urine by Test strip</td></tr></table></div>"
        },
        "status": "final",
        "subject": {
          "reference": "urn:uuid:26bd996a-407b-4941-9a57-42b59891cca9",
          "display": "Marthe Gallet"
        },
        "effectiveDateTime": "2022-07-28T19:05:43Z",
        "specimen": {
          "reference": "urn:uuid:6c515ab8-75c9-4456-b89f-05e53b736878"
        }
      }
    },
    {
      "fullUrl": "urn:uuid:77d04bde-bf22-46a1-80e0-b07deb8b919a",
      "resource": {
        "resourceType": "Observation",
        "id": "77d04bde-bf22-46a1-80e0-b07deb8b919a",
        "meta": {
          "profile": [
            "http://hl7.eu/fhir/laboratory/StructureDefinition/Observation-resultslab-eu-lab"
          ]
        },
        "performer": [
          {
            "display": "The Central European Lab"
          }
        ],
        "category": [
          {
            "coding": [
              {
                "system": "http://terminology.hl7.org/CodeSystem/observation-category",
                "code": "laboratory"
              }
            ]
          }
        ],
        "code": {
          "coding": [
            {
              "code": "5799-2",
              "system": "http://loinc.org",
              "display": "Leukocyte esterase [Presence] in Urine by Test strip"
            }
          ],
          "text": "Leukocyte esterase [Presence] in Urine by Test strip"
        },
        "text": {
          "status": "generated",
          "div": "<div xmlns=\"http://www.w3.org/1999/xhtml\"><table class=\"hl7__eu__lab__report\"><tr><th>Test</th><th>28-Jul-2022</th><th>Reference&#xA0;Range</th><th>Unit</th></tr><tr><td>Leukocyte esterase [Presence] in Urine by Test strip</td></tr></table></div>"
        },
        "status": "final",
        "subject": {
          "reference": "urn:uuid:26bd996a-407b-4941-9a57-42b59891cca9",
          "display": "Marthe Gallet"
        },
        "effectiveDateTime": "2022-07-28T19:05:43Z",
        "specimen": {
          "reference": "urn:uuid:6c515ab8-75c9-4456-b89f-05e53b736878"
        }
      }
    },
    {
      "fullUrl": "urn:uuid:a1545e86-62cc-4cf8-87a9-9dd99b8ba4c9",
      "resource": {
        "resourceType": "Device",
        "id": "a1545e86-62cc-4cf8-87a9-9dd99b8ba4c9",
        "deviceName": [
          {
            "name": "SYNDERAI Synthetic Generator",
            "type": "manufacturer-name"
          }
        ],
        "version": [
          {
            "value": "5.0"
          }
        ],
        "text": {
          "status": "generated",
          "div": "<div xmlns=\"http://www.w3.org/1999/xhtml\">SYNDERAI Synthetic Generator v5.0</div>"
        },
        "status": "active\"",
        "distinctIdentifier": "synderai-generator-50",
        "manufacturer": "SYNDERAI Project"
      }
    },
    {
      "fullUrl": "urn:uuid:d853744e-daae-49c8-b73f-8492c412145c",
      "resource": {
        "resourceType": "Provenance",
        "id": "d853744e-daae-49c8-b73f-8492c412145c",
        "target": [
          {
            "reference": "Patient/26bd996a-407b-4941-9a57-42b59891cca9"
          },
          {
            "reference": "Bundle/e3afb3d4-382b-474a-968f-7ce785a460b7"
          },
          {
            "reference": "Composition/7af40971-ae62-4325-ab11-61be992f85df"
          },
          {
            "reference": "PractitionerRole/1c169b6e-c41c-4f48-8570-1f0c8ec1c7a2"
          },
          {
            "reference": "Practitioner/4048e3c0-af12-4422-9120-a17b8fc3998e"
          },
          {
            "reference": "PractitionerRole/1ef7b74c-c8f2-401e-b807-684838171eba"
          },
          {
            "reference": "Organization/d4540c40-328b-4d8c-9e31-b9fe23e22a69"
          }
        ],
        "activity": {
          "text": "Synthetic Example Data Generation"
        },
        "policy": [
          "https://synderai.net/synderai-synthetic-data-policy"
        ],
        "agent": [
          {
            "type": {
              "text": "author"
            },
            "who": {
              "reference": "Device/a1545e86-62cc-4cf8-87a9-9dd99b8ba4c9"
            }
          }
        ],
        "reason": [
          {
            "text": "Interoperability Testing and Training (non-clinical use)"
          }
        ],
        "text": {
          "status": "generated",
          "div": "<div xmlns=\"http://www.w3.org/1999/xhtml\">Provenance for SYNDERAI Synthetic Example Data Resource</div>"
        },
        "recorded": "2022-07-28T21:05:43Z"
      }
    },
    {
      "fullUrl": "urn:uuid:1c169b6e-c41c-4f48-8570-1f0c8ec1c7a2",
      "resource": {
        "resourceType": "PractitionerRole",
        "id": "1c169b6e-c41c-4f48-8570-1f0c8ec1c7a2",
        "meta": {
          "profile": [
            "http://hl7.eu/fhir/base/StructureDefinition/practitionerRole-eu"
          ]
        },
        "text": {
          "status": "generated",
          "div": "<div xmlns=\"http://www.w3.org/1999/xhtml\">Laboratory Role Id: 1c169b6e-c41c-4f48-8570-1f0c8ec1c7a2</div>"
        },
        "practitioner": {
          "reference": "urn:uuid:4048e3c0-af12-4422-9120-a17b8fc3998e"
        }
      }
    },
    {
      "fullUrl": "urn:uuid:4048e3c0-af12-4422-9120-a17b8fc3998e",
      "resource": {
        "resourceType": "Practitioner",
        "id": "4048e3c0-af12-4422-9120-a17b8fc3998e",
        "meta": {
          "profile": [
            "http://hl7.eu/fhir/base/StructureDefinition/practitioner-eu"
          ]
        },
        "identifier": [
          {
            "assigner": {
              "display": "HL7 Europe"
            },
            "system": "urn:oid:2.16.840.1.113883.2.51.999",
            "value": "9b9ddb19-bdb8-4448-9165-5f64d9878f33"
          }
        ],
        "name": [
          {
            "prefix": [
              "dr"
            ],
            "given": [
              "Ex"
            ],
            "family": "Ample"
          }
        ],
        "address": [
          {
            "line": [
              "Laboratoire Central Européenne",
              "Boulevard du Jardin Botanique 32"
            ],
            "postalCode": "1000",
            "city": "Brussels",
            "country": "Belgium"
          }
        ],
        "text": {
          "status": "generated",
          "div": "<div xmlns=\"http://www.w3.org/1999/xhtml\">Laboratory: Laboratoire Central Européenne, 1000 Brussels, Belgium</div>"
        }
      }
    }
  ],
  "type": "document",
  "timestamp": "2022-07-28T21:05:43Z"
}
