{
  "resourceType": "Bundle",
  "id": "5053ed62-0929-4b40-9039-e076323c1a1e",
  "meta": {
    "profile": [
      "http://hl7.eu/fhir/laboratory/StructureDefinition/Bundle-eu-lab"
    ]
  },
  "identifier": {
    "assigner": {
      "display": "HL7 Europe"
    },
    "system": "urn:oid:2.16.840.1.113883.2.51.999",
    "value": "9cb496b2-7aa9-4ea7-8c3e-655a653c2b43"
  },
  "entry": [
    {
      "fullUrl": "urn:uuid:aae6783f-a495-4613-87aa-27d0db79f709",
      "resource": {
        "resourceType": "Composition",
        "id": "aae6783f-a495-4613-87aa-27d0db79f709",
        "meta": {
          "profile": [
            "http://hl7.eu/fhir/laboratory/StructureDefinition/Composition-eu-lab"
          ]
        },
        "identifier": {
          "assigner": {
            "display": "HL7 Europe"
          },
          "system": "urn:oid:2.16.840.1.113883.2.51.999",
          "value": "b608f922-b840-4341-bd42-64ccfb4518f2"
        },
        "author": [
          {
            "reference": "urn:uuid:d26ca449-1ad9-4427-a4ce-f62e89605810"
          }
        ],
        "category": [
          {
            "coding": [
              {
                "code": "26436-6",
                "system": "http://loinc.org",
                "display": "Laboratory studies (set)"
              }
            ]
          }
        ],
        "type": {
          "coding": [
            {
              "code": "11502-2",
              "system": "http://loinc.org",
              "display": "Laboratory report"
            }
          ],
          "text": "Laboratory Report"
        },
        "section": [
          {
            "code": {
              "coding": [
                {
                  "code": "26436-6",
                  "system": "http://loinc.org",
                  "display": "Laboratory studies (set)"
                }
              ],
              "text": "Laboratory studies"
            },
            "section": [
              {
                "code": {
                  "coding": [
                    {
                      "code": "$18719-5",
                      "system": "http://loinc.org",
                      "display": "Chemistry studies (set)"
                    }
                  ],
                  "text": "Chemistry"
                },
                "entry": [
                  {
                    "reference": "urn:uuid:98fee498-ca88-4847-9ff6-d067a16f73ab"
                  },
                  {
                    "reference": "urn:uuid:975d6232-cfe0-47e1-833d-5079fc8b7b13"
                  },
                  {
                    "reference": "urn:uuid:ac5a787f-36c1-4e6f-af82-869092d3051b"
                  },
                  {
                    "reference": "urn:uuid:4e85300e-aa74-4666-a693-12f1c534ecef"
                  },
                  {
                    "reference": "urn:uuid:09d4416d-6a8a-4601-b4e3-3878cd002023"
                  },
                  {
                    "reference": "urn:uuid:88d765e1-6488-4d33-9969-d5bd3e97fdcf"
                  },
                  {
                    "reference": "urn:uuid:325f78ab-f1f2-418f-bc80-9f292bab57b3"
                  },
                  {
                    "reference": "urn:uuid:b12641b4-a198-422d-88bf-6d36899e7174"
                  },
                  {
                    "reference": "urn:uuid:fbb0adc8-455d-465c-b296-fca7be89ec91"
                  },
                  {
                    "reference": "urn:uuid:be9a2da8-a0a7-43d9-925e-4d0185fd7a10"
                  },
                  {
                    "reference": "urn:uuid:2defff0c-5784-4d46-acd0-610ce304f7c8"
                  },
                  {
                    "reference": "urn:uuid:c5b9a406-bc98-4cdb-8d03-078c2faed447"
                  },
                  {
                    "reference": "urn:uuid:e45e3f35-b5ba-4ad1-be7a-62a86b4a327e"
                  },
                  {
                    "reference": "urn:uuid:b92d3d7a-806e-41be-ad8b-6b0490416b51"
                  },
                  {
                    "reference": "urn:uuid:025ffd3a-9e93-451f-9fff-0337f057a5f8"
                  },
                  {
                    "reference": "urn:uuid:f6955337-b1d4-49a9-82d6-ce35c7e1c50b"
                  },
                  {
                    "reference": "urn:uuid:93dcd348-72b4-4389-8948-eb4e63764a0c"
                  },
                  {
                    "reference": "urn:uuid:0f72bcd9-0f16-4b85-ad5f-c5a435dd3c01"
                  }
                ],
                "text": {
                  "status": "generated",
                  "div": "<div xmlns=\"http://www.w3.org/1999/xhtml\"><h3>Chemistry</h3><table class=\"hl7__eu__lab__report\"><thead><tr><th>Test</th><th>26-MAY-2023</th><th>Reference&#xA0;Range</th><th>Unit</th></tr></thead><tbody><tr><td>Glucose [Mass/volume] in Serum or Plasma</td><td>94.2</td><td>70 - 140</td><td>mg/dL</td></tr><tr><td>Urea nitrogen [Mass/volume] in Serum or Plasma</td><td>17.6</td><td>7 - 20</td><td>mg/dL</td></tr><tr><td>Creatinine [Mass/volume] in Serum or Plasma</td><td><strong>2.0 H</strong></td><td>0.9 - 1.3</td><td>mg/dL</td></tr><tr><td>Calcium [Mass/volume] in Serum or Plasma</td><td>8.8</td><td>8.5 - 10.5</td><td>mg/dL</td></tr><tr><td>Sodium [Moles/volume] in Serum or Plasma</td><td>142.1</td><td>135 - 145</td><td>mmol/L</td></tr><tr><td>Potassium [Moles/volume] in Serum or Plasma</td><td>4.6</td><td>3.5 - 5.3</td><td>mmol/L</td></tr><tr><td>Chloride [Moles/volume] in Serum or Plasma</td><td><strong>110.5 H</strong></td><td>98 - 107</td><td>mmol/L</td></tr><tr><td>Carbon dioxide, total [Moles/volume] in Serum or Plasma</td><td>26.0</td><td>22 - 33</td><td>mmol/L</td></tr><tr><td>Ketones [Presence] in Urine by Test strip</td><td>Urine ketone test = ++</td><td></td><td></td></tr><tr><td>Hemoglobin A1c/Hemoglobin.total in Blood</td><td><strong>3.3 L</strong></td><td>4.3 - 6</td><td>%</td></tr><tr><td>Glucose [Mass/volume] in Blood</td><td>94.2</td><td>70 - 140</td><td>mg/dL</td></tr><tr><td>Urea nitrogen [Mass/volume] in Blood</td><td>17.6</td><td>7 - 20</td><td>mg/dL</td></tr><tr><td>Creatinine [Mass/volume] in Blood</td><td><strong>2.5 H</strong></td><td>0.9 - 1.3</td><td>mg/dL</td></tr><tr><td>Calcium [Mass/volume] in Blood</td><td>8.8</td><td>8.5 - 10.5</td><td>mg/dL</td></tr><tr><td>Sodium [Moles/volume] in Blood</td><td>142.1</td><td>135 - 145</td><td>mmol/L</td></tr><tr><td>Potassium [Moles/volume] in Blood</td><td>4.6</td><td>3.5 - 5.1</td><td>mmol/L</td></tr><tr><td>Chloride [Moles/volume] in Blood</td><td><strong>110.5 H</strong></td><td>98 - 108</td><td>mmol/L</td></tr><tr><td>Carbon dioxide, total [Moles/volume] in Blood</td><td>26.0</td><td>22 - 29</td><td>mmol/L</td></tr></tbody></table></div>"
                },
                "title": "Chemistry"
              },
              {
                "code": {
                  "coding": [
                    {
                      "code": "$18729-4",
                      "system": "http://loinc.org",
                      "display": "Urinalysis studies (set)"
                    }
                  ],
                  "text": "Urinalysis"
                },
                "entry": [
                  {
                    "reference": "urn:uuid:e3d8c3ef-25fc-48e2-a168-9c61d3fc404f"
                  },
                  {
                    "reference": "urn:uuid:1808f010-c2c8-493a-9ada-d3cea5395b9b"
                  },
                  {
                    "reference": "urn:uuid:37b0d39c-2d7f-4d59-874b-bbb2dba2b678"
                  },
                  {
                    "reference": "urn:uuid:7d5f4342-fa9c-4615-b1fd-ab6ac666d5f3"
                  },
                  {
                    "reference": "urn:uuid:c39d147f-62be-4ed5-a94d-5a39116778c1"
                  },
                  {
                    "reference": "urn:uuid:5d8ae466-5e40-4a71-b566-60fa71031bf9"
                  },
                  {
                    "reference": "urn:uuid:f2e7acec-d561-4965-a19a-c348405f0242"
                  },
                  {
                    "reference": "urn:uuid:5ef84ac4-346a-4213-9c51-403dd5064018"
                  },
                  {
                    "reference": "urn:uuid:05b3fe83-87a2-4eaa-a366-66f34d7594a3"
                  },
                  {
                    "reference": "urn:uuid:f594fd2c-6233-46d4-a16c-3aa24fbc2c5e"
                  },
                  {
                    "reference": "urn:uuid:f1fb6332-da9d-4b6b-8f6d-d919334d9a4c"
                  },
                  {
                    "reference": "urn:uuid:945dc31a-0404-4ded-8479-9ed627e2c431"
                  }
                ],
                "text": {
                  "status": "generated",
                  "div": "<div xmlns=\"http://www.w3.org/1999/xhtml\"><h3>Urinalysis</h3><table class=\"hl7__eu__lab__report\"><thead><tr><th>Test</th><th>26-MAY-2023</th><th>Reference&#xA0;Range</th><th>Unit</th></tr></thead><tbody><tr><td>Glucose [Mass/volume] in Urine by Test strip</td><td><strong>1.2 H</strong></td><td>0 - 0.8</td><td>mg/dL</td></tr><tr><td>Glucose [Presence] in Urine by Test strip</td><td>++</td><td></td><td></td></tr><tr><td>Bilirubin.total [Mass/volume] in Urine by Test strip</td><td>0.8</td><td>0 - 1.9</td><td>mg/dL</td></tr><tr><td>Bilirubin.total [Presence] in Urine by Test strip</td><td>Finding of bilirubin in urine</td><td></td><td></td></tr><tr><td>Ketones [Mass/volume] in Urine by Test strip</td><td><strong>11.5 H</strong></td><td>0 - 3</td><td>mg/dL</td></tr><tr><td>Specific gravity of Urine by Test strip</td><td><strong>1.0 L</strong></td><td>1.01 - 1.03</td><td>{nominal}</td></tr><tr><td>pH of Urine by Test strip</td><td>6.3</td><td>4.5 - 7.5</td><td>pH</td></tr><tr><td>Protein [Mass/volume] in Urine by Test strip</td><td><strong>378.0 H</strong></td><td>0 - 149</td><td>mg/dL</td></tr><tr><td>Protein [Presence] in Urine by Test strip</td><td>Urine protein test = ++</td><td></td><td></td></tr><tr><td>Nitrite [Presence] in Urine by Test strip</td><td>Urine nitrite negative</td><td></td><td></td></tr><tr><td>Hemoglobin [Presence] in Urine by Test strip</td><td>Urine blood test = negative</td><td></td><td></td></tr><tr><td>Leukocyte esterase [Presence] in Urine by Test strip</td><td>Urine leukocyte test negative</td><td></td><td></td></tr></tbody></table></div>"
                },
                "title": "Urinalysis"
              },
              {
                "code": {
                  "coding": [
                    {
                      "code": "$LP7846-1",
                      "system": "http://loinc.org",
                      "display": "Specimen information"
                    }
                  ],
                  "text": "Specimen information"
                },
                "entry": [
                  {
                    "reference": "urn:uuid:169995de-c6b9-4c49-b84b-cb4170b53fd7"
                  },
                  {
                    "reference": "urn:uuid:5fdb7edd-8de1-482e-9317-13c4d76dfed3"
                  },
                  {
                    "reference": "urn:uuid:4006ef1a-6705-4de7-84ee-da55f6a73d37"
                  },
                  {
                    "reference": "urn:uuid:1b6a177c-6f80-416e-b617-465782434d4e"
                  }
                ],
                "text": {
                  "status": "generated",
                  "div": "<div xmlns=\"http://www.w3.org/1999/xhtml\"><h3>Specimen information</h3><table class=\"hl7__eu__lab__report\"><thead><tr><th>Test</th><th>26-MAY-2023</th><th>Specimen</th><th></th></tr></thead><tbody><tr><td>Appearance of Urine</td><td>Cloudy urine</td><td>Urine</td><td></td></tr><tr><td>Odor of Urine</td><td>Urine smell ammoniacal</td><td>Urine</td><td></td></tr><tr><td>Clarity of Urine</td><td>Translucent</td><td>Urine</td><td></td></tr><tr><td>Color of Urine</td><td>Brown color</td><td>Urine</td><td></td></tr></tbody></table></div>"
                },
                "title": "Specimen information"
              }
            ],
            "title": "Laboratory Report"
          },
          {
            "text": {
              "status": "generated",
              "div": "<div xmlns=\"http://www.w3.org/1999/xhtml\"><h3>Annotation</h3><table class=\"hl7__eu__lab__report\"><tr><th>Conclusion and Recommendations based on this report and previous findings known to us</th></tr><tr><td>The patient shows elevated creatinine, suggesting impaired renal function, and high chloride. Urinalysis reveals proteinuria, glucosuria, ketonuria, low specific gravity, and abnormal urine appearance, indicating possible renal dysfunction and metabolic derangement. HbA1c is low despite glucosuria, which may reflect recent glycemic changes or analytical issues. No evidence of urinary infection. Recommend further evaluation of renal function, assessment for possible diabetes or metabolic disorder, and clinical correlation.</td></tr></table></div>"
            },
            "code": {
              "coding": [
                {
                  "system": "http://loinc.org",
                  "code": "48767-8",
                  "display": "Annotation comment"
                }
              ]
            },
            "title": "Annotation comment"
          }
        ],
        "status": "final",
        "subject": {
          "reference": "urn:uuid:c82fd36a-3c52-40d3-9c67-d7dcb93822ed",
          "display": "Victor Lagarde"
        },
        "date": "2023-05-26T06:48:18Z",
        "title": "Laboratory Report",
        "confidentiality": "N"
      }
    },
    {
      "fullUrl": "urn:uuid:44914e0e-4f79-49aa-8c54-7d4a7ecd56de",
      "resource": {
        "resourceType": "DiagnosticReport",
        "id": "44914e0e-4f79-49aa-8c54-7d4a7ecd56de",
        "meta": {
          "profile": [
            "http://hl7.eu/fhir/laboratory/StructureDefinition/DiagnosticReport-eu-lab"
          ]
        },
        "identifier": [
          {
            "assigner": {
              "display": "HL7 Europe"
            },
            "system": "urn:oid:2.16.840.1.113883.2.51.999",
            "value": "030f3936-2df3-494d-ae86-4731d3f2e767"
          }
        ],
        "extension": [
          {
            "url": "http://hl7.org/fhir/5.0/StructureDefinition/extension-DiagnosticReport.composition",
            "valueReference": {
              "reference": "urn:uuid:b608f922-b840-4341-bd42-64ccfb4518f2"
            }
          }
        ],
        "category": [
          {
            "coding": [
              {
                "code": "26436-6",
                "system": "http://loinc.org",
                "display": "Laboratory studies (set)"
              }
            ]
          }
        ],
        "specimen": [
          {
            "reference": "urn:uuid:00ee43be-0a38-46bf-b3c8-d316b93b9ef5"
          },
          {
            "reference": "urn:uuid:bd7b4722-60d4-498d-867c-ec978448f737"
          },
          {
            "reference": "urn:uuid:1b38cc4c-1287-4776-b673-974ae321553c"
          }
        ],
        "result": [
          {
            "reference": "urn:uuid:98fee498-ca88-4847-9ff6-d067a16f73ab"
          },
          {
            "reference": "urn:uuid:975d6232-cfe0-47e1-833d-5079fc8b7b13"
          },
          {
            "reference": "urn:uuid:ac5a787f-36c1-4e6f-af82-869092d3051b"
          },
          {
            "reference": "urn:uuid:4e85300e-aa74-4666-a693-12f1c534ecef"
          },
          {
            "reference": "urn:uuid:09d4416d-6a8a-4601-b4e3-3878cd002023"
          },
          {
            "reference": "urn:uuid:88d765e1-6488-4d33-9969-d5bd3e97fdcf"
          },
          {
            "reference": "urn:uuid:325f78ab-f1f2-418f-bc80-9f292bab57b3"
          },
          {
            "reference": "urn:uuid:b12641b4-a198-422d-88bf-6d36899e7174"
          },
          {
            "reference": "urn:uuid:169995de-c6b9-4c49-b84b-cb4170b53fd7"
          },
          {
            "reference": "urn:uuid:5fdb7edd-8de1-482e-9317-13c4d76dfed3"
          },
          {
            "reference": "urn:uuid:4006ef1a-6705-4de7-84ee-da55f6a73d37"
          },
          {
            "reference": "urn:uuid:1b6a177c-6f80-416e-b617-465782434d4e"
          },
          {
            "reference": "urn:uuid:e3d8c3ef-25fc-48e2-a168-9c61d3fc404f"
          },
          {
            "reference": "urn:uuid:1808f010-c2c8-493a-9ada-d3cea5395b9b"
          },
          {
            "reference": "urn:uuid:37b0d39c-2d7f-4d59-874b-bbb2dba2b678"
          },
          {
            "reference": "urn:uuid:7d5f4342-fa9c-4615-b1fd-ab6ac666d5f3"
          },
          {
            "reference": "urn:uuid:c39d147f-62be-4ed5-a94d-5a39116778c1"
          },
          {
            "reference": "urn:uuid:fbb0adc8-455d-465c-b296-fca7be89ec91"
          },
          {
            "reference": "urn:uuid:5d8ae466-5e40-4a71-b566-60fa71031bf9"
          },
          {
            "reference": "urn:uuid:f2e7acec-d561-4965-a19a-c348405f0242"
          },
          {
            "reference": "urn:uuid:5ef84ac4-346a-4213-9c51-403dd5064018"
          },
          {
            "reference": "urn:uuid:05b3fe83-87a2-4eaa-a366-66f34d7594a3"
          },
          {
            "reference": "urn:uuid:f594fd2c-6233-46d4-a16c-3aa24fbc2c5e"
          },
          {
            "reference": "urn:uuid:f1fb6332-da9d-4b6b-8f6d-d919334d9a4c"
          },
          {
            "reference": "urn:uuid:945dc31a-0404-4ded-8479-9ed627e2c431"
          },
          {
            "reference": "urn:uuid:be9a2da8-a0a7-43d9-925e-4d0185fd7a10"
          },
          {
            "reference": "urn:uuid:2defff0c-5784-4d46-acd0-610ce304f7c8"
          },
          {
            "reference": "urn:uuid:c5b9a406-bc98-4cdb-8d03-078c2faed447"
          },
          {
            "reference": "urn:uuid:e45e3f35-b5ba-4ad1-be7a-62a86b4a327e"
          },
          {
            "reference": "urn:uuid:b92d3d7a-806e-41be-ad8b-6b0490416b51"
          },
          {
            "reference": "urn:uuid:025ffd3a-9e93-451f-9fff-0337f057a5f8"
          },
          {
            "reference": "urn:uuid:f6955337-b1d4-49a9-82d6-ce35c7e1c50b"
          },
          {
            "reference": "urn:uuid:93dcd348-72b4-4389-8948-eb4e63764a0c"
          },
          {
            "reference": "urn:uuid:0f72bcd9-0f16-4b85-ad5f-c5a435dd3c01"
          }
        ],
        "status": "registered",
        "code": {
          "coding": [
            {
              "code": "11502-2",
              "system": "http://loinc.org",
              "display": "Laboratory report"
            }
          ]
        },
        "subject": {
          "reference": "urn:uuid:c82fd36a-3c52-40d3-9c67-d7dcb93822ed",
          "display": "Victor Lagarde"
        }
      }
    },
    {
      "fullUrl": "urn:uuid:c82fd36a-3c52-40d3-9c67-d7dcb93822ed",
      "resource": {
        "resourceType": "Patient",
        "id": "c82fd36a-3c52-40d3-9c67-d7dcb93822ed",
        "meta": {
          "security": [
            {
              "system": "http://terminology.hl7.org/CodeSystem/v3-ActReason",
              "code": "HTEST"
            },
            {
              "system": "http://terminology.hl7.org/CodeSystem/v3-ActReason",
              "code": "TRAIN"
            }
          ],
          "tag": [
            {
              "system": "https://synderai.net/fhir/CodeSystem/tags",
              "code": "synthetic",
              "display": "SYNDERAI Synthetic data"
            }
          ],
          "profile": [
            "http://hl7.eu/fhir/base/StructureDefinition/patient-eu-core"
          ]
        },
        "identifier": [
          {
            "type": {
              "coding": [
                {
                  "code": "PT",
                  "system": "http://terminology.hl7.org/CodeSystem/v2-0203"
                }
              ]
            },
            "system": "http://ec.europa.eu/identifier/eci",
            "value": "9925-001801-9"
          },
          {
            "type": {
              "coding": [
                {
                  "code": "MR",
                  "system": "http://terminology.hl7.org/CodeSystem/v2-0203"
                }
              ]
            },
            "system": "http://local.setting.eu/identifier",
            "value": "22c2dfd0-ac57-8833-2532-848f180896a4"
          }
        ],
        "name": [
          {
            "family": "Lagarde"
          },
          {
            "given": [
              "Victor"
            ]
          },
          {
            "text": "Victor Lagarde"
          }
        ],
        "address": [
          {
            "line": [
              "avenue Robert"
            ],
            "use": "home",
            "type": "physical",
            "postalCode": "80300",
            "city": "Albert",
            "country": "France"
          }
        ],
        "telecom": [
          {
            "system": "phone",
            "value": "0177941801"
          }
        ],
        "extension": [
          {
            "url": "http://hl7.org/fhir/StructureDefinition/patient-nationality",
            "valueCodeableConcept": {
              "coding": [
                {
                  "code": "FR",
                  "system": "http://hl7.org/fhir/ValueSet/country"
                }
              ]
            }
          }
        ],
        "text": {
          "status": "generated",
          "div": "<div xmlns=\"http://www.w3.org/1999/xhtml\"><table class=\"hl7__ips\"><tr><td>Victor Lagarde</td><td>male</td><td>31-Aug-1939</td></tr></table></div>"
        },
        "gender": "male",
        "birthDate": "1939-08-31"
      }
    },
    {
      "fullUrl": "urn:uuid:d72ec8ed-52f8-43d2-a068-13f03609feb5",
      "resource": {
        "resourceType": "ServiceRequest",
        "id": "d72ec8ed-52f8-43d2-a068-13f03609feb5",
        "meta": {
          "profile": [
            "http://hl7.eu/fhir/laboratory/StructureDefinition/ServiceRequest-eu-lab"
          ]
        },
        "identifier": [
          {
            "system": "http://example.org",
            "value": "0b88753b-7133-4583-b6c0-5d5aaab562af"
          }
        ],
        "specimen": [
          {
            "reference": "urn:uuid:00ee43be-0a38-46bf-b3c8-d316b93b9ef5"
          },
          {
            "reference": "urn:uuid:bd7b4722-60d4-498d-867c-ec978448f737"
          },
          {
            "reference": "urn:uuid:1b38cc4c-1287-4776-b673-974ae321553c"
          }
        ],
        "reasonCode": [
          {
            "coding": [
              {
                "code": "433144002",
                "system": "http://snomed.info/sct",
                "display": "Chronic kidney disease stage 3"
              }
            ]
          },
          {
            "coding": [
              {
                "code": "157141000119108",
                "system": "http://snomed.info/sct",
                "display": "Proteinuria due to type 2 diabetes mellitus"
              }
            ]
          },
          {
            "coding": [
              {
                "code": "431856006",
                "system": "http://snomed.info/sct",
                "display": "Chronic kidney disease stage 2"
              }
            ]
          },
          {
            "coding": [
              {
                "code": "90781000119102",
                "system": "http://snomed.info/sct",
                "display": "Microalbuminuria due to type 2 diabetes mellitus"
              }
            ]
          },
          {
            "coding": [
              {
                "code": "127013003",
                "system": "http://snomed.info/sct",
                "display": "Disorder of kidney due to diabetes mellitus"
              }
            ]
          },
          {
            "coding": [
              {
                "code": "431855005",
                "system": "http://snomed.info/sct",
                "display": "Chronic kidney disease stage 1"
              }
            ]
          },
          {
            "coding": [
              {
                "code": "55822004",
                "system": "http://snomed.info/sct",
                "display": "Hyperlipidemia"
              }
            ]
          },
          {
            "coding": [
              {
                "code": "59621000",
                "system": "http://snomed.info/sct",
                "display": "Essential hypertension"
              }
            ]
          },
          {
            "coding": [
              {
                "code": "237602007",
                "system": "http://snomed.info/sct",
                "display": "Metabolic syndrome X"
              }
            ]
          },
          {
            "coding": [
              {
                "code": "414545008",
                "system": "http://snomed.info/sct",
                "display": "Ischemic heart disease"
              }
            ]
          },
          {
            "coding": [
              {
                "code": "40055000",
                "system": "http://snomed.info/sct",
                "display": "Chronic sinusitis"
              }
            ]
          },
          {
            "coding": [
              {
                "code": "15777000",
                "system": "http://snomed.info/sct",
                "display": "Prediabetes"
              }
            ]
          },
          {
            "coding": [
              {
                "code": "271737000",
                "system": "http://snomed.info/sct",
                "display": "Anemia"
              }
            ]
          }
        ],
        "status": "active",
        "intent": "order",
        "code": {
          "coding": [
            {
              "code": "108252007",
              "system": "http://snomed.info/sct",
              "display": "Laboratory procedure"
            }
          ]
        },
        "subject": {
          "reference": "urn:uuid:c82fd36a-3c52-40d3-9c67-d7dcb93822ed",
          "display": "Victor Lagarde"
        },
        "requester": {
          "reference": "urn:uuid:9062f991-45fe-4963-81f1-0eda7b3b9d1d"
        }
      }
    },
    {
      "fullUrl": "urn:uuid:9062f991-45fe-4963-81f1-0eda7b3b9d1d",
      "resource": {
        "resourceType": "PractitionerRole",
        "id": "9062f991-45fe-4963-81f1-0eda7b3b9d1d",
        "meta": {
          "profile": [
            "http://hl7.eu/fhir/base/StructureDefinition/practitionerRole-eu"
          ]
        },
        "text": {
          "status": "generated",
          "div": "<div xmlns=\"http://www.w3.org/1999/xhtml\">Provider Role Id: 9062f991-45fe-4963-81f1-0eda7b3b9d1d</div>"
        },
        "organization": {
          "reference": "urn:uuid:77876625-be7c-4671-b5c3-071477343c26"
        }
      }
    },
    {
      "fullUrl": "urn:uuid:77876625-be7c-4671-b5c3-071477343c26",
      "resource": {
        "resourceType": "Organization",
        "id": "77876625-be7c-4671-b5c3-071477343c26",
        "meta": {
          "profile": [
            "http://hl7.eu/fhir/base/StructureDefinition/organization-eu"
          ]
        },
        "identifier": [
          {
            "assigner": {
              "display": "HL7 Europe"
            },
            "system": "urn:oid:2.16.840.1.113883.2.51.999",
            "value": "2814840b-84ab-4e8f-bd0b-8a0b1e80203d"
          }
        ],
        "address": [
          {
            "city": "Auxerre",
            "postalCode": "89000",
            "country": "France"
          }
        ],
        "text": {
          "status": "generated",
          "div": "<div xmlns=\"http://www.w3.org/1999/xhtml\">Provider Organization: Thiriot Didier (Cardiologie)</div>"
        },
        "name": "Thiriot Didier (Cardiologie)"
      }
    },
    {
      "fullUrl": "urn:uuid:00ee43be-0a38-46bf-b3c8-d316b93b9ef5",
      "resource": {
        "resourceType": "Specimen",
        "id": "00ee43be-0a38-46bf-b3c8-d316b93b9ef5",
        "meta": {
          "profile": [
            "http://hl7.eu/fhir/laboratory/StructureDefinition/Specimen-eu-lab"
          ]
        },
        "collection": {
          "collectedDateTime": "2023-05-26"
        },
        "text": {
          "status": "generated",
          "div": "<div xmlns=\"http://www.w3.org/1999/xhtml\"><table class=\"hl7__eu__lab__report\"><tr><th>Specimen</th><th>Collection Date</th></tr><tr><td>Acellular blood (serum or plasma) specimen</td><td><span class=\"nb\">26-May-2023</span></td></tr></table></div>"
        },
        "type": {
          "coding": [
            {
              "code": "122592007",
              "system": "http://snomed.info/sct",
              "display": "Acellular blood (serum or plasma) specimen"
            }
          ]
        }
      }
    },
    {
      "fullUrl": "urn:uuid:bd7b4722-60d4-498d-867c-ec978448f737",
      "resource": {
        "resourceType": "Specimen",
        "id": "bd7b4722-60d4-498d-867c-ec978448f737",
        "meta": {
          "profile": [
            "http://hl7.eu/fhir/laboratory/StructureDefinition/Specimen-eu-lab"
          ]
        },
        "collection": {
          "collectedDateTime": "2023-05-26"
        },
        "text": {
          "status": "generated",
          "div": "<div xmlns=\"http://www.w3.org/1999/xhtml\"><table class=\"hl7__eu__lab__report\"><tr><th>Specimen</th><th>Collection Date</th></tr><tr><td>Urine specimen</td><td><span class=\"nb\">26-May-2023</span></td></tr></table></div>"
        },
        "type": {
          "coding": [
            {
              "code": "122575003",
              "system": "http://snomed.info/sct",
              "display": "Urine specimen"
            }
          ]
        }
      }
    },
    {
      "fullUrl": "urn:uuid:1b38cc4c-1287-4776-b673-974ae321553c",
      "resource": {
        "resourceType": "Specimen",
        "id": "1b38cc4c-1287-4776-b673-974ae321553c",
        "meta": {
          "profile": [
            "http://hl7.eu/fhir/laboratory/StructureDefinition/Specimen-eu-lab"
          ]
        },
        "collection": {
          "collectedDateTime": "2023-05-26"
        },
        "text": {
          "status": "generated",
          "div": "<div xmlns=\"http://www.w3.org/1999/xhtml\"><table class=\"hl7__eu__lab__report\"><tr><th>Specimen</th><th>Collection Date</th></tr><tr><td>Whole blood specimen (specimen)</td><td><span class=\"nb\">26-May-2023</span></td></tr></table></div>"
        },
        "type": {
          "coding": [
            {
              "code": "258580003",
              "system": "http://snomed.info/sct",
              "display": "Whole blood specimen (specimen)"
            }
          ]
        }
      }
    },
    {
      "fullUrl": "urn:uuid:98fee498-ca88-4847-9ff6-d067a16f73ab",
      "resource": {
        "resourceType": "Observation",
        "id": "98fee498-ca88-4847-9ff6-d067a16f73ab",
        "meta": {
          "profile": [
            "http://hl7.eu/fhir/laboratory/StructureDefinition/Observation-resultslab-eu-lab"
          ]
        },
        "performer": [
          {
            "display": "The Central European Lab"
          }
        ],
        "category": [
          {
            "coding": [
              {
                "system": "http://terminology.hl7.org/CodeSystem/observation-category",
                "code": "laboratory"
              }
            ]
          }
        ],
        "code": {
          "coding": [
            {
              "code": "2345-7",
              "system": "http://loinc.org",
              "display": "Glucose [Mass/volume] in Serum or Plasma"
            }
          ],
          "text": "Glucose [Mass/volume] in Serum or Plasma"
        },
        "valueQuantity": {
          "system": "http://unitsofmeasure.org",
          "value": 94.2,
          "unit": "mg/dL",
          "code": "mg/dL"
        },
        "referenceRange": [
          {
            "low": {
              "value": 70,
              "code": "mg/dL",
              "system": "http://unitsofmeasure.org"
            }
          },
          {
            "high": {
              "value": 140,
              "code": "mg/dL",
              "system": "http://unitsofmeasure.org"
            }
          }
        ],
        "text": {
          "status": "generated",
          "div": "<div xmlns=\"http://www.w3.org/1999/xhtml\"><table class=\"hl7__eu__lab__report\"><tr><th>Test</th><th>26-May-2023</th><th>Reference&#xA0;Range</th><th>Unit</th></tr><tr><td>Glucose [Mass/volume] in Serum or Plasma</td><td>94.2</td><td>70 - 140</td><td></td><td>mg/dL</td></tr></table></div>"
        },
        "status": "final",
        "subject": {
          "reference": "urn:uuid:c82fd36a-3c52-40d3-9c67-d7dcb93822ed",
          "display": "Victor Lagarde"
        },
        "effectiveDateTime": "2023-05-26T04:48:18Z",
        "specimen": {
          "reference": "urn:uuid:00ee43be-0a38-46bf-b3c8-d316b93b9ef5"
        }
      }
    },
    {
      "fullUrl": "urn:uuid:975d6232-cfe0-47e1-833d-5079fc8b7b13",
      "resource": {
        "resourceType": "Observation",
        "id": "975d6232-cfe0-47e1-833d-5079fc8b7b13",
        "meta": {
          "profile": [
            "http://hl7.eu/fhir/laboratory/StructureDefinition/Observation-resultslab-eu-lab"
          ]
        },
        "performer": [
          {
            "display": "The Central European Lab"
          }
        ],
        "category": [
          {
            "coding": [
              {
                "system": "http://terminology.hl7.org/CodeSystem/observation-category",
                "code": "laboratory"
              }
            ]
          }
        ],
        "code": {
          "coding": [
            {
              "code": "3094-0",
              "system": "http://loinc.org",
              "display": "Urea nitrogen [Mass/volume] in Serum or Plasma"
            }
          ],
          "text": "Urea nitrogen [Mass/volume] in Serum or Plasma"
        },
        "valueQuantity": {
          "system": "http://unitsofmeasure.org",
          "value": 17.6,
          "unit": "mg/dL",
          "code": "mg/dL"
        },
        "referenceRange": [
          {
            "low": {
              "value": 7,
              "code": "mg/dL",
              "system": "http://unitsofmeasure.org"
            }
          },
          {
            "high": {
              "value": 20,
              "code": "mg/dL",
              "system": "http://unitsofmeasure.org"
            }
          }
        ],
        "text": {
          "status": "generated",
          "div": "<div xmlns=\"http://www.w3.org/1999/xhtml\"><table class=\"hl7__eu__lab__report\"><tr><th>Test</th><th>26-May-2023</th><th>Reference&#xA0;Range</th><th>Unit</th></tr><tr><td>Urea nitrogen [Mass/volume] in Serum or Plasma</td><td>17.6</td><td>7 - 20</td><td></td><td>mg/dL</td></tr></table></div>"
        },
        "status": "final",
        "subject": {
          "reference": "urn:uuid:c82fd36a-3c52-40d3-9c67-d7dcb93822ed",
          "display": "Victor Lagarde"
        },
        "effectiveDateTime": "2023-05-26T04:48:18Z",
        "specimen": {
          "reference": "urn:uuid:00ee43be-0a38-46bf-b3c8-d316b93b9ef5"
        }
      }
    },
    {
      "fullUrl": "urn:uuid:ac5a787f-36c1-4e6f-af82-869092d3051b",
      "resource": {
        "resourceType": "Observation",
        "id": "ac5a787f-36c1-4e6f-af82-869092d3051b",
        "meta": {
          "profile": [
            "http://hl7.eu/fhir/laboratory/StructureDefinition/Observation-resultslab-eu-lab"
          ]
        },
        "performer": [
          {
            "display": "The Central European Lab"
          }
        ],
        "category": [
          {
            "coding": [
              {
                "system": "http://terminology.hl7.org/CodeSystem/observation-category",
                "code": "laboratory"
              }
            ]
          }
        ],
        "code": {
          "coding": [
            {
              "code": "2160-0",
              "system": "http://loinc.org",
              "display": "Creatinine [Mass/volume] in Serum or Plasma"
            }
          ],
          "text": "Creatinine [Mass/volume] in Serum or Plasma"
        },
        "valueQuantity": {
          "system": "http://unitsofmeasure.org",
          "value": 2,
          "unit": "mg/dL",
          "code": "mg/dL"
        },
        "referenceRange": [
          {
            "low": {
              "value": 0.9,
              "code": "mg/dL",
              "system": "http://unitsofmeasure.org"
            }
          },
          {
            "high": {
              "value": 1.3,
              "code": "mg/dL",
              "system": "http://unitsofmeasure.org"
            }
          }
        ],
        "interpretation": [
          {
            "coding": [
              {
                "code": "H",
                "system": "http://terminology.hl7.org/CodeSystem/v3-ObservationInterpretation",
                "display": "High"
              }
            ]
          }
        ],
        "text": {
          "status": "generated",
          "div": "<div xmlns=\"http://www.w3.org/1999/xhtml\"><table class=\"hl7__eu__lab__report\"><tr><th>Test</th><th>26-May-2023</th><th>Reference&#xA0;Range</th><th>Unit</th></tr><tr><td>Creatinine [Mass/volume] in Serum or Plasma</td><td>2.0</td><td>0.9 - 1.3</td><td>H</td><td>mg/dL</td></tr></table></div>"
        },
        "status": "final",
        "subject": {
          "reference": "urn:uuid:c82fd36a-3c52-40d3-9c67-d7dcb93822ed",
          "display": "Victor Lagarde"
        },
        "effectiveDateTime": "2023-05-26T04:48:18Z",
        "specimen": {
          "reference": "urn:uuid:00ee43be-0a38-46bf-b3c8-d316b93b9ef5"
        }
      }
    },
    {
      "fullUrl": "urn:uuid:4e85300e-aa74-4666-a693-12f1c534ecef",
      "resource": {
        "resourceType": "Observation",
        "id": "4e85300e-aa74-4666-a693-12f1c534ecef",
        "meta": {
          "profile": [
            "http://hl7.eu/fhir/laboratory/StructureDefinition/Observation-resultslab-eu-lab"
          ]
        },
        "performer": [
          {
            "display": "The Central European Lab"
          }
        ],
        "category": [
          {
            "coding": [
              {
                "system": "http://terminology.hl7.org/CodeSystem/observation-category",
                "code": "laboratory"
              }
            ]
          }
        ],
        "code": {
          "coding": [
            {
              "code": "17861-6",
              "system": "http://loinc.org",
              "display": "Calcium [Mass/volume] in Serum or Plasma"
            }
          ],
          "text": "Calcium [Mass/volume] in Serum or Plasma"
        },
        "valueQuantity": {
          "system": "http://unitsofmeasure.org",
          "value": 8.8,
          "unit": "mg/dL",
          "code": "mg/dL"
        },
        "referenceRange": [
          {
            "low": {
              "value": 8.5,
              "code": "mg/dL",
              "system": "http://unitsofmeasure.org"
            }
          },
          {
            "high": {
              "value": 10.5,
              "code": "mg/dL",
              "system": "http://unitsofmeasure.org"
            }
          }
        ],
        "text": {
          "status": "generated",
          "div": "<div xmlns=\"http://www.w3.org/1999/xhtml\"><table class=\"hl7__eu__lab__report\"><tr><th>Test</th><th>26-May-2023</th><th>Reference&#xA0;Range</th><th>Unit</th></tr><tr><td>Calcium [Mass/volume] in Serum or Plasma</td><td>8.8</td><td>8.5 - 10.5</td><td></td><td>mg/dL</td></tr></table></div>"
        },
        "status": "final",
        "subject": {
          "reference": "urn:uuid:c82fd36a-3c52-40d3-9c67-d7dcb93822ed",
          "display": "Victor Lagarde"
        },
        "effectiveDateTime": "2023-05-26T04:48:18Z",
        "specimen": {
          "reference": "urn:uuid:00ee43be-0a38-46bf-b3c8-d316b93b9ef5"
        }
      }
    },
    {
      "fullUrl": "urn:uuid:09d4416d-6a8a-4601-b4e3-3878cd002023",
      "resource": {
        "resourceType": "Observation",
        "id": "09d4416d-6a8a-4601-b4e3-3878cd002023",
        "meta": {
          "profile": [
            "http://hl7.eu/fhir/laboratory/StructureDefinition/Observation-resultslab-eu-lab"
          ]
        },
        "performer": [
          {
            "display": "The Central European Lab"
          }
        ],
        "category": [
          {
            "coding": [
              {
                "system": "http://terminology.hl7.org/CodeSystem/observation-category",
                "code": "laboratory"
              }
            ]
          }
        ],
        "code": {
          "coding": [
            {
              "code": "2951-2",
              "system": "http://loinc.org",
              "display": "Sodium [Moles/volume] in Serum or Plasma"
            }
          ],
          "text": "Sodium [Moles/volume] in Serum or Plasma"
        },
        "valueQuantity": {
          "system": "http://unitsofmeasure.org",
          "value": 142.1,
          "unit": "mmol/L",
          "code": "mmol/L"
        },
        "referenceRange": [
          {
            "low": {
              "value": 135,
              "code": "mmol/L",
              "system": "http://unitsofmeasure.org"
            }
          },
          {
            "high": {
              "value": 145,
              "code": "mmol/L",
              "system": "http://unitsofmeasure.org"
            }
          }
        ],
        "text": {
          "status": "generated",
          "div": "<div xmlns=\"http://www.w3.org/1999/xhtml\"><table class=\"hl7__eu__lab__report\"><tr><th>Test</th><th>26-May-2023</th><th>Reference&#xA0;Range</th><th>Unit</th></tr><tr><td>Sodium [Moles/volume] in Serum or Plasma</td><td>142.1</td><td>135 - 145</td><td></td><td>mmol/L</td></tr></table></div>"
        },
        "status": "final",
        "subject": {
          "reference": "urn:uuid:c82fd36a-3c52-40d3-9c67-d7dcb93822ed",
          "display": "Victor Lagarde"
        },
        "effectiveDateTime": "2023-05-26T04:48:18Z",
        "specimen": {
          "reference": "urn:uuid:00ee43be-0a38-46bf-b3c8-d316b93b9ef5"
        }
      }
    },
    {
      "fullUrl": "urn:uuid:88d765e1-6488-4d33-9969-d5bd3e97fdcf",
      "resource": {
        "resourceType": "Observation",
        "id": "88d765e1-6488-4d33-9969-d5bd3e97fdcf",
        "meta": {
          "profile": [
            "http://hl7.eu/fhir/laboratory/StructureDefinition/Observation-resultslab-eu-lab"
          ]
        },
        "performer": [
          {
            "display": "The Central European Lab"
          }
        ],
        "category": [
          {
            "coding": [
              {
                "system": "http://terminology.hl7.org/CodeSystem/observation-category",
                "code": "laboratory"
              }
            ]
          }
        ],
        "code": {
          "coding": [
            {
              "code": "2823-3",
              "system": "http://loinc.org",
              "display": "Potassium [Moles/volume] in Serum or Plasma"
            }
          ],
          "text": "Potassium [Moles/volume] in Serum or Plasma"
        },
        "valueQuantity": {
          "system": "http://unitsofmeasure.org",
          "value": 4.6,
          "unit": "mmol/L",
          "code": "mmol/L"
        },
        "referenceRange": [
          {
            "low": {
              "value": 3.5,
              "code": "mmol/L",
              "system": "http://unitsofmeasure.org"
            }
          },
          {
            "high": {
              "value": 5.3,
              "code": "mmol/L",
              "system": "http://unitsofmeasure.org"
            }
          }
        ],
        "text": {
          "status": "generated",
          "div": "<div xmlns=\"http://www.w3.org/1999/xhtml\"><table class=\"hl7__eu__lab__report\"><tr><th>Test</th><th>26-May-2023</th><th>Reference&#xA0;Range</th><th>Unit</th></tr><tr><td>Potassium [Moles/volume] in Serum or Plasma</td><td>4.6</td><td>3.5 - 5.3</td><td></td><td>mmol/L</td></tr></table></div>"
        },
        "status": "final",
        "subject": {
          "reference": "urn:uuid:c82fd36a-3c52-40d3-9c67-d7dcb93822ed",
          "display": "Victor Lagarde"
        },
        "effectiveDateTime": "2023-05-26T04:48:18Z",
        "specimen": {
          "reference": "urn:uuid:00ee43be-0a38-46bf-b3c8-d316b93b9ef5"
        }
      }
    },
    {
      "fullUrl": "urn:uuid:325f78ab-f1f2-418f-bc80-9f292bab57b3",
      "resource": {
        "resourceType": "Observation",
        "id": "325f78ab-f1f2-418f-bc80-9f292bab57b3",
        "meta": {
          "profile": [
            "http://hl7.eu/fhir/laboratory/StructureDefinition/Observation-resultslab-eu-lab"
          ]
        },
        "performer": [
          {
            "display": "The Central European Lab"
          }
        ],
        "category": [
          {
            "coding": [
              {
                "system": "http://terminology.hl7.org/CodeSystem/observation-category",
                "code": "laboratory"
              }
            ]
          }
        ],
        "code": {
          "coding": [
            {
              "code": "2075-0",
              "system": "http://loinc.org",
              "display": "Chloride [Moles/volume] in Serum or Plasma"
            }
          ],
          "text": "Chloride [Moles/volume] in Serum or Plasma"
        },
        "valueQuantity": {
          "system": "http://unitsofmeasure.org",
          "value": 110.5,
          "unit": "mmol/L",
          "code": "mmol/L"
        },
        "referenceRange": [
          {
            "low": {
              "value": 98,
              "code": "mmol/L",
              "system": "http://unitsofmeasure.org"
            }
          },
          {
            "high": {
              "value": 107,
              "code": "mmol/L",
              "system": "http://unitsofmeasure.org"
            }
          }
        ],
        "interpretation": [
          {
            "coding": [
              {
                "code": "H",
                "system": "http://terminology.hl7.org/CodeSystem/v3-ObservationInterpretation",
                "display": "High"
              }
            ]
          }
        ],
        "text": {
          "status": "generated",
          "div": "<div xmlns=\"http://www.w3.org/1999/xhtml\"><table class=\"hl7__eu__lab__report\"><tr><th>Test</th><th>26-May-2023</th><th>Reference&#xA0;Range</th><th>Unit</th></tr><tr><td>Chloride [Moles/volume] in Serum or Plasma</td><td>110.5</td><td>98 - 107</td><td>H</td><td>mmol/L</td></tr></table></div>"
        },
        "status": "final",
        "subject": {
          "reference": "urn:uuid:c82fd36a-3c52-40d3-9c67-d7dcb93822ed",
          "display": "Victor Lagarde"
        },
        "effectiveDateTime": "2023-05-26T04:48:18Z",
        "specimen": {
          "reference": "urn:uuid:00ee43be-0a38-46bf-b3c8-d316b93b9ef5"
        }
      }
    },
    {
      "fullUrl": "urn:uuid:b12641b4-a198-422d-88bf-6d36899e7174",
      "resource": {
        "resourceType": "Observation",
        "id": "b12641b4-a198-422d-88bf-6d36899e7174",
        "meta": {
          "profile": [
            "http://hl7.eu/fhir/laboratory/StructureDefinition/Observation-resultslab-eu-lab"
          ]
        },
        "performer": [
          {
            "display": "The Central European Lab"
          }
        ],
        "category": [
          {
            "coding": [
              {
                "system": "http://terminology.hl7.org/CodeSystem/observation-category",
                "code": "laboratory"
              }
            ]
          }
        ],
        "code": {
          "coding": [
            {
              "code": "2028-9",
              "system": "http://loinc.org",
              "display": "Carbon dioxide, total [Moles/volume] in Serum or Plasma"
            }
          ],
          "text": "Carbon dioxide, total [Moles/volume] in Serum or Plasma"
        },
        "valueQuantity": {
          "system": "http://unitsofmeasure.org",
          "value": 26,
          "unit": "mmol/L",
          "code": "mmol/L"
        },
        "referenceRange": [
          {
            "low": {
              "value": 22,
              "code": "mmol/L",
              "system": "http://unitsofmeasure.org"
            }
          },
          {
            "high": {
              "value": 33,
              "code": "mmol/L",
              "system": "http://unitsofmeasure.org"
            }
          }
        ],
        "text": {
          "status": "generated",
          "div": "<div xmlns=\"http://www.w3.org/1999/xhtml\"><table class=\"hl7__eu__lab__report\"><tr><th>Test</th><th>26-May-2023</th><th>Reference&#xA0;Range</th><th>Unit</th></tr><tr><td>Carbon dioxide, total [Moles/volume] in Serum or Plasma</td><td>26.0</td><td>22 - 33</td><td></td><td>mmol/L</td></tr></table></div>"
        },
        "status": "final",
        "subject": {
          "reference": "urn:uuid:c82fd36a-3c52-40d3-9c67-d7dcb93822ed",
          "display": "Victor Lagarde"
        },
        "effectiveDateTime": "2023-05-26T04:48:18Z",
        "specimen": {
          "reference": "urn:uuid:00ee43be-0a38-46bf-b3c8-d316b93b9ef5"
        }
      }
    },
    {
      "fullUrl": "urn:uuid:169995de-c6b9-4c49-b84b-cb4170b53fd7",
      "resource": {
        "resourceType": "Observation",
        "id": "169995de-c6b9-4c49-b84b-cb4170b53fd7",
        "meta": {
          "profile": [
            "http://hl7.eu/fhir/laboratory/StructureDefinition/Observation-resultslab-eu-lab"
          ]
        },
        "performer": [
          {
            "display": "The Central European Lab"
          }
        ],
        "category": [
          {
            "coding": [
              {
                "system": "http://terminology.hl7.org/CodeSystem/observation-category",
                "code": "laboratory"
              }
            ]
          }
        ],
        "code": {
          "coding": [
            {
              "code": "5767-9",
              "system": "http://loinc.org",
              "display": "Appearance of Urine"
            }
          ],
          "text": "Appearance of Urine"
        },
        "text": {
          "status": "generated",
          "div": "<div xmlns=\"http://www.w3.org/1999/xhtml\"><table class=\"hl7__eu__lab__report\"><tr><th>Test</th><th>26-May-2023</th><th>Reference&#xA0;Range</th><th>Unit</th></tr><tr><td>Appearance of Urine</td></tr></table></div>"
        },
        "status": "final",
        "subject": {
          "reference": "urn:uuid:c82fd36a-3c52-40d3-9c67-d7dcb93822ed",
          "display": "Victor Lagarde"
        },
        "effectiveDateTime": "2023-05-26T04:48:18Z",
        "specimen": {
          "reference": "urn:uuid:bd7b4722-60d4-498d-867c-ec978448f737"
        }
      }
    },
    {
      "fullUrl": "urn:uuid:5fdb7edd-8de1-482e-9317-13c4d76dfed3",
      "resource": {
        "resourceType": "Observation",
        "id": "5fdb7edd-8de1-482e-9317-13c4d76dfed3",
        "meta": {
          "profile": [
            "http://hl7.eu/fhir/laboratory/StructureDefinition/Observation-resultslab-eu-lab"
          ]
        },
        "performer": [
          {
            "display": "The Central European Lab"
          }
        ],
        "category": [
          {
            "coding": [
              {
                "system": "http://terminology.hl7.org/CodeSystem/observation-category",
                "code": "laboratory"
              }
            ]
          }
        ],
        "code": {
          "coding": [
            {
              "code": "34533-0",
              "system": "http://loinc.org",
              "display": "Odor of Urine"
            }
          ],
          "text": "Odor of Urine"
        },
        "text": {
          "status": "generated",
          "div": "<div xmlns=\"http://www.w3.org/1999/xhtml\"><table class=\"hl7__eu__lab__report\"><tr><th>Test</th><th>26-May-2023</th><th>Reference&#xA0;Range</th><th>Unit</th></tr><tr><td>Odor of Urine</td></tr></table></div>"
        },
        "status": "final",
        "subject": {
          "reference": "urn:uuid:c82fd36a-3c52-40d3-9c67-d7dcb93822ed",
          "display": "Victor Lagarde"
        },
        "effectiveDateTime": "2023-05-26T04:48:18Z",
        "specimen": {
          "reference": "urn:uuid:bd7b4722-60d4-498d-867c-ec978448f737"
        }
      }
    },
    {
      "fullUrl": "urn:uuid:4006ef1a-6705-4de7-84ee-da55f6a73d37",
      "resource": {
        "resourceType": "Observation",
        "id": "4006ef1a-6705-4de7-84ee-da55f6a73d37",
        "meta": {
          "profile": [
            "http://hl7.eu/fhir/laboratory/StructureDefinition/Observation-resultslab-eu-lab"
          ]
        },
        "performer": [
          {
            "display": "The Central European Lab"
          }
        ],
        "category": [
          {
            "coding": [
              {
                "system": "http://terminology.hl7.org/CodeSystem/observation-category",
                "code": "laboratory"
              }
            ]
          }
        ],
        "code": {
          "coding": [
            {
              "code": "32167-9",
              "system": "http://loinc.org",
              "display": "Clarity of Urine"
            }
          ],
          "text": "Clarity of Urine"
        },
        "text": {
          "status": "generated",
          "div": "<div xmlns=\"http://www.w3.org/1999/xhtml\"><table class=\"hl7__eu__lab__report\"><tr><th>Test</th><th>26-May-2023</th><th>Reference&#xA0;Range</th><th>Unit</th></tr><tr><td>Clarity of Urine</td></tr></table></div>"
        },
        "status": "final",
        "subject": {
          "reference": "urn:uuid:c82fd36a-3c52-40d3-9c67-d7dcb93822ed",
          "display": "Victor Lagarde"
        },
        "effectiveDateTime": "2023-05-26T04:48:18Z",
        "specimen": {
          "reference": "urn:uuid:bd7b4722-60d4-498d-867c-ec978448f737"
        }
      }
    },
    {
      "fullUrl": "urn:uuid:1b6a177c-6f80-416e-b617-465782434d4e",
      "resource": {
        "resourceType": "Observation",
        "id": "1b6a177c-6f80-416e-b617-465782434d4e",
        "meta": {
          "profile": [
            "http://hl7.eu/fhir/laboratory/StructureDefinition/Observation-resultslab-eu-lab"
          ]
        },
        "performer": [
          {
            "display": "The Central European Lab"
          }
        ],
        "category": [
          {
            "coding": [
              {
                "system": "http://terminology.hl7.org/CodeSystem/observation-category",
                "code": "laboratory"
              }
            ]
          }
        ],
        "code": {
          "coding": [
            {
              "code": "5778-6",
              "system": "http://loinc.org",
              "display": "Color of Urine"
            }
          ],
          "text": "Color of Urine"
        },
        "text": {
          "status": "generated",
          "div": "<div xmlns=\"http://www.w3.org/1999/xhtml\"><table class=\"hl7__eu__lab__report\"><tr><th>Test</th><th>26-May-2023</th><th>Reference&#xA0;Range</th><th>Unit</th></tr><tr><td>Color of Urine</td></tr></table></div>"
        },
        "status": "final",
        "subject": {
          "reference": "urn:uuid:c82fd36a-3c52-40d3-9c67-d7dcb93822ed",
          "display": "Victor Lagarde"
        },
        "effectiveDateTime": "2023-05-26T04:48:18Z",
        "specimen": {
          "reference": "urn:uuid:bd7b4722-60d4-498d-867c-ec978448f737"
        }
      }
    },
    {
      "fullUrl": "urn:uuid:e3d8c3ef-25fc-48e2-a168-9c61d3fc404f",
      "resource": {
        "resourceType": "Observation",
        "id": "e3d8c3ef-25fc-48e2-a168-9c61d3fc404f",
        "meta": {
          "profile": [
            "http://hl7.eu/fhir/laboratory/StructureDefinition/Observation-resultslab-eu-lab"
          ]
        },
        "performer": [
          {
            "display": "The Central European Lab"
          }
        ],
        "category": [
          {
            "coding": [
              {
                "system": "http://terminology.hl7.org/CodeSystem/observation-category",
                "code": "laboratory"
              }
            ]
          }
        ],
        "code": {
          "coding": [
            {
              "code": "5792-7",
              "system": "http://loinc.org",
              "display": "Glucose [Mass/volume] in Urine by Test strip"
            }
          ],
          "text": "Glucose [Mass/volume] in Urine by Test strip"
        },
        "valueQuantity": {
          "system": "http://unitsofmeasure.org",
          "value": 1.2,
          "unit": "mg/dL",
          "code": "mg/dL"
        },
        "referenceRange": [
          {
            "low": {
              "value": 0,
              "code": "mg/dL",
              "system": "http://unitsofmeasure.org"
            }
          },
          {
            "high": {
              "value": 0.8,
              "code": "mg/dL",
              "system": "http://unitsofmeasure.org"
            }
          }
        ],
        "interpretation": [
          {
            "coding": [
              {
                "code": "H",
                "system": "http://terminology.hl7.org/CodeSystem/v3-ObservationInterpretation",
                "display": "High"
              }
            ]
          }
        ],
        "text": {
          "status": "generated",
          "div": "<div xmlns=\"http://www.w3.org/1999/xhtml\"><table class=\"hl7__eu__lab__report\"><tr><th>Test</th><th>26-May-2023</th><th>Reference&#xA0;Range</th><th>Unit</th></tr><tr><td>Glucose [Mass/volume] in Urine by Test strip</td><td>1.2</td><td>0 - 0.8</td><td>H</td><td>mg/dL</td></tr></table></div>"
        },
        "status": "final",
        "subject": {
          "reference": "urn:uuid:c82fd36a-3c52-40d3-9c67-d7dcb93822ed",
          "display": "Victor Lagarde"
        },
        "effectiveDateTime": "2023-05-26T04:48:18Z",
        "specimen": {
          "reference": "urn:uuid:bd7b4722-60d4-498d-867c-ec978448f737"
        }
      }
    },
    {
      "fullUrl": "urn:uuid:1808f010-c2c8-493a-9ada-d3cea5395b9b",
      "resource": {
        "resourceType": "Observation",
        "id": "1808f010-c2c8-493a-9ada-d3cea5395b9b",
        "meta": {
          "profile": [
            "http://hl7.eu/fhir/laboratory/StructureDefinition/Observation-resultslab-eu-lab"
          ]
        },
        "performer": [
          {
            "display": "The Central European Lab"
          }
        ],
        "category": [
          {
            "coding": [
              {
                "system": "http://terminology.hl7.org/CodeSystem/observation-category",
                "code": "laboratory"
              }
            ]
          }
        ],
        "code": {
          "coding": [
            {
              "code": "25428-4",
              "system": "http://loinc.org",
              "display": "Glucose [Presence] in Urine by Test strip"
            }
          ],
          "text": "Glucose [Presence] in Urine by Test strip"
        },
        "text": {
          "status": "generated",
          "div": "<div xmlns=\"http://www.w3.org/1999/xhtml\"><table class=\"hl7__eu__lab__report\"><tr><th>Test</th><th>26-May-2023</th><th>Reference&#xA0;Range</th><th>Unit</th></tr><tr><td>Glucose [Presence] in Urine by Test strip</td></tr></table></div>"
        },
        "status": "final",
        "subject": {
          "reference": "urn:uuid:c82fd36a-3c52-40d3-9c67-d7dcb93822ed",
          "display": "Victor Lagarde"
        },
        "effectiveDateTime": "2023-05-26T04:48:18Z",
        "specimen": {
          "reference": "urn:uuid:bd7b4722-60d4-498d-867c-ec978448f737"
        }
      }
    },
    {
      "fullUrl": "urn:uuid:37b0d39c-2d7f-4d59-874b-bbb2dba2b678",
      "resource": {
        "resourceType": "Observation",
        "id": "37b0d39c-2d7f-4d59-874b-bbb2dba2b678",
        "meta": {
          "profile": [
            "http://hl7.eu/fhir/laboratory/StructureDefinition/Observation-resultslab-eu-lab"
          ]
        },
        "performer": [
          {
            "display": "The Central European Lab"
          }
        ],
        "category": [
          {
            "coding": [
              {
                "system": "http://terminology.hl7.org/CodeSystem/observation-category",
                "code": "laboratory"
              }
            ]
          }
        ],
        "code": {
          "coding": [
            {
              "code": "20505-4",
              "system": "http://loinc.org",
              "display": "Bilirubin.total [Mass/volume] in Urine by Test strip"
            }
          ],
          "text": "Bilirubin.total [Mass/volume] in Urine by Test strip"
        },
        "valueQuantity": {
          "system": "http://unitsofmeasure.org",
          "value": 0.8,
          "unit": "mg/dL",
          "code": "mg/dL"
        },
        "referenceRange": [
          {
            "low": {
              "value": 0,
              "code": "mg/dL",
              "system": "http://unitsofmeasure.org"
            }
          },
          {
            "high": {
              "value": 1.9,
              "code": "mg/dL",
              "system": "http://unitsofmeasure.org"
            }
          }
        ],
        "text": {
          "status": "generated",
          "div": "<div xmlns=\"http://www.w3.org/1999/xhtml\"><table class=\"hl7__eu__lab__report\"><tr><th>Test</th><th>26-May-2023</th><th>Reference&#xA0;Range</th><th>Unit</th></tr><tr><td>Bilirubin.total [Mass/volume] in Urine by Test strip</td><td>0.8</td><td>0 - 1.9</td><td></td><td>mg/dL</td></tr></table></div>"
        },
        "status": "final",
        "subject": {
          "reference": "urn:uuid:c82fd36a-3c52-40d3-9c67-d7dcb93822ed",
          "display": "Victor Lagarde"
        },
        "effectiveDateTime": "2023-05-26T04:48:18Z",
        "specimen": {
          "reference": "urn:uuid:bd7b4722-60d4-498d-867c-ec978448f737"
        }
      }
    },
    {
      "fullUrl": "urn:uuid:7d5f4342-fa9c-4615-b1fd-ab6ac666d5f3",
      "resource": {
        "resourceType": "Observation",
        "id": "7d5f4342-fa9c-4615-b1fd-ab6ac666d5f3",
        "meta": {
          "profile": [
            "http://hl7.eu/fhir/laboratory/StructureDefinition/Observation-resultslab-eu-lab"
          ]
        },
        "performer": [
          {
            "display": "The Central European Lab"
          }
        ],
        "category": [
          {
            "coding": [
              {
                "system": "http://terminology.hl7.org/CodeSystem/observation-category",
                "code": "laboratory"
              }
            ]
          }
        ],
        "code": {
          "coding": [
            {
              "code": "5770-3",
              "system": "http://loinc.org",
              "display": "Bilirubin.total [Presence] in Urine by Test strip"
            }
          ],
          "text": "Bilirubin.total [Presence] in Urine by Test strip"
        },
        "text": {
          "status": "generated",
          "div": "<div xmlns=\"http://www.w3.org/1999/xhtml\"><table class=\"hl7__eu__lab__report\"><tr><th>Test</th><th>26-May-2023</th><th>Reference&#xA0;Range</th><th>Unit</th></tr><tr><td>Bilirubin.total [Presence] in Urine by Test strip</td></tr></table></div>"
        },
        "status": "final",
        "subject": {
          "reference": "urn:uuid:c82fd36a-3c52-40d3-9c67-d7dcb93822ed",
          "display": "Victor Lagarde"
        },
        "effectiveDateTime": "2023-05-26T04:48:18Z",
        "specimen": {
          "reference": "urn:uuid:bd7b4722-60d4-498d-867c-ec978448f737"
        }
      }
    },
    {
      "fullUrl": "urn:uuid:c39d147f-62be-4ed5-a94d-5a39116778c1",
      "resource": {
        "resourceType": "Observation",
        "id": "c39d147f-62be-4ed5-a94d-5a39116778c1",
        "meta": {
          "profile": [
            "http://hl7.eu/fhir/laboratory/StructureDefinition/Observation-resultslab-eu-lab"
          ]
        },
        "performer": [
          {
            "display": "The Central European Lab"
          }
        ],
        "category": [
          {
            "coding": [
              {
                "system": "http://terminology.hl7.org/CodeSystem/observation-category",
                "code": "laboratory"
              }
            ]
          }
        ],
        "code": {
          "coding": [
            {
              "code": "5797-6",
              "system": "http://loinc.org",
              "display": "Ketones [Mass/volume] in Urine by Test strip"
            }
          ],
          "text": "Ketones [Mass/volume] in Urine by Test strip"
        },
        "valueQuantity": {
          "system": "http://unitsofmeasure.org",
          "value": 11.5,
          "unit": "mg/dL",
          "code": "mg/dL"
        },
        "referenceRange": [
          {
            "low": {
              "value": 0,
              "code": "mg/dL",
              "system": "http://unitsofmeasure.org"
            }
          },
          {
            "high": {
              "value": 3,
              "code": "mg/dL",
              "system": "http://unitsofmeasure.org"
            }
          }
        ],
        "interpretation": [
          {
            "coding": [
              {
                "code": "H",
                "system": "http://terminology.hl7.org/CodeSystem/v3-ObservationInterpretation",
                "display": "High"
              }
            ]
          }
        ],
        "text": {
          "status": "generated",
          "div": "<div xmlns=\"http://www.w3.org/1999/xhtml\"><table class=\"hl7__eu__lab__report\"><tr><th>Test</th><th>26-May-2023</th><th>Reference&#xA0;Range</th><th>Unit</th></tr><tr><td>Ketones [Mass/volume] in Urine by Test strip</td><td>11.5</td><td>0 - 3</td><td>H</td><td>mg/dL</td></tr></table></div>"
        },
        "status": "final",
        "subject": {
          "reference": "urn:uuid:c82fd36a-3c52-40d3-9c67-d7dcb93822ed",
          "display": "Victor Lagarde"
        },
        "effectiveDateTime": "2023-05-26T04:48:18Z",
        "specimen": {
          "reference": "urn:uuid:bd7b4722-60d4-498d-867c-ec978448f737"
        }
      }
    },
    {
      "fullUrl": "urn:uuid:fbb0adc8-455d-465c-b296-fca7be89ec91",
      "resource": {
        "resourceType": "Observation",
        "id": "fbb0adc8-455d-465c-b296-fca7be89ec91",
        "meta": {
          "profile": [
            "http://hl7.eu/fhir/laboratory/StructureDefinition/Observation-resultslab-eu-lab"
          ]
        },
        "performer": [
          {
            "display": "The Central European Lab"
          }
        ],
        "category": [
          {
            "coding": [
              {
                "system": "http://terminology.hl7.org/CodeSystem/observation-category",
                "code": "laboratory"
              }
            ]
          }
        ],
        "code": {
          "coding": [
            {
              "code": "2514-8",
              "system": "http://loinc.org",
              "display": "Ketones [Presence] in Urine by Test strip"
            }
          ],
          "text": "Ketones [Presence] in Urine by Test strip"
        },
        "text": {
          "status": "generated",
          "div": "<div xmlns=\"http://www.w3.org/1999/xhtml\"><table class=\"hl7__eu__lab__report\"><tr><th>Test</th><th>26-May-2023</th><th>Reference&#xA0;Range</th><th>Unit</th></tr><tr><td>Ketones [Presence] in Urine by Test strip</td></tr></table></div>"
        },
        "status": "final",
        "subject": {
          "reference": "urn:uuid:c82fd36a-3c52-40d3-9c67-d7dcb93822ed",
          "display": "Victor Lagarde"
        },
        "effectiveDateTime": "2023-05-26T04:48:18Z",
        "specimen": {
          "reference": "urn:uuid:bd7b4722-60d4-498d-867c-ec978448f737"
        }
      }
    },
    {
      "fullUrl": "urn:uuid:5d8ae466-5e40-4a71-b566-60fa71031bf9",
      "resource": {
        "resourceType": "Observation",
        "id": "5d8ae466-5e40-4a71-b566-60fa71031bf9",
        "meta": {
          "profile": [
            "http://hl7.eu/fhir/laboratory/StructureDefinition/Observation-resultslab-eu-lab"
          ]
        },
        "performer": [
          {
            "display": "The Central European Lab"
          }
        ],
        "category": [
          {
            "coding": [
              {
                "system": "http://terminology.hl7.org/CodeSystem/observation-category",
                "code": "laboratory"
              }
            ]
          }
        ],
        "code": {
          "coding": [
            {
              "code": "5811-5",
              "system": "http://loinc.org",
              "display": "Specific gravity of Urine by Test strip"
            }
          ],
          "text": "Specific gravity of Urine by Test strip"
        },
        "valueQuantity": {
          "system": "http://unitsofmeasure.org",
          "value": 1,
          "unit": "{nominal}",
          "code": "{nominal}"
        },
        "referenceRange": [
          {
            "low": {
              "value": 1.01,
              "code": "g/mL",
              "system": "http://unitsofmeasure.org"
            }
          },
          {
            "high": {
              "value": 1.03,
              "code": "g/mL",
              "system": "http://unitsofmeasure.org"
            }
          }
        ],
        "interpretation": [
          {
            "coding": [
              {
                "code": "L",
                "system": "http://terminology.hl7.org/CodeSystem/v3-ObservationInterpretation",
                "display": "Low"
              }
            ]
          }
        ],
        "text": {
          "status": "generated",
          "div": "<div xmlns=\"http://www.w3.org/1999/xhtml\"><table class=\"hl7__eu__lab__report\"><tr><th>Test</th><th>26-May-2023</th><th>Reference&#xA0;Range</th><th>Unit</th></tr><tr><td>Specific gravity of Urine by Test strip</td><td>1.0</td><td>1.01 - 1.03</td><td>L</td><td>{nominal}</td></tr></table></div>"
        },
        "status": "final",
        "subject": {
          "reference": "urn:uuid:c82fd36a-3c52-40d3-9c67-d7dcb93822ed",
          "display": "Victor Lagarde"
        },
        "effectiveDateTime": "2023-05-26T04:48:18Z",
        "specimen": {
          "reference": "urn:uuid:bd7b4722-60d4-498d-867c-ec978448f737"
        }
      }
    },
    {
      "fullUrl": "urn:uuid:f2e7acec-d561-4965-a19a-c348405f0242",
      "resource": {
        "resourceType": "Observation",
        "id": "f2e7acec-d561-4965-a19a-c348405f0242",
        "meta": {
          "profile": [
            "http://hl7.eu/fhir/laboratory/StructureDefinition/Observation-resultslab-eu-lab"
          ]
        },
        "performer": [
          {
            "display": "The Central European Lab"
          }
        ],
        "category": [
          {
            "coding": [
              {
                "system": "http://terminology.hl7.org/CodeSystem/observation-category",
                "code": "laboratory"
              }
            ]
          }
        ],
        "code": {
          "coding": [
            {
              "code": "5803-2",
              "system": "http://loinc.org",
              "display": "pH of Urine by Test strip"
            }
          ],
          "text": "pH of Urine by Test strip"
        },
        "valueQuantity": {
          "system": "http://unitsofmeasure.org",
          "value": 6.3,
          "unit": "pH",
          "code": "pH"
        },
        "referenceRange": [
          {
            "low": {
              "value": 4.5,
              "code": "pH",
              "system": "http://unitsofmeasure.org"
            }
          },
          {
            "high": {
              "value": 7.5,
              "code": "pH",
              "system": "http://unitsofmeasure.org"
            }
          }
        ],
        "text": {
          "status": "generated",
          "div": "<div xmlns=\"http://www.w3.org/1999/xhtml\"><table class=\"hl7__eu__lab__report\"><tr><th>Test</th><th>26-May-2023</th><th>Reference&#xA0;Range</th><th>Unit</th></tr><tr><td>pH of Urine by Test strip</td><td>6.3</td><td>4.5 - 7.5</td><td></td><td>pH</td></tr></table></div>"
        },
        "status": "final",
        "subject": {
          "reference": "urn:uuid:c82fd36a-3c52-40d3-9c67-d7dcb93822ed",
          "display": "Victor Lagarde"
        },
        "effectiveDateTime": "2023-05-26T04:48:18Z",
        "specimen": {
          "reference": "urn:uuid:bd7b4722-60d4-498d-867c-ec978448f737"
        }
      }
    },
    {
      "fullUrl": "urn:uuid:5ef84ac4-346a-4213-9c51-403dd5064018",
      "resource": {
        "resourceType": "Observation",
        "id": "5ef84ac4-346a-4213-9c51-403dd5064018",
        "meta": {
          "profile": [
            "http://hl7.eu/fhir/laboratory/StructureDefinition/Observation-resultslab-eu-lab"
          ]
        },
        "performer": [
          {
            "display": "The Central European Lab"
          }
        ],
        "category": [
          {
            "coding": [
              {
                "system": "http://terminology.hl7.org/CodeSystem/observation-category",
                "code": "laboratory"
              }
            ]
          }
        ],
        "code": {
          "coding": [
            {
              "code": "5804-0",
              "system": "http://loinc.org",
              "display": "Protein [Mass/volume] in Urine by Test strip"
            }
          ],
          "text": "Protein [Mass/volume] in Urine by Test strip"
        },
        "valueQuantity": {
          "system": "http://unitsofmeasure.org",
          "value": 378,
          "unit": "mg/dL",
          "code": "mg/dL"
        },
        "referenceRange": [
          {
            "low": {
              "value": 0,
              "code": "mg/dL",
              "system": "http://unitsofmeasure.org"
            }
          },
          {
            "high": {
              "value": 149,
              "code": "mg/dL",
              "system": "http://unitsofmeasure.org"
            }
          }
        ],
        "interpretation": [
          {
            "coding": [
              {
                "code": "H",
                "system": "http://terminology.hl7.org/CodeSystem/v3-ObservationInterpretation",
                "display": "High"
              }
            ]
          }
        ],
        "text": {
          "status": "generated",
          "div": "<div xmlns=\"http://www.w3.org/1999/xhtml\"><table class=\"hl7__eu__lab__report\"><tr><th>Test</th><th>26-May-2023</th><th>Reference&#xA0;Range</th><th>Unit</th></tr><tr><td>Protein [Mass/volume] in Urine by Test strip</td><td>378.0</td><td>0 - 149</td><td>H</td><td>mg/dL</td></tr></table></div>"
        },
        "status": "final",
        "subject": {
          "reference": "urn:uuid:c82fd36a-3c52-40d3-9c67-d7dcb93822ed",
          "display": "Victor Lagarde"
        },
        "effectiveDateTime": "2023-05-26T04:48:18Z",
        "specimen": {
          "reference": "urn:uuid:bd7b4722-60d4-498d-867c-ec978448f737"
        }
      }
    },
    {
      "fullUrl": "urn:uuid:05b3fe83-87a2-4eaa-a366-66f34d7594a3",
      "resource": {
        "resourceType": "Observation",
        "id": "05b3fe83-87a2-4eaa-a366-66f34d7594a3",
        "meta": {
          "profile": [
            "http://hl7.eu/fhir/laboratory/StructureDefinition/Observation-resultslab-eu-lab"
          ]
        },
        "performer": [
          {
            "display": "The Central European Lab"
          }
        ],
        "category": [
          {
            "coding": [
              {
                "system": "http://terminology.hl7.org/CodeSystem/observation-category",
                "code": "laboratory"
              }
            ]
          }
        ],
        "code": {
          "coding": [
            {
              "code": "20454-5",
              "system": "http://loinc.org",
              "display": "Protein [Presence] in Urine by Test strip"
            }
          ],
          "text": "Protein [Presence] in Urine by Test strip"
        },
        "text": {
          "status": "generated",
          "div": "<div xmlns=\"http://www.w3.org/1999/xhtml\"><table class=\"hl7__eu__lab__report\"><tr><th>Test</th><th>26-May-2023</th><th>Reference&#xA0;Range</th><th>Unit</th></tr><tr><td>Protein [Presence] in Urine by Test strip</td></tr></table></div>"
        },
        "status": "final",
        "subject": {
          "reference": "urn:uuid:c82fd36a-3c52-40d3-9c67-d7dcb93822ed",
          "display": "Victor Lagarde"
        },
        "effectiveDateTime": "2023-05-26T04:48:18Z",
        "specimen": {
          "reference": "urn:uuid:bd7b4722-60d4-498d-867c-ec978448f737"
        }
      }
    },
    {
      "fullUrl": "urn:uuid:f594fd2c-6233-46d4-a16c-3aa24fbc2c5e",
      "resource": {
        "resourceType": "Observation",
        "id": "f594fd2c-6233-46d4-a16c-3aa24fbc2c5e",
        "meta": {
          "profile": [
            "http://hl7.eu/fhir/laboratory/StructureDefinition/Observation-resultslab-eu-lab"
          ]
        },
        "performer": [
          {
            "display": "The Central European Lab"
          }
        ],
        "category": [
          {
            "coding": [
              {
                "system": "http://terminology.hl7.org/CodeSystem/observation-category",
                "code": "laboratory"
              }
            ]
          }
        ],
        "code": {
          "coding": [
            {
              "code": "5802-4",
              "system": "http://loinc.org",
              "display": "Nitrite [Presence] in Urine by Test strip"
            }
          ],
          "text": "Nitrite [Presence] in Urine by Test strip"
        },
        "text": {
          "status": "generated",
          "div": "<div xmlns=\"http://www.w3.org/1999/xhtml\"><table class=\"hl7__eu__lab__report\"><tr><th>Test</th><th>26-May-2023</th><th>Reference&#xA0;Range</th><th>Unit</th></tr><tr><td>Nitrite [Presence] in Urine by Test strip</td></tr></table></div>"
        },
        "status": "final",
        "subject": {
          "reference": "urn:uuid:c82fd36a-3c52-40d3-9c67-d7dcb93822ed",
          "display": "Victor Lagarde"
        },
        "effectiveDateTime": "2023-05-26T04:48:18Z",
        "specimen": {
          "reference": "urn:uuid:bd7b4722-60d4-498d-867c-ec978448f737"
        }
      }
    },
    {
      "fullUrl": "urn:uuid:f1fb6332-da9d-4b6b-8f6d-d919334d9a4c",
      "resource": {
        "resourceType": "Observation",
        "id": "f1fb6332-da9d-4b6b-8f6d-d919334d9a4c",
        "meta": {
          "profile": [
            "http://hl7.eu/fhir/laboratory/StructureDefinition/Observation-resultslab-eu-lab"
          ]
        },
        "performer": [
          {
            "display": "The Central European Lab"
          }
        ],
        "category": [
          {
            "coding": [
              {
                "system": "http://terminology.hl7.org/CodeSystem/observation-category",
                "code": "laboratory"
              }
            ]
          }
        ],
        "code": {
          "coding": [
            {
              "code": "5794-3",
              "system": "http://loinc.org",
              "display": "Hemoglobin [Presence] in Urine by Test strip"
            }
          ],
          "text": "Hemoglobin [Presence] in Urine by Test strip"
        },
        "text": {
          "status": "generated",
          "div": "<div xmlns=\"http://www.w3.org/1999/xhtml\"><table class=\"hl7__eu__lab__report\"><tr><th>Test</th><th>26-May-2023</th><th>Reference&#xA0;Range</th><th>Unit</th></tr><tr><td>Hemoglobin [Presence] in Urine by Test strip</td></tr></table></div>"
        },
        "status": "final",
        "subject": {
          "reference": "urn:uuid:c82fd36a-3c52-40d3-9c67-d7dcb93822ed",
          "display": "Victor Lagarde"
        },
        "effectiveDateTime": "2023-05-26T04:48:18Z",
        "specimen": {
          "reference": "urn:uuid:bd7b4722-60d4-498d-867c-ec978448f737"
        }
      }
    },
    {
      "fullUrl": "urn:uuid:945dc31a-0404-4ded-8479-9ed627e2c431",
      "resource": {
        "resourceType": "Observation",
        "id": "945dc31a-0404-4ded-8479-9ed627e2c431",
        "meta": {
          "profile": [
            "http://hl7.eu/fhir/laboratory/StructureDefinition/Observation-resultslab-eu-lab"
          ]
        },
        "performer": [
          {
            "display": "The Central European Lab"
          }
        ],
        "category": [
          {
            "coding": [
              {
                "system": "http://terminology.hl7.org/CodeSystem/observation-category",
                "code": "laboratory"
              }
            ]
          }
        ],
        "code": {
          "coding": [
            {
              "code": "5799-2",
              "system": "http://loinc.org",
              "display": "Leukocyte esterase [Presence] in Urine by Test strip"
            }
          ],
          "text": "Leukocyte esterase [Presence] in Urine by Test strip"
        },
        "text": {
          "status": "generated",
          "div": "<div xmlns=\"http://www.w3.org/1999/xhtml\"><table class=\"hl7__eu__lab__report\"><tr><th>Test</th><th>26-May-2023</th><th>Reference&#xA0;Range</th><th>Unit</th></tr><tr><td>Leukocyte esterase [Presence] in Urine by Test strip</td></tr></table></div>"
        },
        "status": "final",
        "subject": {
          "reference": "urn:uuid:c82fd36a-3c52-40d3-9c67-d7dcb93822ed",
          "display": "Victor Lagarde"
        },
        "effectiveDateTime": "2023-05-26T04:48:18Z",
        "specimen": {
          "reference": "urn:uuid:bd7b4722-60d4-498d-867c-ec978448f737"
        }
      }
    },
    {
      "fullUrl": "urn:uuid:be9a2da8-a0a7-43d9-925e-4d0185fd7a10",
      "resource": {
        "resourceType": "Observation",
        "id": "be9a2da8-a0a7-43d9-925e-4d0185fd7a10",
        "meta": {
          "profile": [
            "http://hl7.eu/fhir/laboratory/StructureDefinition/Observation-resultslab-eu-lab"
          ]
        },
        "performer": [
          {
            "display": "The Central European Lab"
          }
        ],
        "category": [
          {
            "coding": [
              {
                "system": "http://terminology.hl7.org/CodeSystem/observation-category",
                "code": "laboratory"
              }
            ]
          }
        ],
        "code": {
          "coding": [
            {
              "code": "4548-4",
              "system": "http://loinc.org",
              "display": "Hemoglobin A1c/Hemoglobin.total in Blood"
            }
          ],
          "text": "Hemoglobin A1c/Hemoglobin.total in Blood"
        },
        "valueQuantity": {
          "system": "http://unitsofmeasure.org",
          "value": 3.3,
          "unit": "%",
          "code": "%"
        },
        "referenceRange": [
          {
            "low": {
              "value": 4.3,
              "code": "%",
              "system": "http://unitsofmeasure.org"
            }
          },
          {
            "high": {
              "value": 6,
              "code": "%",
              "system": "http://unitsofmeasure.org"
            }
          }
        ],
        "interpretation": [
          {
            "coding": [
              {
                "code": "L",
                "system": "http://terminology.hl7.org/CodeSystem/v3-ObservationInterpretation",
                "display": "Low"
              }
            ]
          }
        ],
        "text": {
          "status": "generated",
          "div": "<div xmlns=\"http://www.w3.org/1999/xhtml\"><table class=\"hl7__eu__lab__report\"><tr><th>Test</th><th>26-May-2023</th><th>Reference&#xA0;Range</th><th>Unit</th></tr><tr><td>Hemoglobin A1c/Hemoglobin.total in Blood</td><td>3.3</td><td>4.3 - 6</td><td>L</td><td>%</td></tr></table></div>"
        },
        "status": "final",
        "subject": {
          "reference": "urn:uuid:c82fd36a-3c52-40d3-9c67-d7dcb93822ed",
          "display": "Victor Lagarde"
        },
        "effectiveDateTime": "2023-05-26T04:48:18Z",
        "specimen": {
          "reference": "urn:uuid:1b38cc4c-1287-4776-b673-974ae321553c"
        }
      }
    },
    {
      "fullUrl": "urn:uuid:2defff0c-5784-4d46-acd0-610ce304f7c8",
      "resource": {
        "resourceType": "Observation",
        "id": "2defff0c-5784-4d46-acd0-610ce304f7c8",
        "meta": {
          "profile": [
            "http://hl7.eu/fhir/laboratory/StructureDefinition/Observation-resultslab-eu-lab"
          ]
        },
        "performer": [
          {
            "display": "The Central European Lab"
          }
        ],
        "category": [
          {
            "coding": [
              {
                "system": "http://terminology.hl7.org/CodeSystem/observation-category",
                "code": "laboratory"
              }
            ]
          }
        ],
        "code": {
          "coding": [
            {
              "code": "2339-0",
              "system": "http://loinc.org",
              "display": "Glucose [Mass/volume] in Blood"
            }
          ],
          "text": "Glucose [Mass/volume] in Blood"
        },
        "valueQuantity": {
          "system": "http://unitsofmeasure.org",
          "value": 94.2,
          "unit": "mg/dL",
          "code": "mg/dL"
        },
        "referenceRange": [
          {
            "low": {
              "value": 70,
              "code": "mg/dL",
              "system": "http://unitsofmeasure.org"
            }
          },
          {
            "high": {
              "value": 140,
              "code": "mg/dL",
              "system": "http://unitsofmeasure.org"
            }
          }
        ],
        "text": {
          "status": "generated",
          "div": "<div xmlns=\"http://www.w3.org/1999/xhtml\"><table class=\"hl7__eu__lab__report\"><tr><th>Test</th><th>26-May-2023</th><th>Reference&#xA0;Range</th><th>Unit</th></tr><tr><td>Glucose [Mass/volume] in Blood</td><td>94.2</td><td>70 - 140</td><td></td><td>mg/dL</td></tr></table></div>"
        },
        "status": "final",
        "subject": {
          "reference": "urn:uuid:c82fd36a-3c52-40d3-9c67-d7dcb93822ed",
          "display": "Victor Lagarde"
        },
        "effectiveDateTime": "2023-05-26T04:48:18Z",
        "specimen": {
          "reference": "urn:uuid:1b38cc4c-1287-4776-b673-974ae321553c"
        }
      }
    },
    {
      "fullUrl": "urn:uuid:c5b9a406-bc98-4cdb-8d03-078c2faed447",
      "resource": {
        "resourceType": "Observation",
        "id": "c5b9a406-bc98-4cdb-8d03-078c2faed447",
        "meta": {
          "profile": [
            "http://hl7.eu/fhir/laboratory/StructureDefinition/Observation-resultslab-eu-lab"
          ]
        },
        "performer": [
          {
            "display": "The Central European Lab"
          }
        ],
        "category": [
          {
            "coding": [
              {
                "system": "http://terminology.hl7.org/CodeSystem/observation-category",
                "code": "laboratory"
              }
            ]
          }
        ],
        "code": {
          "coding": [
            {
              "code": "6299-2",
              "system": "http://loinc.org",
              "display": "Urea nitrogen [Mass/volume] in Blood"
            }
          ],
          "text": "Urea nitrogen [Mass/volume] in Blood"
        },
        "valueQuantity": {
          "system": "http://unitsofmeasure.org",
          "value": 17.6,
          "unit": "mg/dL",
          "code": "mg/dL"
        },
        "referenceRange": [
          {
            "low": {
              "value": 7,
              "code": "mg/dL",
              "system": "http://unitsofmeasure.org"
            }
          },
          {
            "high": {
              "value": 20,
              "code": "mg/dL",
              "system": "http://unitsofmeasure.org"
            }
          }
        ],
        "text": {
          "status": "generated",
          "div": "<div xmlns=\"http://www.w3.org/1999/xhtml\"><table class=\"hl7__eu__lab__report\"><tr><th>Test</th><th>26-May-2023</th><th>Reference&#xA0;Range</th><th>Unit</th></tr><tr><td>Urea nitrogen [Mass/volume] in Blood</td><td>17.6</td><td>7 - 20</td><td></td><td>mg/dL</td></tr></table></div>"
        },
        "status": "final",
        "subject": {
          "reference": "urn:uuid:c82fd36a-3c52-40d3-9c67-d7dcb93822ed",
          "display": "Victor Lagarde"
        },
        "effectiveDateTime": "2023-05-26T04:48:18Z",
        "specimen": {
          "reference": "urn:uuid:1b38cc4c-1287-4776-b673-974ae321553c"
        }
      }
    },
    {
      "fullUrl": "urn:uuid:e45e3f35-b5ba-4ad1-be7a-62a86b4a327e",
      "resource": {
        "resourceType": "Observation",
        "id": "e45e3f35-b5ba-4ad1-be7a-62a86b4a327e",
        "meta": {
          "profile": [
            "http://hl7.eu/fhir/laboratory/StructureDefinition/Observation-resultslab-eu-lab"
          ]
        },
        "performer": [
          {
            "display": "The Central European Lab"
          }
        ],
        "category": [
          {
            "coding": [
              {
                "system": "http://terminology.hl7.org/CodeSystem/observation-category",
                "code": "laboratory"
              }
            ]
          }
        ],
        "code": {
          "coding": [
            {
              "code": "38483-4",
              "system": "http://loinc.org",
              "display": "Creatinine [Mass/volume] in Blood"
            }
          ],
          "text": "Creatinine [Mass/volume] in Blood"
        },
        "valueQuantity": {
          "system": "http://unitsofmeasure.org",
          "value": 2.5,
          "unit": "mg/dL",
          "code": "mg/dL"
        },
        "referenceRange": [
          {
            "low": {
              "value": 0.9,
              "code": "mg/dL",
              "system": "http://unitsofmeasure.org"
            }
          },
          {
            "high": {
              "value": 1.3,
              "code": "mg/dL",
              "system": "http://unitsofmeasure.org"
            }
          }
        ],
        "interpretation": [
          {
            "coding": [
              {
                "code": "H",
                "system": "http://terminology.hl7.org/CodeSystem/v3-ObservationInterpretation",
                "display": "High"
              }
            ]
          }
        ],
        "text": {
          "status": "generated",
          "div": "<div xmlns=\"http://www.w3.org/1999/xhtml\"><table class=\"hl7__eu__lab__report\"><tr><th>Test</th><th>26-May-2023</th><th>Reference&#xA0;Range</th><th>Unit</th></tr><tr><td>Creatinine [Mass/volume] in Blood</td><td>2.5</td><td>0.9 - 1.3</td><td>H</td><td>mg/dL</td></tr></table></div>"
        },
        "status": "final",
        "subject": {
          "reference": "urn:uuid:c82fd36a-3c52-40d3-9c67-d7dcb93822ed",
          "display": "Victor Lagarde"
        },
        "effectiveDateTime": "2023-05-26T04:48:18Z",
        "specimen": {
          "reference": "urn:uuid:1b38cc4c-1287-4776-b673-974ae321553c"
        }
      }
    },
    {
      "fullUrl": "urn:uuid:b92d3d7a-806e-41be-ad8b-6b0490416b51",
      "resource": {
        "resourceType": "Observation",
        "id": "b92d3d7a-806e-41be-ad8b-6b0490416b51",
        "meta": {
          "profile": [
            "http://hl7.eu/fhir/laboratory/StructureDefinition/Observation-resultslab-eu-lab"
          ]
        },
        "performer": [
          {
            "display": "The Central European Lab"
          }
        ],
        "category": [
          {
            "coding": [
              {
                "system": "http://terminology.hl7.org/CodeSystem/observation-category",
                "code": "laboratory"
              }
            ]
          }
        ],
        "code": {
          "coding": [
            {
              "code": "49765-1",
              "system": "http://loinc.org",
              "display": "Calcium [Mass/volume] in Blood"
            }
          ],
          "text": "Calcium [Mass/volume] in Blood"
        },
        "valueQuantity": {
          "system": "http://unitsofmeasure.org",
          "value": 8.8,
          "unit": "mg/dL",
          "code": "mg/dL"
        },
        "referenceRange": [
          {
            "low": {
              "value": 8.5,
              "code": "mg/dL",
              "system": "http://unitsofmeasure.org"
            }
          },
          {
            "high": {
              "value": 10.5,
              "code": "mg/dL",
              "system": "http://unitsofmeasure.org"
            }
          }
        ],
        "text": {
          "status": "generated",
          "div": "<div xmlns=\"http://www.w3.org/1999/xhtml\"><table class=\"hl7__eu__lab__report\"><tr><th>Test</th><th>26-May-2023</th><th>Reference&#xA0;Range</th><th>Unit</th></tr><tr><td>Calcium [Mass/volume] in Blood</td><td>8.8</td><td>8.5 - 10.5</td><td></td><td>mg/dL</td></tr></table></div>"
        },
        "status": "final",
        "subject": {
          "reference": "urn:uuid:c82fd36a-3c52-40d3-9c67-d7dcb93822ed",
          "display": "Victor Lagarde"
        },
        "effectiveDateTime": "2023-05-26T04:48:18Z",
        "specimen": {
          "reference": "urn:uuid:1b38cc4c-1287-4776-b673-974ae321553c"
        }
      }
    },
    {
      "fullUrl": "urn:uuid:025ffd3a-9e93-451f-9fff-0337f057a5f8",
      "resource": {
        "resourceType": "Observation",
        "id": "025ffd3a-9e93-451f-9fff-0337f057a5f8",
        "meta": {
          "profile": [
            "http://hl7.eu/fhir/laboratory/StructureDefinition/Observation-resultslab-eu-lab"
          ]
        },
        "performer": [
          {
            "display": "The Central European Lab"
          }
        ],
        "category": [
          {
            "coding": [
              {
                "system": "http://terminology.hl7.org/CodeSystem/observation-category",
                "code": "laboratory"
              }
            ]
          }
        ],
        "code": {
          "coding": [
            {
              "code": "2947-0",
              "system": "http://loinc.org",
              "display": "Sodium [Moles/volume] in Blood"
            }
          ],
          "text": "Sodium [Moles/volume] in Blood"
        },
        "valueQuantity": {
          "system": "http://unitsofmeasure.org",
          "value": 142.1,
          "unit": "mmol/L",
          "code": "mmol/L"
        },
        "referenceRange": [
          {
            "low": {
              "value": 135,
              "code": "mmol/L",
              "system": "http://unitsofmeasure.org"
            }
          },
          {
            "high": {
              "value": 145,
              "code": "mmol/L",
              "system": "http://unitsofmeasure.org"
            }
          }
        ],
        "text": {
          "status": "generated",
          "div": "<div xmlns=\"http://www.w3.org/1999/xhtml\"><table class=\"hl7__eu__lab__report\"><tr><th>Test</th><th>26-May-2023</th><th>Reference&#xA0;Range</th><th>Unit</th></tr><tr><td>Sodium [Moles/volume] in Blood</td><td>142.1</td><td>135 - 145</td><td></td><td>mmol/L</td></tr></table></div>"
        },
        "status": "final",
        "subject": {
          "reference": "urn:uuid:c82fd36a-3c52-40d3-9c67-d7dcb93822ed",
          "display": "Victor Lagarde"
        },
        "effectiveDateTime": "2023-05-26T04:48:18Z",
        "specimen": {
          "reference": "urn:uuid:1b38cc4c-1287-4776-b673-974ae321553c"
        }
      }
    },
    {
      "fullUrl": "urn:uuid:f6955337-b1d4-49a9-82d6-ce35c7e1c50b",
      "resource": {
        "resourceType": "Observation",
        "id": "f6955337-b1d4-49a9-82d6-ce35c7e1c50b",
        "meta": {
          "profile": [
            "http://hl7.eu/fhir/laboratory/StructureDefinition/Observation-resultslab-eu-lab"
          ]
        },
        "performer": [
          {
            "display": "The Central European Lab"
          }
        ],
        "category": [
          {
            "coding": [
              {
                "system": "http://terminology.hl7.org/CodeSystem/observation-category",
                "code": "laboratory"
              }
            ]
          }
        ],
        "code": {
          "coding": [
            {
              "code": "6298-4",
              "system": "http://loinc.org",
              "display": "Potassium [Moles/volume] in Blood"
            }
          ],
          "text": "Potassium [Moles/volume] in Blood"
        },
        "valueQuantity": {
          "system": "http://unitsofmeasure.org",
          "value": 4.6,
          "unit": "mmol/L",
          "code": "mmol/L"
        },
        "referenceRange": [
          {
            "low": {
              "value": 3.5,
              "code": "mmol/L",
              "system": "http://unitsofmeasure.org"
            }
          },
          {
            "high": {
              "value": 5.1,
              "code": "mmol/L",
              "system": "http://unitsofmeasure.org"
            }
          }
        ],
        "text": {
          "status": "generated",
          "div": "<div xmlns=\"http://www.w3.org/1999/xhtml\"><table class=\"hl7__eu__lab__report\"><tr><th>Test</th><th>26-May-2023</th><th>Reference&#xA0;Range</th><th>Unit</th></tr><tr><td>Potassium [Moles/volume] in Blood</td><td>4.6</td><td>3.5 - 5.1</td><td></td><td>mmol/L</td></tr></table></div>"
        },
        "status": "final",
        "subject": {
          "reference": "urn:uuid:c82fd36a-3c52-40d3-9c67-d7dcb93822ed",
          "display": "Victor Lagarde"
        },
        "effectiveDateTime": "2023-05-26T04:48:18Z",
        "specimen": {
          "reference": "urn:uuid:1b38cc4c-1287-4776-b673-974ae321553c"
        }
      }
    },
    {
      "fullUrl": "urn:uuid:93dcd348-72b4-4389-8948-eb4e63764a0c",
      "resource": {
        "resourceType": "Observation",
        "id": "93dcd348-72b4-4389-8948-eb4e63764a0c",
        "meta": {
          "profile": [
            "http://hl7.eu/fhir/laboratory/StructureDefinition/Observation-resultslab-eu-lab"
          ]
        },
        "performer": [
          {
            "display": "The Central European Lab"
          }
        ],
        "category": [
          {
            "coding": [
              {
                "system": "http://terminology.hl7.org/CodeSystem/observation-category",
                "code": "laboratory"
              }
            ]
          }
        ],
        "code": {
          "coding": [
            {
              "code": "2069-3",
              "system": "http://loinc.org",
              "display": "Chloride [Moles/volume] in Blood"
            }
          ],
          "text": "Chloride [Moles/volume] in Blood"
        },
        "valueQuantity": {
          "system": "http://unitsofmeasure.org",
          "value": 110.5,
          "unit": "mmol/L",
          "code": "mmol/L"
        },
        "referenceRange": [
          {
            "low": {
              "value": 98,
              "code": "mmol/L",
              "system": "http://unitsofmeasure.org"
            }
          },
          {
            "high": {
              "value": 108,
              "code": "mmol/L",
              "system": "http://unitsofmeasure.org"
            }
          }
        ],
        "interpretation": [
          {
            "coding": [
              {
                "code": "H",
                "system": "http://terminology.hl7.org/CodeSystem/v3-ObservationInterpretation",
                "display": "High"
              }
            ]
          }
        ],
        "text": {
          "status": "generated",
          "div": "<div xmlns=\"http://www.w3.org/1999/xhtml\"><table class=\"hl7__eu__lab__report\"><tr><th>Test</th><th>26-May-2023</th><th>Reference&#xA0;Range</th><th>Unit</th></tr><tr><td>Chloride [Moles/volume] in Blood</td><td>110.5</td><td>98 - 108</td><td>H</td><td>mmol/L</td></tr></table></div>"
        },
        "status": "final",
        "subject": {
          "reference": "urn:uuid:c82fd36a-3c52-40d3-9c67-d7dcb93822ed",
          "display": "Victor Lagarde"
        },
        "effectiveDateTime": "2023-05-26T04:48:18Z",
        "specimen": {
          "reference": "urn:uuid:1b38cc4c-1287-4776-b673-974ae321553c"
        }
      }
    },
    {
      "fullUrl": "urn:uuid:0f72bcd9-0f16-4b85-ad5f-c5a435dd3c01",
      "resource": {
        "resourceType": "Observation",
        "id": "0f72bcd9-0f16-4b85-ad5f-c5a435dd3c01",
        "meta": {
          "profile": [
            "http://hl7.eu/fhir/laboratory/StructureDefinition/Observation-resultslab-eu-lab"
          ]
        },
        "performer": [
          {
            "display": "The Central European Lab"
          }
        ],
        "category": [
          {
            "coding": [
              {
                "system": "http://terminology.hl7.org/CodeSystem/observation-category",
                "code": "laboratory"
              }
            ]
          }
        ],
        "code": {
          "coding": [
            {
              "code": "20565-8",
              "system": "http://loinc.org",
              "display": "Carbon dioxide, total [Moles/volume] in Blood"
            }
          ],
          "text": "Carbon dioxide, total [Moles/volume] in Blood"
        },
        "valueQuantity": {
          "system": "http://unitsofmeasure.org",
          "value": 26,
          "unit": "mmol/L",
          "code": "mmol/L"
        },
        "referenceRange": [
          {
            "low": {
              "value": 22,
              "code": "mmol/L",
              "system": "http://unitsofmeasure.org"
            }
          },
          {
            "high": {
              "value": 29,
              "code": "mmol/L",
              "system": "http://unitsofmeasure.org"
            }
          }
        ],
        "text": {
          "status": "generated",
          "div": "<div xmlns=\"http://www.w3.org/1999/xhtml\"><table class=\"hl7__eu__lab__report\"><tr><th>Test</th><th>26-May-2023</th><th>Reference&#xA0;Range</th><th>Unit</th></tr><tr><td>Carbon dioxide, total [Moles/volume] in Blood</td><td>26.0</td><td>22 - 29</td><td></td><td>mmol/L</td></tr></table></div>"
        },
        "status": "final",
        "subject": {
          "reference": "urn:uuid:c82fd36a-3c52-40d3-9c67-d7dcb93822ed",
          "display": "Victor Lagarde"
        },
        "effectiveDateTime": "2023-05-26T04:48:18Z",
        "specimen": {
          "reference": "urn:uuid:1b38cc4c-1287-4776-b673-974ae321553c"
        }
      }
    },
    {
      "fullUrl": "urn:uuid:44dd28a3-b749-40d0-a687-82b6eef5db93",
      "resource": {
        "resourceType": "Device",
        "id": "44dd28a3-b749-40d0-a687-82b6eef5db93",
        "deviceName": [
          {
            "name": "SYNDERAI Synthetic Generator",
            "type": "manufacturer-name"
          }
        ],
        "version": [
          {
            "value": "5.0"
          }
        ],
        "text": {
          "status": "generated",
          "div": "<div xmlns=\"http://www.w3.org/1999/xhtml\">SYNDERAI Synthetic Generator v5.0</div>"
        },
        "status": "active\"",
        "distinctIdentifier": "synderai-generator-50",
        "manufacturer": "SYNDERAI Project"
      }
    },
    {
      "fullUrl": "urn:uuid:f47e95c0-812f-4f03-8532-281c7213ea17",
      "resource": {
        "resourceType": "Provenance",
        "id": "f47e95c0-812f-4f03-8532-281c7213ea17",
        "target": [
          {
            "reference": "Patient/c82fd36a-3c52-40d3-9c67-d7dcb93822ed"
          },
          {
            "reference": "Bundle/5053ed62-0929-4b40-9039-e076323c1a1e"
          },
          {
            "reference": "Composition/aae6783f-a495-4613-87aa-27d0db79f709"
          },
          {
            "reference": "PractitionerRole/d26ca449-1ad9-4427-a4ce-f62e89605810"
          },
          {
            "reference": "Practitioner/39e59689-2ae3-4a94-89df-612bec4154d3"
          },
          {
            "reference": "PractitionerRole/9062f991-45fe-4963-81f1-0eda7b3b9d1d"
          },
          {
            "reference": "Organization/77876625-be7c-4671-b5c3-071477343c26"
          }
        ],
        "activity": {
          "text": "Synthetic Example Data Generation"
        },
        "policy": [
          "https://synderai.net/synderai-synthetic-data-policy"
        ],
        "agent": [
          {
            "type": {
              "text": "author"
            },
            "who": {
              "reference": "Device/44dd28a3-b749-40d0-a687-82b6eef5db93"
            }
          }
        ],
        "reason": [
          {
            "text": "Interoperability Testing and Training (non-clinical use)"
          }
        ],
        "text": {
          "status": "generated",
          "div": "<div xmlns=\"http://www.w3.org/1999/xhtml\">Provenance for SYNDERAI Synthetic Example Data Resource</div>"
        },
        "recorded": "2023-05-26T06:48:18Z"
      }
    },
    {
      "fullUrl": "urn:uuid:d26ca449-1ad9-4427-a4ce-f62e89605810",
      "resource": {
        "resourceType": "PractitionerRole",
        "id": "d26ca449-1ad9-4427-a4ce-f62e89605810",
        "meta": {
          "profile": [
            "http://hl7.eu/fhir/base/StructureDefinition/practitionerRole-eu"
          ]
        },
        "text": {
          "status": "generated",
          "div": "<div xmlns=\"http://www.w3.org/1999/xhtml\">Laboratory Role Id: d26ca449-1ad9-4427-a4ce-f62e89605810</div>"
        },
        "practitioner": {
          "reference": "urn:uuid:39e59689-2ae3-4a94-89df-612bec4154d3"
        }
      }
    },
    {
      "fullUrl": "urn:uuid:39e59689-2ae3-4a94-89df-612bec4154d3",
      "resource": {
        "resourceType": "Practitioner",
        "id": "39e59689-2ae3-4a94-89df-612bec4154d3",
        "meta": {
          "profile": [
            "http://hl7.eu/fhir/base/StructureDefinition/practitioner-eu"
          ]
        },
        "identifier": [
          {
            "assigner": {
              "display": "HL7 Europe"
            },
            "system": "urn:oid:2.16.840.1.113883.2.51.999",
            "value": "2aad259d-2bce-45c5-8ad5-aeeb11774d5c"
          }
        ],
        "name": [
          {
            "prefix": [
              "dr"
            ],
            "given": [
              "Ex"
            ],
            "family": "Ample"
          }
        ],
        "address": [
          {
            "line": [
              "Laboratoire Central Européenne",
              "Boulevard du Jardin Botanique 32"
            ],
            "postalCode": "1000",
            "city": "Brussels",
            "country": "Belgium"
          }
        ],
        "text": {
          "status": "generated",
          "div": "<div xmlns=\"http://www.w3.org/1999/xhtml\">Laboratory: Laboratoire Central Européenne, 1000 Brussels, Belgium</div>"
        }
      }
    }
  ],
  "type": "document",
  "timestamp": "2023-05-26T06:48:18Z"
}
