{
  "resourceType": "Bundle",
  "id": "0decdeeb-4c98-43bf-abdf-bbd4544b4dba",
  "meta": {
    "profile": [
      "http://hl7.eu/fhir/laboratory/StructureDefinition/Bundle-eu-lab"
    ]
  },
  "identifier": {
    "assigner": {
      "display": "HL7 Europe"
    },
    "system": "urn:oid:2.16.840.1.113883.2.51.999",
    "value": "fe8a7f6d-86a4-432b-9d33-bbd12e08b1e5"
  },
  "entry": [
    {
      "fullUrl": "urn:uuid:eb721b56-584c-4198-9021-5aef2e19b27d",
      "resource": {
        "resourceType": "Composition",
        "id": "eb721b56-584c-4198-9021-5aef2e19b27d",
        "meta": {
          "profile": [
            "http://hl7.eu/fhir/laboratory/StructureDefinition/Composition-eu-lab"
          ]
        },
        "identifier": {
          "assigner": {
            "display": "HL7 Europe"
          },
          "system": "urn:oid:2.16.840.1.113883.2.51.999",
          "value": "535e5d6f-6495-466e-8295-59eddd8590d0"
        },
        "author": [
          {
            "reference": "urn:uuid:b225e6ef-6f36-47d5-b97f-6a998eec3ca8"
          }
        ],
        "category": [
          {
            "coding": [
              {
                "code": "26436-6",
                "system": "http://loinc.org",
                "display": "Laboratory studies (set)"
              }
            ]
          }
        ],
        "type": {
          "coding": [
            {
              "code": "11502-2",
              "system": "http://loinc.org",
              "display": "Laboratory report"
            }
          ],
          "text": "Laboratory Report"
        },
        "section": [
          {
            "code": {
              "coding": [
                {
                  "code": "26436-6",
                  "system": "http://loinc.org",
                  "display": "Laboratory studies (set)"
                }
              ],
              "text": "Laboratory studies"
            },
            "section": [
              {
                "code": {
                  "coding": [
                    {
                      "code": "$18719-5",
                      "system": "http://loinc.org",
                      "display": "Chemistry studies (set)"
                    }
                  ],
                  "text": "Chemistry"
                },
                "entry": [
                  {
                    "reference": "urn:uuid:6c71d05d-09af-46b3-b800-842453070db0"
                  }
                ],
                "text": {
                  "status": "generated",
                  "div": "<div xmlns=\"http://www.w3.org/1999/xhtml\"><h3>Chemistry</h3><table class=\"hl7__eu__lab__report\"><thead><tr><th>Test</th><th>14-JUN-2016</th><th>Reference&#xA0;Range</th><th>Unit</th></tr></thead><tbody><tr><td>Hemoglobin A1c/Hemoglobin.total in Blood</td><td>5.4</td><td>4.5 - 6.4</td><td>%</td></tr></tbody></table></div>"
                },
                "title": "Chemistry"
              }
            ],
            "title": "Laboratory Report"
          },
          {
            "text": {
              "status": "generated",
              "div": "<div xmlns=\"http://www.w3.org/1999/xhtml\"><h3>Annotation</h3><table class=\"hl7__eu__lab__report\"><tr><th>Conclusion and Recommendations based on this report and previous findings known to us</th></tr><tr><td>Hemoglobin A1c is within the normal range, indicating good long-term glycemic control. No laboratory abnormalities detected in this result. No further action required from a laboratory perspective.</td></tr></table></div>"
            },
            "code": {
              "coding": [
                {
                  "system": "http://loinc.org",
                  "code": "48767-8",
                  "display": "Annotation comment"
                }
              ]
            },
            "title": "Annotation comment"
          }
        ],
        "status": "final",
        "subject": {
          "reference": "urn:uuid:1ac8aef2-2a01-4c5a-9048-7f68490fa711",
          "display": "Urbano Cantón"
        },
        "date": "2016-06-14T19:07:13Z",
        "title": "Laboratory Report",
        "confidentiality": "N"
      }
    },
    {
      "fullUrl": "urn:uuid:9300307a-356d-4e58-955b-3b5e94e55f24",
      "resource": {
        "resourceType": "DiagnosticReport",
        "id": "9300307a-356d-4e58-955b-3b5e94e55f24",
        "meta": {
          "profile": [
            "http://hl7.eu/fhir/laboratory/StructureDefinition/DiagnosticReport-eu-lab"
          ]
        },
        "identifier": [
          {
            "assigner": {
              "display": "HL7 Europe"
            },
            "system": "urn:oid:2.16.840.1.113883.2.51.999",
            "value": "58101975-98e0-4ca9-b70e-d217b86d6d73"
          }
        ],
        "extension": [
          {
            "url": "http://hl7.org/fhir/5.0/StructureDefinition/extension-DiagnosticReport.composition",
            "valueReference": {
              "reference": "urn:uuid:535e5d6f-6495-466e-8295-59eddd8590d0"
            }
          }
        ],
        "category": [
          {
            "coding": [
              {
                "code": "26436-6",
                "system": "http://loinc.org",
                "display": "Laboratory studies (set)"
              }
            ]
          }
        ],
        "specimen": [
          {
            "reference": "urn:uuid:28964808-18d4-4fbc-afc6-889cfea313c5"
          }
        ],
        "result": [
          {
            "reference": "urn:uuid:6c71d05d-09af-46b3-b800-842453070db0"
          }
        ],
        "status": "registered",
        "code": {
          "coding": [
            {
              "code": "11502-2",
              "system": "http://loinc.org",
              "display": "Laboratory report"
            }
          ]
        },
        "subject": {
          "reference": "urn:uuid:1ac8aef2-2a01-4c5a-9048-7f68490fa711",
          "display": "Urbano Cantón"
        }
      }
    },
    {
      "fullUrl": "urn:uuid:1ac8aef2-2a01-4c5a-9048-7f68490fa711",
      "resource": {
        "resourceType": "Patient",
        "id": "1ac8aef2-2a01-4c5a-9048-7f68490fa711",
        "meta": {
          "security": [
            {
              "system": "http://terminology.hl7.org/CodeSystem/v3-ActReason",
              "code": "HTEST"
            },
            {
              "system": "http://terminology.hl7.org/CodeSystem/v3-ActReason",
              "code": "TRAIN"
            }
          ],
          "tag": [
            {
              "system": "https://synderai.net/fhir/CodeSystem/tags",
              "code": "synthetic",
              "display": "SYNDERAI Synthetic data"
            }
          ],
          "profile": [
            "http://hl7.eu/fhir/base/StructureDefinition/patient-eu-core"
          ]
        },
        "identifier": [
          {
            "type": {
              "coding": [
                {
                  "code": "PT",
                  "system": "http://terminology.hl7.org/CodeSystem/v2-0203"
                }
              ]
            },
            "system": "http://ec.europa.eu/identifier/eci",
            "value": "8854-480268-4"
          },
          {
            "type": {
              "coding": [
                {
                  "code": "MR",
                  "system": "http://terminology.hl7.org/CodeSystem/v2-0203"
                }
              ]
            },
            "system": "http://local.setting.eu/identifier",
            "value": "91128f5c-658f-cfab-4640-b680ec2e24a1"
          }
        ],
        "name": [
          {
            "family": "Cantón"
          },
          {
            "given": [
              "Urbano"
            ]
          },
          {
            "text": "Urbano Cantón"
          }
        ],
        "address": [
          {
            "line": [
              "Vial Vito Trujillo 29 Piso 2 "
            ],
            "use": "home",
            "type": "physical",
            "postalCode": "38001",
            "city": "Santa Cruz de Tenerife",
            "country": "Spain"
          }
        ],
        "telecom": [
          {
            "system": "phone",
            "value": "+34 740 588 857"
          }
        ],
        "extension": [
          {
            "url": "http://hl7.org/fhir/StructureDefinition/patient-nationality",
            "valueCodeableConcept": {
              "coding": [
                {
                  "code": "ES",
                  "system": "http://hl7.org/fhir/ValueSet/country"
                }
              ]
            }
          }
        ],
        "text": {
          "status": "generated",
          "div": "<div xmlns=\"http://www.w3.org/1999/xhtml\"><table class=\"hl7__ips\"><tr><td>Urbano Cantón</td><td>male</td><td>01-Apr-1945</td></tr></table></div>"
        },
        "gender": "male",
        "birthDate": "1945-04-01"
      }
    },
    {
      "fullUrl": "urn:uuid:6667d069-e4fc-4fbe-8ae5-d78668386b72",
      "resource": {
        "resourceType": "ServiceRequest",
        "id": "6667d069-e4fc-4fbe-8ae5-d78668386b72",
        "meta": {
          "profile": [
            "http://hl7.eu/fhir/laboratory/StructureDefinition/ServiceRequest-eu-lab"
          ]
        },
        "identifier": [
          {
            "system": "http://example.org",
            "value": "abc02b66-9c3c-4aca-8e4a-0f7d6735fa99"
          }
        ],
        "specimen": [
          {
            "reference": "urn:uuid:28964808-18d4-4fbc-afc6-889cfea313c5"
          }
        ],
        "reasonCode": [
          {
            "coding": [
              {
                "code": "55822004",
                "system": "http://snomed.info/sct",
                "display": "Hyperlipidemia"
              }
            ]
          },
          {
            "coding": [
              {
                "code": "401314000",
                "system": "http://snomed.info/sct",
                "display": "Acute non-ST segment elevation myocardial infarction"
              }
            ]
          },
          {
            "coding": [
              {
                "code": "6525002",
                "system": "http://snomed.info/sct",
                "display": "Dependent drug abuse"
              }
            ]
          },
          {
            "coding": [
              {
                "code": "124171000119105",
                "system": "http://snomed.info/sct",
                "display": "Chronic intractable migraine without aura"
              }
            ]
          },
          {
            "coding": [
              {
                "code": "414545008",
                "system": "http://snomed.info/sct",
                "display": "Ischemic heart disease"
              }
            ]
          },
          {
            "coding": [
              {
                "code": "368581000119106",
                "system": "http://snomed.info/sct",
                "display": "Neuropathy due to type 2 diabetes mellitus"
              }
            ]
          },
          {
            "coding": [
              {
                "code": "80394007",
                "system": "http://snomed.info/sct",
                "display": "Hyperglycemia"
              }
            ]
          },
          {
            "coding": [
              {
                "code": "237602007",
                "system": "http://snomed.info/sct",
                "display": "Metabolic syndrome X"
              }
            ]
          },
          {
            "coding": [
              {
                "code": "302870006",
                "system": "http://snomed.info/sct",
                "display": "Hypertriglyceridemia"
              }
            ]
          },
          {
            "coding": [
              {
                "code": "44054006",
                "system": "http://snomed.info/sct",
                "display": "Type 2 diabetes mellitus"
              }
            ]
          },
          {
            "coding": [
              {
                "code": "59621000",
                "system": "http://snomed.info/sct",
                "display": "Essential hypertension"
              }
            ]
          },
          {
            "coding": [
              {
                "code": "271737000",
                "system": "http://snomed.info/sct",
                "display": "Anemia"
              }
            ]
          },
          {
            "coding": [
              {
                "code": "40055000",
                "system": "http://snomed.info/sct",
                "display": "Chronic sinusitis"
              }
            ]
          }
        ],
        "status": "active",
        "intent": "order",
        "code": {
          "coding": [
            {
              "code": "108252007",
              "system": "http://snomed.info/sct",
              "display": "Laboratory procedure"
            }
          ]
        },
        "subject": {
          "reference": "urn:uuid:1ac8aef2-2a01-4c5a-9048-7f68490fa711",
          "display": "Urbano Cantón"
        },
        "requester": {
          "reference": "urn:uuid:6aa76f91-ea71-4e7f-b9c8-cf991f0baf98"
        }
      }
    },
    {
      "fullUrl": "urn:uuid:6aa76f91-ea71-4e7f-b9c8-cf991f0baf98",
      "resource": {
        "resourceType": "PractitionerRole",
        "id": "6aa76f91-ea71-4e7f-b9c8-cf991f0baf98",
        "meta": {
          "profile": [
            "http://hl7.eu/fhir/base/StructureDefinition/practitionerRole-eu"
          ]
        },
        "text": {
          "status": "generated",
          "div": "<div xmlns=\"http://www.w3.org/1999/xhtml\">Provider Role Id: 6aa76f91-ea71-4e7f-b9c8-cf991f0baf98</div>"
        },
        "organization": {
          "reference": "urn:uuid:4cc26a62-7296-4d00-a893-f4bc96f7c4f2"
        }
      }
    },
    {
      "fullUrl": "urn:uuid:4cc26a62-7296-4d00-a893-f4bc96f7c4f2",
      "resource": {
        "resourceType": "Organization",
        "id": "4cc26a62-7296-4d00-a893-f4bc96f7c4f2",
        "meta": {
          "profile": [
            "http://hl7.eu/fhir/base/StructureDefinition/organization-eu"
          ]
        },
        "identifier": [
          {
            "assigner": {
              "display": "HL7 Europe"
            },
            "system": "urn:oid:2.16.840.1.113883.2.51.999",
            "value": "bab37efd-c825-451e-8c86-7b0178d213ac"
          }
        ],
        "address": [
          {
            "country": "Spain"
          }
        ],
        "text": {
          "status": "generated",
          "div": "<div xmlns=\"http://www.w3.org/1999/xhtml\">Provider Organization: Centro de Salud Ruiz de Padrón</div>"
        },
        "name": "Centro de Salud Ruiz de Padrón"
      }
    },
    {
      "fullUrl": "urn:uuid:28964808-18d4-4fbc-afc6-889cfea313c5",
      "resource": {
        "resourceType": "Specimen",
        "id": "28964808-18d4-4fbc-afc6-889cfea313c5",
        "meta": {
          "profile": [
            "http://hl7.eu/fhir/laboratory/StructureDefinition/Specimen-eu-lab"
          ]
        },
        "collection": {
          "collectedDateTime": "2016-06-14"
        },
        "text": {
          "status": "generated",
          "div": "<div xmlns=\"http://www.w3.org/1999/xhtml\"><table class=\"hl7__eu__lab__report\"><tr><th>Specimen</th><th>Collection Date</th></tr><tr><td>Whole blood specimen (specimen)</td><td><span class=\"nb\">14-Jun-2016</span></td></tr></table></div>"
        },
        "type": {
          "coding": [
            {
              "code": "258580003",
              "system": "http://snomed.info/sct",
              "display": "Whole blood specimen (specimen)"
            }
          ]
        }
      }
    },
    {
      "fullUrl": "urn:uuid:6c71d05d-09af-46b3-b800-842453070db0",
      "resource": {
        "resourceType": "Observation",
        "id": "6c71d05d-09af-46b3-b800-842453070db0",
        "meta": {
          "profile": [
            "http://hl7.eu/fhir/laboratory/StructureDefinition/Observation-resultslab-eu-lab"
          ]
        },
        "performer": [
          {
            "display": "The Central European Lab"
          }
        ],
        "category": [
          {
            "coding": [
              {
                "system": "http://terminology.hl7.org/CodeSystem/observation-category",
                "code": "laboratory"
              }
            ]
          }
        ],
        "code": {
          "coding": [
            {
              "code": "4548-4",
              "system": "http://loinc.org",
              "display": "Hemoglobin A1c/Hemoglobin.total in Blood"
            }
          ],
          "text": "Hemoglobin A1c/Hemoglobin.total in Blood"
        },
        "valueQuantity": {
          "system": "http://unitsofmeasure.org",
          "value": 5.4,
          "unit": "%",
          "code": "%"
        },
        "referenceRange": [
          {
            "low": {
              "value": 4.5,
              "code": "%",
              "system": "http://unitsofmeasure.org"
            }
          },
          {
            "high": {
              "value": 6.4,
              "code": "%",
              "system": "http://unitsofmeasure.org"
            }
          }
        ],
        "text": {
          "status": "generated",
          "div": "<div xmlns=\"http://www.w3.org/1999/xhtml\"><table class=\"hl7__eu__lab__report\"><tr><th>Test</th><th>14-Jun-2016</th><th>Reference&#xA0;Range</th><th>Unit</th></tr><tr><td>Hemoglobin A1c/Hemoglobin.total in Blood</td><td>5.4</td><td>4.5 - 6.4</td><td></td><td>%</td></tr></table></div>"
        },
        "status": "final",
        "subject": {
          "reference": "urn:uuid:1ac8aef2-2a01-4c5a-9048-7f68490fa711",
          "display": "Urbano Cantón"
        },
        "effectiveDateTime": "2016-06-14T17:07:13Z",
        "specimen": {
          "reference": "urn:uuid:28964808-18d4-4fbc-afc6-889cfea313c5"
        }
      }
    },
    {
      "fullUrl": "urn:uuid:2e2383e4-68d5-4ea0-a21d-b51001fd30d8",
      "resource": {
        "resourceType": "Device",
        "id": "2e2383e4-68d5-4ea0-a21d-b51001fd30d8",
        "deviceName": [
          {
            "name": "SYNDERAI Synthetic Generator",
            "type": "manufacturer-name"
          }
        ],
        "version": [
          {
            "value": "5.0"
          }
        ],
        "text": {
          "status": "generated",
          "div": "<div xmlns=\"http://www.w3.org/1999/xhtml\">SYNDERAI Synthetic Generator v5.0</div>"
        },
        "status": "active\"",
        "distinctIdentifier": "synderai-generator-50",
        "manufacturer": "SYNDERAI Project"
      }
    },
    {
      "fullUrl": "urn:uuid:79eaa5d4-2342-45ec-bc1d-da6f849a680b",
      "resource": {
        "resourceType": "Provenance",
        "id": "79eaa5d4-2342-45ec-bc1d-da6f849a680b",
        "target": [
          {
            "reference": "Patient/1ac8aef2-2a01-4c5a-9048-7f68490fa711"
          },
          {
            "reference": "Bundle/0decdeeb-4c98-43bf-abdf-bbd4544b4dba"
          },
          {
            "reference": "Composition/eb721b56-584c-4198-9021-5aef2e19b27d"
          },
          {
            "reference": "PractitionerRole/b225e6ef-6f36-47d5-b97f-6a998eec3ca8"
          },
          {
            "reference": "Practitioner/ae3e450b-d4bd-4b34-a808-fdba1ba72be6"
          },
          {
            "reference": "PractitionerRole/6aa76f91-ea71-4e7f-b9c8-cf991f0baf98"
          },
          {
            "reference": "Organization/4cc26a62-7296-4d00-a893-f4bc96f7c4f2"
          }
        ],
        "activity": {
          "text": "Synthetic Example Data Generation"
        },
        "policy": [
          "https://synderai.net/synderai-synthetic-data-policy"
        ],
        "agent": [
          {
            "type": {
              "text": "author"
            },
            "who": {
              "reference": "Device/2e2383e4-68d5-4ea0-a21d-b51001fd30d8"
            }
          }
        ],
        "reason": [
          {
            "text": "Interoperability Testing and Training (non-clinical use)"
          }
        ],
        "text": {
          "status": "generated",
          "div": "<div xmlns=\"http://www.w3.org/1999/xhtml\">Provenance for SYNDERAI Synthetic Example Data Resource</div>"
        },
        "recorded": "2016-06-14T19:07:13Z"
      }
    },
    {
      "fullUrl": "urn:uuid:b225e6ef-6f36-47d5-b97f-6a998eec3ca8",
      "resource": {
        "resourceType": "PractitionerRole",
        "id": "b225e6ef-6f36-47d5-b97f-6a998eec3ca8",
        "meta": {
          "profile": [
            "http://hl7.eu/fhir/base/StructureDefinition/practitionerRole-eu"
          ]
        },
        "text": {
          "status": "generated",
          "div": "<div xmlns=\"http://www.w3.org/1999/xhtml\">Laboratory Role Id: b225e6ef-6f36-47d5-b97f-6a998eec3ca8</div>"
        },
        "practitioner": {
          "reference": "urn:uuid:ae3e450b-d4bd-4b34-a808-fdba1ba72be6"
        }
      }
    },
    {
      "fullUrl": "urn:uuid:ae3e450b-d4bd-4b34-a808-fdba1ba72be6",
      "resource": {
        "resourceType": "Practitioner",
        "id": "ae3e450b-d4bd-4b34-a808-fdba1ba72be6",
        "meta": {
          "profile": [
            "http://hl7.eu/fhir/base/StructureDefinition/practitioner-eu"
          ]
        },
        "identifier": [
          {
            "assigner": {
              "display": "HL7 Europe"
            },
            "system": "urn:oid:2.16.840.1.113883.2.51.999",
            "value": "93deb918-f8a3-4e3d-a1ef-65451fbe2853"
          }
        ],
        "name": [
          {
            "prefix": [
              "dr"
            ],
            "given": [
              "Ex"
            ],
            "family": "Ample"
          }
        ],
        "address": [
          {
            "line": [
              "Laboratoire Central Européenne",
              "Boulevard du Jardin Botanique 32"
            ],
            "postalCode": "1000",
            "city": "Brussels",
            "country": "Belgium"
          }
        ],
        "text": {
          "status": "generated",
          "div": "<div xmlns=\"http://www.w3.org/1999/xhtml\">Laboratory: Laboratoire Central Européenne, 1000 Brussels, Belgium</div>"
        }
      }
    }
  ],
  "type": "document",
  "timestamp": "2016-06-14T19:07:13Z"
}
