{
  "resourceType": "Bundle",
  "id": "1ecde1cc-bd8f-4bd0-a19f-20abd2589625",
  "meta": {
    "profile": [
      "http://hl7.eu/fhir/laboratory/StructureDefinition/Bundle-eu-lab"
    ]
  },
  "identifier": {
    "assigner": {
      "display": "HL7 Europe"
    },
    "system": "urn:oid:2.16.840.1.113883.2.51.999",
    "value": "07cc1bbd-04c5-4fa9-a939-f9c236a40108"
  },
  "entry": [
    {
      "fullUrl": "urn:uuid:ad8096e1-6d35-4714-8952-d9d37dfd3c6f",
      "resource": {
        "resourceType": "Composition",
        "id": "ad8096e1-6d35-4714-8952-d9d37dfd3c6f",
        "meta": {
          "profile": [
            "http://hl7.eu/fhir/laboratory/StructureDefinition/Composition-eu-lab"
          ]
        },
        "identifier": {
          "assigner": {
            "display": "HL7 Europe"
          },
          "system": "urn:oid:2.16.840.1.113883.2.51.999",
          "value": "0e74fcea-66ea-421a-8284-b1141c4dae4a"
        },
        "author": [
          {
            "reference": "urn:uuid:74116349-f9be-49e9-bad8-0920081bc8f7"
          }
        ],
        "category": [
          {
            "coding": [
              {
                "code": "26436-6",
                "system": "http://loinc.org",
                "display": "Laboratory studies (set)"
              }
            ]
          }
        ],
        "type": {
          "coding": [
            {
              "code": "11502-2",
              "system": "http://loinc.org",
              "display": "Laboratory report"
            }
          ],
          "text": "Laboratory Report"
        },
        "section": [
          {
            "code": {
              "coding": [
                {
                  "code": "26436-6",
                  "system": "http://loinc.org",
                  "display": "Laboratory studies (set)"
                }
              ],
              "text": "Laboratory studies"
            },
            "section": [
              {
                "code": {
                  "coding": [
                    {
                      "code": "$18719-5",
                      "system": "http://loinc.org",
                      "display": "Chemistry studies (set)"
                    }
                  ],
                  "text": "Chemistry"
                },
                "entry": [
                  {
                    "reference": "urn:uuid:2ea883f5-03d2-471b-91bb-c3c1ee995691"
                  },
                  {
                    "reference": "urn:uuid:6edecd6b-bfab-4806-ad79-ae895dbaea7d"
                  },
                  {
                    "reference": "urn:uuid:9fb28c6b-c8f6-4767-9244-d3252ef13d88"
                  },
                  {
                    "reference": "urn:uuid:819ca741-9143-4a4b-8140-fd2ab62e632c"
                  },
                  {
                    "reference": "urn:uuid:b94775f5-cea6-40fb-aba6-36be6540d6fa"
                  },
                  {
                    "reference": "urn:uuid:5fc6e95a-353e-4bcd-9c72-1744a0ec9dde"
                  },
                  {
                    "reference": "urn:uuid:4107669d-1de8-44cd-8828-3a1438672900"
                  },
                  {
                    "reference": "urn:uuid:9b045b71-2af1-44f5-b007-1a796fba719b"
                  },
                  {
                    "reference": "urn:uuid:72b312d9-7a92-4065-8767-258f6acfc52a"
                  },
                  {
                    "reference": "urn:uuid:67444967-87ca-478d-a1d0-1f20c2520c79"
                  },
                  {
                    "reference": "urn:uuid:61088e01-8cdb-4262-924c-f2687f4c9793"
                  },
                  {
                    "reference": "urn:uuid:96b061a4-69e5-45cb-bceb-7c69aaaed3b7"
                  },
                  {
                    "reference": "urn:uuid:52c4bf9d-047e-45f4-a872-3ec597e9c1ee"
                  },
                  {
                    "reference": "urn:uuid:669f2c7d-0a62-4131-855d-5b3d530b8280"
                  },
                  {
                    "reference": "urn:uuid:2943ca2a-6e53-4635-808a-942bf2b5374c"
                  },
                  {
                    "reference": "urn:uuid:0225d34a-371d-447a-bf7e-99962266ae14"
                  }
                ],
                "text": {
                  "status": "generated",
                  "div": "<div xmlns=\"http://www.w3.org/1999/xhtml\"><h3>Chemistry</h3><table class=\"hl7__eu__lab__report\"><thead><tr><th>Test</th><th>29-MAY-2018</th><th>Reference&#xA0;Range</th><th>Unit</th></tr></thead><tbody><tr><td>Glucose [Mass/volume] in Blood</td><td><strong>69.5 L</strong></td><td>70 - 140</td><td>mg/dL</td></tr><tr><td>Urea nitrogen [Mass/volume] in Blood</td><td>15.2</td><td>7 - 30</td><td>mg/dL</td></tr><tr><td>Creatinine [Mass/volume] in Blood</td><td><strong>3.4 H</strong></td><td>0.5 - 1.3</td><td>mg/dL</td></tr><tr><td>Calcium [Mass/volume] in Blood</td><td>9.5</td><td>8.6 - 10.2</td><td>mg/dL</td></tr><tr><td>Sodium [Moles/volume] in Blood</td><td>140.4</td><td>135 - 145</td><td>mmol/L</td></tr><tr><td>Potassium [Moles/volume] in Blood</td><td>4.2</td><td>3.5 - 5.1</td><td>mmol/L</td></tr><tr><td>Chloride [Moles/volume] in Blood</td><td>103.1</td><td>98 - 114</td><td>mmol/L</td></tr><tr><td>Carbon dioxide, total [Moles/volume] in Blood</td><td>28.1</td><td>22 - 32</td><td>mmol/L</td></tr><tr><td>Protein [Mass/volume] in Serum or Plasma</td><td>7.7</td><td>6 - 8.3</td><td>g/dL</td></tr><tr><td>Albumin [Mass/volume] in Serum or Plasma</td><td>4.7</td><td>3.5 - 5.5</td><td>g/dL</td></tr><tr><td>Globulin [Mass/volume] in Serum by calculation</td><td>3.2</td><td>2 - 3.5</td><td>g/L</td></tr><tr><td>Bilirubin.total [Mass/volume] in Serum or Plasma</td><td>0.9</td><td>0.3 - 1.2</td><td>mg/dL</td></tr><tr><td>Alkaline phosphatase [Enzymatic activity/volume] in Serum or Plasma</td><td><strong>41.9 L</strong></td><td>44 - 142</td><td>U/L</td></tr><tr><td>Alanine aminotransferase [Enzymatic activity/volume] in Serum or Plasma</td><td>40.0</td><td>7 - 40</td><td>U/L</td></tr><tr><td>Aspartate aminotransferase [Enzymatic activity/volume] in Serum or Plasma</td><td>25.1</td><td>10 - 40</td><td>U/L</td></tr><tr><td>Ketones [Presence] in Urine by Test strip</td><td>Urine ketone test = +++</td><td></td><td></td></tr></tbody></table></div>"
                },
                "title": "Chemistry"
              },
              {
                "code": {
                  "coding": [
                    {
                      "code": "$18729-4",
                      "system": "http://loinc.org",
                      "display": "Urinalysis studies (set)"
                    }
                  ],
                  "text": "Urinalysis"
                },
                "entry": [
                  {
                    "reference": "urn:uuid:56820018-acb1-4043-a151-20c7a90d8fe2"
                  },
                  {
                    "reference": "urn:uuid:76b0ba52-a046-425a-a8b4-65466bd2713a"
                  },
                  {
                    "reference": "urn:uuid:6137040c-ffb0-4c0b-b273-ee1a1513c222"
                  },
                  {
                    "reference": "urn:uuid:80cf5d47-e8b8-46d7-82ef-8112db225eed"
                  },
                  {
                    "reference": "urn:uuid:12d5e6be-b3f1-4226-91d6-722c1f1c082e"
                  },
                  {
                    "reference": "urn:uuid:717f132c-5953-4a60-9548-09acc3b26be3"
                  },
                  {
                    "reference": "urn:uuid:42dd0e98-e94a-4090-81f5-fa3eda9a5d1a"
                  },
                  {
                    "reference": "urn:uuid:48060ff7-3f45-4adb-b60c-7ed1ae6db064"
                  },
                  {
                    "reference": "urn:uuid:f2497015-b59f-43a7-ba91-2aad42a30db1"
                  },
                  {
                    "reference": "urn:uuid:c02aabac-00ce-466f-a3bf-78730a82e6eb"
                  },
                  {
                    "reference": "urn:uuid:78273cbf-354e-4612-8af0-b2d346b98a15"
                  },
                  {
                    "reference": "urn:uuid:b77c557d-e4c0-4679-af5f-e88cf705fb63"
                  }
                ],
                "text": {
                  "status": "generated",
                  "div": "<div xmlns=\"http://www.w3.org/1999/xhtml\"><h3>Urinalysis</h3><table class=\"hl7__eu__lab__report\"><thead><tr><th>Test</th><th>29-MAY-2018</th><th>Reference&#xA0;Range</th><th>Unit</th></tr></thead><tbody><tr><td>Glucose [Mass/volume] in Urine by Test strip</td><td><strong>2.4 H</strong></td><td>0.8 - 0</td><td>mg/dL</td></tr><tr><td>Glucose [Presence] in Urine by Test strip</td><td>++</td><td></td><td></td></tr><tr><td>Bilirubin.total [Mass/volume] in Urine by Test strip</td><td>0.2</td><td>0 - 1.5</td><td>mg/dL</td></tr><tr><td>Bilirubin.total [Presence] in Urine by Test strip</td><td>Finding of bilirubin in urine</td><td></td><td></td></tr><tr><td>Ketones [Mass/volume] in Urine by Test strip</td><td><strong>17.7 H</strong></td><td>0 - 8</td><td>mg/dL</td></tr><tr><td>Specific gravity of Urine by Test strip</td><td><strong>1.0 L</strong></td><td>1.01 - 1.03</td><td>{nominal}</td></tr><tr><td>pH of Urine by Test strip</td><td>6.3</td><td>4.6 - 7.5</td><td>pH</td></tr><tr><td>Protein [Mass/volume] in Urine by Test strip</td><td><strong>282.6 H</strong></td><td>0 - 14</td><td>mg/dL</td></tr><tr><td>Protein [Presence] in Urine by Test strip</td><td>Urine protein test = +++</td><td></td><td></td></tr><tr><td>Nitrite [Presence] in Urine by Test strip</td><td>Urine nitrite negative</td><td></td><td></td></tr><tr><td>Hemoglobin [Presence] in Urine by Test strip</td><td>Urine blood test = negative</td><td></td><td></td></tr><tr><td>Leukocyte esterase [Presence] in Urine by Test strip</td><td>Urine leukocyte test negative</td><td></td><td></td></tr></tbody></table></div>"
                },
                "title": "Urinalysis"
              },
              {
                "code": {
                  "coding": [
                    {
                      "code": "$LP7846-1",
                      "system": "http://loinc.org",
                      "display": "Specimen information"
                    }
                  ],
                  "text": "Specimen information"
                },
                "entry": [
                  {
                    "reference": "urn:uuid:c12a659d-fb07-474e-8a22-793a17cd23a9"
                  },
                  {
                    "reference": "urn:uuid:4ec30fe2-eb08-4592-b02d-ce340a128551"
                  },
                  {
                    "reference": "urn:uuid:09a42704-6417-4b77-9698-9c8ddab2a427"
                  },
                  {
                    "reference": "urn:uuid:fa0e91de-5aa3-43e2-8c18-49ae5338e171"
                  }
                ],
                "text": {
                  "status": "generated",
                  "div": "<div xmlns=\"http://www.w3.org/1999/xhtml\"><h3>Specimen information</h3><table class=\"hl7__eu__lab__report\"><thead><tr><th>Test</th><th>29-MAY-2018</th><th>Specimen</th><th></th></tr></thead><tbody><tr><td>Appearance of Urine</td><td>Cloudy urine</td><td>Urine</td><td></td></tr><tr><td>Odor of Urine</td><td>Urine smell ammoniacal</td><td>Urine</td><td></td></tr><tr><td>Clarity of Urine</td><td>Translucent</td><td>Urine</td><td></td></tr><tr><td>Color of Urine</td><td>Brown color</td><td>Urine</td><td></td></tr></tbody></table></div>"
                },
                "title": "Specimen information"
              }
            ],
            "title": "Laboratory Report"
          },
          {
            "text": {
              "status": "generated",
              "div": "<div xmlns=\"http://www.w3.org/1999/xhtml\"><h3>Annotation</h3><table class=\"hl7__eu__lab__report\"><tr><th>Conclusion and Recommendations based on this report and previous findings known to us</th></tr><tr><td>The patient shows significant renal impairment (elevated creatinine, marked proteinuria), mild hypoglycemia, and abnormal urine findings (glucosuria, ketonuria, proteinuria, low specific gravity, brown color, ammoniacal odor). Liver and electrolyte parameters are within normal limits. Findings suggest possible acute or chronic kidney dysfunction, likely with nephrotic-range proteinuria and possible glycemic dysregulation. Recommend urgent clinical evaluation and nephrology consultation.</td></tr></table></div>"
            },
            "code": {
              "coding": [
                {
                  "system": "http://loinc.org",
                  "code": "48767-8",
                  "display": "Annotation comment"
                }
              ]
            },
            "title": "Annotation comment"
          }
        ],
        "status": "final",
        "subject": {
          "reference": "urn:uuid:ec4343b2-b322-4700-ab5b-6ba2c144239d",
          "display": "Maria Nohlmans"
        },
        "date": "2018-05-29T04:59:39Z",
        "title": "Laboratory Report",
        "confidentiality": "N"
      }
    },
    {
      "fullUrl": "urn:uuid:066ee69d-1b96-4583-8181-a106a8b79ac5",
      "resource": {
        "resourceType": "DiagnosticReport",
        "id": "066ee69d-1b96-4583-8181-a106a8b79ac5",
        "meta": {
          "profile": [
            "http://hl7.eu/fhir/laboratory/StructureDefinition/DiagnosticReport-eu-lab"
          ]
        },
        "identifier": [
          {
            "assigner": {
              "display": "HL7 Europe"
            },
            "system": "urn:oid:2.16.840.1.113883.2.51.999",
            "value": "95bfe0c2-9bc0-4cda-81ea-2bd608604e38"
          }
        ],
        "extension": [
          {
            "url": "http://hl7.org/fhir/5.0/StructureDefinition/extension-DiagnosticReport.composition",
            "valueReference": {
              "reference": "urn:uuid:0e74fcea-66ea-421a-8284-b1141c4dae4a"
            }
          }
        ],
        "category": [
          {
            "coding": [
              {
                "code": "26436-6",
                "system": "http://loinc.org",
                "display": "Laboratory studies (set)"
              }
            ]
          }
        ],
        "specimen": [
          {
            "reference": "urn:uuid:fa061980-2ac3-4713-848b-fc01207d5a80"
          },
          {
            "reference": "urn:uuid:dfa94468-3e11-476e-9f36-5300a87219ef"
          },
          {
            "reference": "urn:uuid:ea9b97a5-6228-4eb7-939e-10aba4defb51"
          },
          {
            "reference": "urn:uuid:6eecbdf5-56cd-4e2d-858c-3c6c06c61c70"
          }
        ],
        "result": [
          {
            "reference": "urn:uuid:2ea883f5-03d2-471b-91bb-c3c1ee995691"
          },
          {
            "reference": "urn:uuid:6edecd6b-bfab-4806-ad79-ae895dbaea7d"
          },
          {
            "reference": "urn:uuid:9fb28c6b-c8f6-4767-9244-d3252ef13d88"
          },
          {
            "reference": "urn:uuid:819ca741-9143-4a4b-8140-fd2ab62e632c"
          },
          {
            "reference": "urn:uuid:b94775f5-cea6-40fb-aba6-36be6540d6fa"
          },
          {
            "reference": "urn:uuid:5fc6e95a-353e-4bcd-9c72-1744a0ec9dde"
          },
          {
            "reference": "urn:uuid:4107669d-1de8-44cd-8828-3a1438672900"
          },
          {
            "reference": "urn:uuid:9b045b71-2af1-44f5-b007-1a796fba719b"
          },
          {
            "reference": "urn:uuid:72b312d9-7a92-4065-8767-258f6acfc52a"
          },
          {
            "reference": "urn:uuid:67444967-87ca-478d-a1d0-1f20c2520c79"
          },
          {
            "reference": "urn:uuid:61088e01-8cdb-4262-924c-f2687f4c9793"
          },
          {
            "reference": "urn:uuid:96b061a4-69e5-45cb-bceb-7c69aaaed3b7"
          },
          {
            "reference": "urn:uuid:52c4bf9d-047e-45f4-a872-3ec597e9c1ee"
          },
          {
            "reference": "urn:uuid:669f2c7d-0a62-4131-855d-5b3d530b8280"
          },
          {
            "reference": "urn:uuid:2943ca2a-6e53-4635-808a-942bf2b5374c"
          },
          {
            "reference": "urn:uuid:c12a659d-fb07-474e-8a22-793a17cd23a9"
          },
          {
            "reference": "urn:uuid:4ec30fe2-eb08-4592-b02d-ce340a128551"
          },
          {
            "reference": "urn:uuid:09a42704-6417-4b77-9698-9c8ddab2a427"
          },
          {
            "reference": "urn:uuid:fa0e91de-5aa3-43e2-8c18-49ae5338e171"
          },
          {
            "reference": "urn:uuid:56820018-acb1-4043-a151-20c7a90d8fe2"
          },
          {
            "reference": "urn:uuid:76b0ba52-a046-425a-a8b4-65466bd2713a"
          },
          {
            "reference": "urn:uuid:6137040c-ffb0-4c0b-b273-ee1a1513c222"
          },
          {
            "reference": "urn:uuid:80cf5d47-e8b8-46d7-82ef-8112db225eed"
          },
          {
            "reference": "urn:uuid:12d5e6be-b3f1-4226-91d6-722c1f1c082e"
          },
          {
            "reference": "urn:uuid:0225d34a-371d-447a-bf7e-99962266ae14"
          },
          {
            "reference": "urn:uuid:717f132c-5953-4a60-9548-09acc3b26be3"
          },
          {
            "reference": "urn:uuid:42dd0e98-e94a-4090-81f5-fa3eda9a5d1a"
          },
          {
            "reference": "urn:uuid:48060ff7-3f45-4adb-b60c-7ed1ae6db064"
          },
          {
            "reference": "urn:uuid:f2497015-b59f-43a7-ba91-2aad42a30db1"
          },
          {
            "reference": "urn:uuid:c02aabac-00ce-466f-a3bf-78730a82e6eb"
          },
          {
            "reference": "urn:uuid:78273cbf-354e-4612-8af0-b2d346b98a15"
          },
          {
            "reference": "urn:uuid:b77c557d-e4c0-4679-af5f-e88cf705fb63"
          }
        ],
        "status": "registered",
        "code": {
          "coding": [
            {
              "code": "11502-2",
              "system": "http://loinc.org",
              "display": "Laboratory report"
            }
          ]
        },
        "subject": {
          "reference": "urn:uuid:ec4343b2-b322-4700-ab5b-6ba2c144239d",
          "display": "Maria Nohlmans"
        }
      }
    },
    {
      "fullUrl": "urn:uuid:ec4343b2-b322-4700-ab5b-6ba2c144239d",
      "resource": {
        "resourceType": "Patient",
        "id": "ec4343b2-b322-4700-ab5b-6ba2c144239d",
        "meta": {
          "security": [
            {
              "system": "http://terminology.hl7.org/CodeSystem/v3-ActReason",
              "code": "HTEST"
            },
            {
              "system": "http://terminology.hl7.org/CodeSystem/v3-ActReason",
              "code": "TRAIN"
            }
          ],
          "tag": [
            {
              "system": "https://synderai.net/fhir/CodeSystem/tags",
              "code": "synthetic",
              "display": "SYNDERAI Synthetic data"
            }
          ],
          "profile": [
            "http://hl7.eu/fhir/base/StructureDefinition/patient-eu-core"
          ]
        },
        "identifier": [
          {
            "type": {
              "coding": [
                {
                  "code": "PT",
                  "system": "http://terminology.hl7.org/CodeSystem/v2-0203"
                }
              ]
            },
            "system": "http://ec.europa.eu/identifier/eci",
            "value": "6886-506417-1"
          },
          {
            "type": {
              "coding": [
                {
                  "code": "MR",
                  "system": "http://terminology.hl7.org/CodeSystem/v2-0203"
                }
              ]
            },
            "system": "http://local.setting.eu/identifier",
            "value": "2cb21ed6-b617-b1f3-2290-589a710de5ee"
          }
        ],
        "name": [
          {
            "family": "Nohlmans"
          },
          {
            "given": [
              "Maria"
            ]
          },
          {
            "text": "Maria Nohlmans"
          }
        ],
        "address": [
          {
            "line": [
              "Alfons-Wulff-Weg 1"
            ],
            "use": "home",
            "type": "physical",
            "postalCode": "25813",
            "city": "Husum",
            "country": "Germany"
          }
        ],
        "telecom": [
          {
            "system": "phone",
            "value": "+49(0)1911 105501"
          }
        ],
        "extension": [
          {
            "url": "http://hl7.org/fhir/StructureDefinition/patient-nationality",
            "valueCodeableConcept": {
              "coding": [
                {
                  "code": "DE",
                  "system": "http://hl7.org/fhir/ValueSet/country"
                }
              ]
            }
          }
        ],
        "text": {
          "status": "generated",
          "div": "<div xmlns=\"http://www.w3.org/1999/xhtml\"><table class=\"hl7__ips\"><tr><td>Maria Nohlmans</td><td>female</td><td>11-Jun-1947</td></tr></table></div>"
        },
        "gender": "female",
        "birthDate": "1947-06-11"
      }
    },
    {
      "fullUrl": "urn:uuid:8842d575-586c-40e8-b3df-751e6b385f80",
      "resource": {
        "resourceType": "ServiceRequest",
        "id": "8842d575-586c-40e8-b3df-751e6b385f80",
        "meta": {
          "profile": [
            "http://hl7.eu/fhir/laboratory/StructureDefinition/ServiceRequest-eu-lab"
          ]
        },
        "identifier": [
          {
            "system": "http://example.org",
            "value": "9e7e51a1-0919-49b7-8ab2-52520f953944"
          }
        ],
        "specimen": [
          {
            "reference": "urn:uuid:fa061980-2ac3-4713-848b-fc01207d5a80"
          },
          {
            "reference": "urn:uuid:dfa94468-3e11-476e-9f36-5300a87219ef"
          },
          {
            "reference": "urn:uuid:ea9b97a5-6228-4eb7-939e-10aba4defb51"
          },
          {
            "reference": "urn:uuid:6eecbdf5-56cd-4e2d-858c-3c6c06c61c70"
          }
        ],
        "reasonCode": [
          {
            "coding": [
              {
                "code": "401314000",
                "system": "http://snomed.info/sct",
                "display": "Acute non-ST segment elevation myocardial infarction"
              }
            ]
          },
          {
            "coding": [
              {
                "code": "157141000119108",
                "system": "http://snomed.info/sct",
                "display": "Proteinuria due to type 2 diabetes mellitus"
              }
            ]
          },
          {
            "coding": [
              {
                "code": "237602007",
                "system": "http://snomed.info/sct",
                "display": "Metabolic syndrome X"
              }
            ]
          },
          {
            "coding": [
              {
                "code": "90781000119102",
                "system": "http://snomed.info/sct",
                "display": "Microalbuminuria due to type 2 diabetes mellitus"
              }
            ]
          },
          {
            "coding": [
              {
                "code": "127013003",
                "system": "http://snomed.info/sct",
                "display": "Disorder of kidney due to diabetes mellitus"
              }
            ]
          },
          {
            "coding": [
              {
                "code": "59621000",
                "system": "http://snomed.info/sct",
                "display": "Essential hypertension"
              }
            ]
          },
          {
            "coding": [
              {
                "code": "271737000",
                "system": "http://snomed.info/sct",
                "display": "Anemia"
              }
            ]
          },
          {
            "coding": [
              {
                "code": "15777000",
                "system": "http://snomed.info/sct",
                "display": "Prediabetes"
              }
            ]
          }
        ],
        "status": "active",
        "intent": "order",
        "code": {
          "coding": [
            {
              "code": "108252007",
              "system": "http://snomed.info/sct",
              "display": "Laboratory procedure"
            }
          ]
        },
        "subject": {
          "reference": "urn:uuid:ec4343b2-b322-4700-ab5b-6ba2c144239d",
          "display": "Maria Nohlmans"
        },
        "requester": {
          "reference": "urn:uuid:85f8ad85-0e47-44b8-b126-90a1d636f8a8"
        }
      }
    },
    {
      "fullUrl": "urn:uuid:85f8ad85-0e47-44b8-b126-90a1d636f8a8",
      "resource": {
        "resourceType": "PractitionerRole",
        "id": "85f8ad85-0e47-44b8-b126-90a1d636f8a8",
        "meta": {
          "profile": [
            "http://hl7.eu/fhir/base/StructureDefinition/practitionerRole-eu"
          ]
        },
        "text": {
          "status": "generated",
          "div": "<div xmlns=\"http://www.w3.org/1999/xhtml\">Provider Role Id: 85f8ad85-0e47-44b8-b126-90a1d636f8a8</div>"
        },
        "organization": {
          "reference": "urn:uuid:892de332-392e-40a5-a7a3-eb242042c59a"
        }
      }
    },
    {
      "fullUrl": "urn:uuid:892de332-392e-40a5-a7a3-eb242042c59a",
      "resource": {
        "resourceType": "Organization",
        "id": "892de332-392e-40a5-a7a3-eb242042c59a",
        "meta": {
          "profile": [
            "http://hl7.eu/fhir/base/StructureDefinition/organization-eu"
          ]
        },
        "identifier": [
          {
            "assigner": {
              "display": "HL7 Europe"
            },
            "system": "urn:oid:2.16.840.1.113883.2.51.999",
            "value": "d582d9ea-111a-4ec4-a3c0-f181a89b8a52"
          }
        ],
        "address": [
          {
            "line": [
              "Brinckmannstraße 35"
            ],
            "city": "Husum",
            "postalCode": "25813",
            "country": "Germany"
          }
        ],
        "text": {
          "status": "generated",
          "div": "<div xmlns=\"http://www.w3.org/1999/xhtml\">Provider Organization: Dr. Wolfram Hussels Kieferorthopäde</div>"
        },
        "name": "Dr. Wolfram Hussels Kieferorthopäde"
      }
    },
    {
      "fullUrl": "urn:uuid:fa061980-2ac3-4713-848b-fc01207d5a80",
      "resource": {
        "resourceType": "Specimen",
        "id": "fa061980-2ac3-4713-848b-fc01207d5a80",
        "meta": {
          "profile": [
            "http://hl7.eu/fhir/laboratory/StructureDefinition/Specimen-eu-lab"
          ]
        },
        "collection": {
          "collectedDateTime": "2018-05-29"
        },
        "text": {
          "status": "generated",
          "div": "<div xmlns=\"http://www.w3.org/1999/xhtml\"><table class=\"hl7__eu__lab__report\"><tr><th>Specimen</th><th>Collection Date</th></tr><tr><td>Whole blood specimen (specimen)</td><td><span class=\"nb\">29-May-2018</span></td></tr></table></div>"
        },
        "type": {
          "coding": [
            {
              "code": "258580003",
              "system": "http://snomed.info/sct",
              "display": "Whole blood specimen (specimen)"
            }
          ]
        }
      }
    },
    {
      "fullUrl": "urn:uuid:dfa94468-3e11-476e-9f36-5300a87219ef",
      "resource": {
        "resourceType": "Specimen",
        "id": "dfa94468-3e11-476e-9f36-5300a87219ef",
        "meta": {
          "profile": [
            "http://hl7.eu/fhir/laboratory/StructureDefinition/Specimen-eu-lab"
          ]
        },
        "collection": {
          "collectedDateTime": "2018-05-29"
        },
        "text": {
          "status": "generated",
          "div": "<div xmlns=\"http://www.w3.org/1999/xhtml\"><table class=\"hl7__eu__lab__report\"><tr><th>Specimen</th><th>Collection Date</th></tr><tr><td>Acellular blood (serum or plasma) specimen</td><td><span class=\"nb\">29-May-2018</span></td></tr></table></div>"
        },
        "type": {
          "coding": [
            {
              "code": "122592007",
              "system": "http://snomed.info/sct",
              "display": "Acellular blood (serum or plasma) specimen"
            }
          ]
        }
      }
    },
    {
      "fullUrl": "urn:uuid:ea9b97a5-6228-4eb7-939e-10aba4defb51",
      "resource": {
        "resourceType": "Specimen",
        "id": "ea9b97a5-6228-4eb7-939e-10aba4defb51",
        "meta": {
          "profile": [
            "http://hl7.eu/fhir/laboratory/StructureDefinition/Specimen-eu-lab"
          ]
        },
        "collection": {
          "collectedDateTime": "2018-05-29"
        },
        "text": {
          "status": "generated",
          "div": "<div xmlns=\"http://www.w3.org/1999/xhtml\"><table class=\"hl7__eu__lab__report\"><tr><th>Specimen</th><th>Collection Date</th></tr><tr><td>Serum specimen</td><td><span class=\"nb\">29-May-2018</span></td></tr></table></div>"
        },
        "type": {
          "coding": [
            {
              "code": "119364003",
              "system": "http://snomed.info/sct",
              "display": "Serum specimen"
            }
          ]
        }
      }
    },
    {
      "fullUrl": "urn:uuid:6eecbdf5-56cd-4e2d-858c-3c6c06c61c70",
      "resource": {
        "resourceType": "Specimen",
        "id": "6eecbdf5-56cd-4e2d-858c-3c6c06c61c70",
        "meta": {
          "profile": [
            "http://hl7.eu/fhir/laboratory/StructureDefinition/Specimen-eu-lab"
          ]
        },
        "collection": {
          "collectedDateTime": "2018-05-29"
        },
        "text": {
          "status": "generated",
          "div": "<div xmlns=\"http://www.w3.org/1999/xhtml\"><table class=\"hl7__eu__lab__report\"><tr><th>Specimen</th><th>Collection Date</th></tr><tr><td>Urine specimen</td><td><span class=\"nb\">29-May-2018</span></td></tr></table></div>"
        },
        "type": {
          "coding": [
            {
              "code": "122575003",
              "system": "http://snomed.info/sct",
              "display": "Urine specimen"
            }
          ]
        }
      }
    },
    {
      "fullUrl": "urn:uuid:2ea883f5-03d2-471b-91bb-c3c1ee995691",
      "resource": {
        "resourceType": "Observation",
        "id": "2ea883f5-03d2-471b-91bb-c3c1ee995691",
        "meta": {
          "profile": [
            "http://hl7.eu/fhir/laboratory/StructureDefinition/Observation-resultslab-eu-lab"
          ]
        },
        "performer": [
          {
            "display": "The Central European Lab"
          }
        ],
        "category": [
          {
            "coding": [
              {
                "system": "http://terminology.hl7.org/CodeSystem/observation-category",
                "code": "laboratory"
              }
            ]
          }
        ],
        "code": {
          "coding": [
            {
              "code": "2339-0",
              "system": "http://loinc.org",
              "display": "Glucose [Mass/volume] in Blood"
            }
          ],
          "text": "Glucose [Mass/volume] in Blood"
        },
        "valueQuantity": {
          "system": "http://unitsofmeasure.org",
          "value": 69.5,
          "unit": "mg/dL",
          "code": "mg/dL"
        },
        "referenceRange": [
          {
            "low": {
              "value": 70,
              "code": "mg/dL",
              "system": "http://unitsofmeasure.org"
            }
          },
          {
            "high": {
              "value": 140,
              "code": "mg/dL",
              "system": "http://unitsofmeasure.org"
            }
          }
        ],
        "interpretation": [
          {
            "coding": [
              {
                "code": "L",
                "system": "http://terminology.hl7.org/CodeSystem/v3-ObservationInterpretation",
                "display": "Low"
              }
            ]
          }
        ],
        "text": {
          "status": "generated",
          "div": "<div xmlns=\"http://www.w3.org/1999/xhtml\"><table class=\"hl7__eu__lab__report\"><tr><th>Test</th><th>29-May-2018</th><th>Reference&#xA0;Range</th><th>Unit</th></tr><tr><td>Glucose [Mass/volume] in Blood</td><td>69.5</td><td>70 - 140</td><td>L</td><td>mg/dL</td></tr></table></div>"
        },
        "status": "final",
        "subject": {
          "reference": "urn:uuid:ec4343b2-b322-4700-ab5b-6ba2c144239d",
          "display": "Maria Nohlmans"
        },
        "effectiveDateTime": "2018-05-29T02:59:39Z",
        "specimen": {
          "reference": "urn:uuid:fa061980-2ac3-4713-848b-fc01207d5a80"
        }
      }
    },
    {
      "fullUrl": "urn:uuid:6edecd6b-bfab-4806-ad79-ae895dbaea7d",
      "resource": {
        "resourceType": "Observation",
        "id": "6edecd6b-bfab-4806-ad79-ae895dbaea7d",
        "meta": {
          "profile": [
            "http://hl7.eu/fhir/laboratory/StructureDefinition/Observation-resultslab-eu-lab"
          ]
        },
        "performer": [
          {
            "display": "The Central European Lab"
          }
        ],
        "category": [
          {
            "coding": [
              {
                "system": "http://terminology.hl7.org/CodeSystem/observation-category",
                "code": "laboratory"
              }
            ]
          }
        ],
        "code": {
          "coding": [
            {
              "code": "6299-2",
              "system": "http://loinc.org",
              "display": "Urea nitrogen [Mass/volume] in Blood"
            }
          ],
          "text": "Urea nitrogen [Mass/volume] in Blood"
        },
        "valueQuantity": {
          "system": "http://unitsofmeasure.org",
          "value": 15.2,
          "unit": "mg/dL",
          "code": "mg/dL"
        },
        "referenceRange": [
          {
            "low": {
              "value": 7,
              "code": "mg/dL",
              "system": "http://unitsofmeasure.org"
            }
          },
          {
            "high": {
              "value": 30,
              "code": "mg/dL",
              "system": "http://unitsofmeasure.org"
            }
          }
        ],
        "text": {
          "status": "generated",
          "div": "<div xmlns=\"http://www.w3.org/1999/xhtml\"><table class=\"hl7__eu__lab__report\"><tr><th>Test</th><th>29-May-2018</th><th>Reference&#xA0;Range</th><th>Unit</th></tr><tr><td>Urea nitrogen [Mass/volume] in Blood</td><td>15.2</td><td>7 - 30</td><td></td><td>mg/dL</td></tr></table></div>"
        },
        "status": "final",
        "subject": {
          "reference": "urn:uuid:ec4343b2-b322-4700-ab5b-6ba2c144239d",
          "display": "Maria Nohlmans"
        },
        "effectiveDateTime": "2018-05-29T02:59:39Z",
        "specimen": {
          "reference": "urn:uuid:fa061980-2ac3-4713-848b-fc01207d5a80"
        }
      }
    },
    {
      "fullUrl": "urn:uuid:9fb28c6b-c8f6-4767-9244-d3252ef13d88",
      "resource": {
        "resourceType": "Observation",
        "id": "9fb28c6b-c8f6-4767-9244-d3252ef13d88",
        "meta": {
          "profile": [
            "http://hl7.eu/fhir/laboratory/StructureDefinition/Observation-resultslab-eu-lab"
          ]
        },
        "performer": [
          {
            "display": "The Central European Lab"
          }
        ],
        "category": [
          {
            "coding": [
              {
                "system": "http://terminology.hl7.org/CodeSystem/observation-category",
                "code": "laboratory"
              }
            ]
          }
        ],
        "code": {
          "coding": [
            {
              "code": "38483-4",
              "system": "http://loinc.org",
              "display": "Creatinine [Mass/volume] in Blood"
            }
          ],
          "text": "Creatinine [Mass/volume] in Blood"
        },
        "valueQuantity": {
          "system": "http://unitsofmeasure.org",
          "value": 3.4,
          "unit": "mg/dL",
          "code": "mg/dL"
        },
        "referenceRange": [
          {
            "low": {
              "value": 0.5,
              "code": "mg/dL",
              "system": "http://unitsofmeasure.org"
            }
          },
          {
            "high": {
              "value": 1.3,
              "code": "mg/dL",
              "system": "http://unitsofmeasure.org"
            }
          }
        ],
        "interpretation": [
          {
            "coding": [
              {
                "code": "H",
                "system": "http://terminology.hl7.org/CodeSystem/v3-ObservationInterpretation",
                "display": "High"
              }
            ]
          }
        ],
        "text": {
          "status": "generated",
          "div": "<div xmlns=\"http://www.w3.org/1999/xhtml\"><table class=\"hl7__eu__lab__report\"><tr><th>Test</th><th>29-May-2018</th><th>Reference&#xA0;Range</th><th>Unit</th></tr><tr><td>Creatinine [Mass/volume] in Blood</td><td>3.4</td><td>0.5 - 1.3</td><td>H</td><td>mg/dL</td></tr></table></div>"
        },
        "status": "final",
        "subject": {
          "reference": "urn:uuid:ec4343b2-b322-4700-ab5b-6ba2c144239d",
          "display": "Maria Nohlmans"
        },
        "effectiveDateTime": "2018-05-29T02:59:39Z",
        "specimen": {
          "reference": "urn:uuid:fa061980-2ac3-4713-848b-fc01207d5a80"
        }
      }
    },
    {
      "fullUrl": "urn:uuid:819ca741-9143-4a4b-8140-fd2ab62e632c",
      "resource": {
        "resourceType": "Observation",
        "id": "819ca741-9143-4a4b-8140-fd2ab62e632c",
        "meta": {
          "profile": [
            "http://hl7.eu/fhir/laboratory/StructureDefinition/Observation-resultslab-eu-lab"
          ]
        },
        "performer": [
          {
            "display": "The Central European Lab"
          }
        ],
        "category": [
          {
            "coding": [
              {
                "system": "http://terminology.hl7.org/CodeSystem/observation-category",
                "code": "laboratory"
              }
            ]
          }
        ],
        "code": {
          "coding": [
            {
              "code": "49765-1",
              "system": "http://loinc.org",
              "display": "Calcium [Mass/volume] in Blood"
            }
          ],
          "text": "Calcium [Mass/volume] in Blood"
        },
        "valueQuantity": {
          "system": "http://unitsofmeasure.org",
          "value": 9.5,
          "unit": "mg/dL",
          "code": "mg/dL"
        },
        "referenceRange": [
          {
            "low": {
              "value": 8.6,
              "code": "mg/dL",
              "system": "http://unitsofmeasure.org"
            }
          },
          {
            "high": {
              "value": 10.2,
              "code": "mg/dL",
              "system": "http://unitsofmeasure.org"
            }
          }
        ],
        "text": {
          "status": "generated",
          "div": "<div xmlns=\"http://www.w3.org/1999/xhtml\"><table class=\"hl7__eu__lab__report\"><tr><th>Test</th><th>29-May-2018</th><th>Reference&#xA0;Range</th><th>Unit</th></tr><tr><td>Calcium [Mass/volume] in Blood</td><td>9.5</td><td>8.6 - 10.2</td><td></td><td>mg/dL</td></tr></table></div>"
        },
        "status": "final",
        "subject": {
          "reference": "urn:uuid:ec4343b2-b322-4700-ab5b-6ba2c144239d",
          "display": "Maria Nohlmans"
        },
        "effectiveDateTime": "2018-05-29T02:59:39Z",
        "specimen": {
          "reference": "urn:uuid:fa061980-2ac3-4713-848b-fc01207d5a80"
        }
      }
    },
    {
      "fullUrl": "urn:uuid:b94775f5-cea6-40fb-aba6-36be6540d6fa",
      "resource": {
        "resourceType": "Observation",
        "id": "b94775f5-cea6-40fb-aba6-36be6540d6fa",
        "meta": {
          "profile": [
            "http://hl7.eu/fhir/laboratory/StructureDefinition/Observation-resultslab-eu-lab"
          ]
        },
        "performer": [
          {
            "display": "The Central European Lab"
          }
        ],
        "category": [
          {
            "coding": [
              {
                "system": "http://terminology.hl7.org/CodeSystem/observation-category",
                "code": "laboratory"
              }
            ]
          }
        ],
        "code": {
          "coding": [
            {
              "code": "2947-0",
              "system": "http://loinc.org",
              "display": "Sodium [Moles/volume] in Blood"
            }
          ],
          "text": "Sodium [Moles/volume] in Blood"
        },
        "valueQuantity": {
          "system": "http://unitsofmeasure.org",
          "value": 140.4,
          "unit": "mmol/L",
          "code": "mmol/L"
        },
        "referenceRange": [
          {
            "low": {
              "value": 135,
              "code": "mmol/L",
              "system": "http://unitsofmeasure.org"
            }
          },
          {
            "high": {
              "value": 145,
              "code": "mmol/L",
              "system": "http://unitsofmeasure.org"
            }
          }
        ],
        "text": {
          "status": "generated",
          "div": "<div xmlns=\"http://www.w3.org/1999/xhtml\"><table class=\"hl7__eu__lab__report\"><tr><th>Test</th><th>29-May-2018</th><th>Reference&#xA0;Range</th><th>Unit</th></tr><tr><td>Sodium [Moles/volume] in Blood</td><td>140.4</td><td>135 - 145</td><td></td><td>mmol/L</td></tr></table></div>"
        },
        "status": "final",
        "subject": {
          "reference": "urn:uuid:ec4343b2-b322-4700-ab5b-6ba2c144239d",
          "display": "Maria Nohlmans"
        },
        "effectiveDateTime": "2018-05-29T02:59:39Z",
        "specimen": {
          "reference": "urn:uuid:fa061980-2ac3-4713-848b-fc01207d5a80"
        }
      }
    },
    {
      "fullUrl": "urn:uuid:5fc6e95a-353e-4bcd-9c72-1744a0ec9dde",
      "resource": {
        "resourceType": "Observation",
        "id": "5fc6e95a-353e-4bcd-9c72-1744a0ec9dde",
        "meta": {
          "profile": [
            "http://hl7.eu/fhir/laboratory/StructureDefinition/Observation-resultslab-eu-lab"
          ]
        },
        "performer": [
          {
            "display": "The Central European Lab"
          }
        ],
        "category": [
          {
            "coding": [
              {
                "system": "http://terminology.hl7.org/CodeSystem/observation-category",
                "code": "laboratory"
              }
            ]
          }
        ],
        "code": {
          "coding": [
            {
              "code": "6298-4",
              "system": "http://loinc.org",
              "display": "Potassium [Moles/volume] in Blood"
            }
          ],
          "text": "Potassium [Moles/volume] in Blood"
        },
        "valueQuantity": {
          "system": "http://unitsofmeasure.org",
          "value": 4.2,
          "unit": "mmol/L",
          "code": "mmol/L"
        },
        "referenceRange": [
          {
            "low": {
              "value": 3.5,
              "code": "mmol/L",
              "system": "http://unitsofmeasure.org"
            }
          },
          {
            "high": {
              "value": 5.1,
              "code": "mmol/L",
              "system": "http://unitsofmeasure.org"
            }
          }
        ],
        "text": {
          "status": "generated",
          "div": "<div xmlns=\"http://www.w3.org/1999/xhtml\"><table class=\"hl7__eu__lab__report\"><tr><th>Test</th><th>29-May-2018</th><th>Reference&#xA0;Range</th><th>Unit</th></tr><tr><td>Potassium [Moles/volume] in Blood</td><td>4.2</td><td>3.5 - 5.1</td><td></td><td>mmol/L</td></tr></table></div>"
        },
        "status": "final",
        "subject": {
          "reference": "urn:uuid:ec4343b2-b322-4700-ab5b-6ba2c144239d",
          "display": "Maria Nohlmans"
        },
        "effectiveDateTime": "2018-05-29T02:59:39Z",
        "specimen": {
          "reference": "urn:uuid:fa061980-2ac3-4713-848b-fc01207d5a80"
        }
      }
    },
    {
      "fullUrl": "urn:uuid:4107669d-1de8-44cd-8828-3a1438672900",
      "resource": {
        "resourceType": "Observation",
        "id": "4107669d-1de8-44cd-8828-3a1438672900",
        "meta": {
          "profile": [
            "http://hl7.eu/fhir/laboratory/StructureDefinition/Observation-resultslab-eu-lab"
          ]
        },
        "performer": [
          {
            "display": "The Central European Lab"
          }
        ],
        "category": [
          {
            "coding": [
              {
                "system": "http://terminology.hl7.org/CodeSystem/observation-category",
                "code": "laboratory"
              }
            ]
          }
        ],
        "code": {
          "coding": [
            {
              "code": "2069-3",
              "system": "http://loinc.org",
              "display": "Chloride [Moles/volume] in Blood"
            }
          ],
          "text": "Chloride [Moles/volume] in Blood"
        },
        "valueQuantity": {
          "system": "http://unitsofmeasure.org",
          "value": 103.1,
          "unit": "mmol/L",
          "code": "mmol/L"
        },
        "referenceRange": [
          {
            "low": {
              "value": 98,
              "code": "mmol/L",
              "system": "http://unitsofmeasure.org"
            }
          },
          {
            "high": {
              "value": 114,
              "code": "mmol/L",
              "system": "http://unitsofmeasure.org"
            }
          }
        ],
        "text": {
          "status": "generated",
          "div": "<div xmlns=\"http://www.w3.org/1999/xhtml\"><table class=\"hl7__eu__lab__report\"><tr><th>Test</th><th>29-May-2018</th><th>Reference&#xA0;Range</th><th>Unit</th></tr><tr><td>Chloride [Moles/volume] in Blood</td><td>103.1</td><td>98 - 114</td><td></td><td>mmol/L</td></tr></table></div>"
        },
        "status": "final",
        "subject": {
          "reference": "urn:uuid:ec4343b2-b322-4700-ab5b-6ba2c144239d",
          "display": "Maria Nohlmans"
        },
        "effectiveDateTime": "2018-05-29T02:59:39Z",
        "specimen": {
          "reference": "urn:uuid:fa061980-2ac3-4713-848b-fc01207d5a80"
        }
      }
    },
    {
      "fullUrl": "urn:uuid:9b045b71-2af1-44f5-b007-1a796fba719b",
      "resource": {
        "resourceType": "Observation",
        "id": "9b045b71-2af1-44f5-b007-1a796fba719b",
        "meta": {
          "profile": [
            "http://hl7.eu/fhir/laboratory/StructureDefinition/Observation-resultslab-eu-lab"
          ]
        },
        "performer": [
          {
            "display": "The Central European Lab"
          }
        ],
        "category": [
          {
            "coding": [
              {
                "system": "http://terminology.hl7.org/CodeSystem/observation-category",
                "code": "laboratory"
              }
            ]
          }
        ],
        "code": {
          "coding": [
            {
              "code": "20565-8",
              "system": "http://loinc.org",
              "display": "Carbon dioxide, total [Moles/volume] in Blood"
            }
          ],
          "text": "Carbon dioxide, total [Moles/volume] in Blood"
        },
        "valueQuantity": {
          "system": "http://unitsofmeasure.org",
          "value": 28.1,
          "unit": "mmol/L",
          "code": "mmol/L"
        },
        "referenceRange": [
          {
            "low": {
              "value": 22,
              "code": "mmol/L",
              "system": "http://unitsofmeasure.org"
            }
          },
          {
            "high": {
              "value": 32,
              "code": "mmol/L",
              "system": "http://unitsofmeasure.org"
            }
          }
        ],
        "text": {
          "status": "generated",
          "div": "<div xmlns=\"http://www.w3.org/1999/xhtml\"><table class=\"hl7__eu__lab__report\"><tr><th>Test</th><th>29-May-2018</th><th>Reference&#xA0;Range</th><th>Unit</th></tr><tr><td>Carbon dioxide, total [Moles/volume] in Blood</td><td>28.1</td><td>22 - 32</td><td></td><td>mmol/L</td></tr></table></div>"
        },
        "status": "final",
        "subject": {
          "reference": "urn:uuid:ec4343b2-b322-4700-ab5b-6ba2c144239d",
          "display": "Maria Nohlmans"
        },
        "effectiveDateTime": "2018-05-29T02:59:39Z",
        "specimen": {
          "reference": "urn:uuid:fa061980-2ac3-4713-848b-fc01207d5a80"
        }
      }
    },
    {
      "fullUrl": "urn:uuid:72b312d9-7a92-4065-8767-258f6acfc52a",
      "resource": {
        "resourceType": "Observation",
        "id": "72b312d9-7a92-4065-8767-258f6acfc52a",
        "meta": {
          "profile": [
            "http://hl7.eu/fhir/laboratory/StructureDefinition/Observation-resultslab-eu-lab"
          ]
        },
        "performer": [
          {
            "display": "The Central European Lab"
          }
        ],
        "category": [
          {
            "coding": [
              {
                "system": "http://terminology.hl7.org/CodeSystem/observation-category",
                "code": "laboratory"
              }
            ]
          }
        ],
        "code": {
          "coding": [
            {
              "code": "2885-2",
              "system": "http://loinc.org",
              "display": "Protein [Mass/volume] in Serum or Plasma"
            }
          ],
          "text": "Protein [Mass/volume] in Serum or Plasma"
        },
        "valueQuantity": {
          "system": "http://unitsofmeasure.org",
          "value": 7.7,
          "unit": "g/dL",
          "code": "g/dL"
        },
        "referenceRange": [
          {
            "low": {
              "value": 6,
              "code": "g/dL",
              "system": "http://unitsofmeasure.org"
            }
          },
          {
            "high": {
              "value": 8.3,
              "code": "g/dL",
              "system": "http://unitsofmeasure.org"
            }
          }
        ],
        "text": {
          "status": "generated",
          "div": "<div xmlns=\"http://www.w3.org/1999/xhtml\"><table class=\"hl7__eu__lab__report\"><tr><th>Test</th><th>29-May-2018</th><th>Reference&#xA0;Range</th><th>Unit</th></tr><tr><td>Protein [Mass/volume] in Serum or Plasma</td><td>7.7</td><td>6 - 8.3</td><td></td><td>g/dL</td></tr></table></div>"
        },
        "status": "final",
        "subject": {
          "reference": "urn:uuid:ec4343b2-b322-4700-ab5b-6ba2c144239d",
          "display": "Maria Nohlmans"
        },
        "effectiveDateTime": "2018-05-29T02:59:39Z",
        "specimen": {
          "reference": "urn:uuid:dfa94468-3e11-476e-9f36-5300a87219ef"
        }
      }
    },
    {
      "fullUrl": "urn:uuid:67444967-87ca-478d-a1d0-1f20c2520c79",
      "resource": {
        "resourceType": "Observation",
        "id": "67444967-87ca-478d-a1d0-1f20c2520c79",
        "meta": {
          "profile": [
            "http://hl7.eu/fhir/laboratory/StructureDefinition/Observation-resultslab-eu-lab"
          ]
        },
        "performer": [
          {
            "display": "The Central European Lab"
          }
        ],
        "category": [
          {
            "coding": [
              {
                "system": "http://terminology.hl7.org/CodeSystem/observation-category",
                "code": "laboratory"
              }
            ]
          }
        ],
        "code": {
          "coding": [
            {
              "code": "1751-7",
              "system": "http://loinc.org",
              "display": "Albumin [Mass/volume] in Serum or Plasma"
            }
          ],
          "text": "Albumin [Mass/volume] in Serum or Plasma"
        },
        "valueQuantity": {
          "system": "http://unitsofmeasure.org",
          "value": 4.7,
          "unit": "g/dL",
          "code": "g/dL"
        },
        "referenceRange": [
          {
            "low": {
              "value": 3.5,
              "code": "g/dL",
              "system": "http://unitsofmeasure.org"
            }
          },
          {
            "high": {
              "value": 5.5,
              "code": "g/dL",
              "system": "http://unitsofmeasure.org"
            }
          }
        ],
        "text": {
          "status": "generated",
          "div": "<div xmlns=\"http://www.w3.org/1999/xhtml\"><table class=\"hl7__eu__lab__report\"><tr><th>Test</th><th>29-May-2018</th><th>Reference&#xA0;Range</th><th>Unit</th></tr><tr><td>Albumin [Mass/volume] in Serum or Plasma</td><td>4.7</td><td>3.5 - 5.5</td><td></td><td>g/dL</td></tr></table></div>"
        },
        "status": "final",
        "subject": {
          "reference": "urn:uuid:ec4343b2-b322-4700-ab5b-6ba2c144239d",
          "display": "Maria Nohlmans"
        },
        "effectiveDateTime": "2018-05-29T02:59:39Z",
        "specimen": {
          "reference": "urn:uuid:dfa94468-3e11-476e-9f36-5300a87219ef"
        }
      }
    },
    {
      "fullUrl": "urn:uuid:61088e01-8cdb-4262-924c-f2687f4c9793",
      "resource": {
        "resourceType": "Observation",
        "id": "61088e01-8cdb-4262-924c-f2687f4c9793",
        "meta": {
          "profile": [
            "http://hl7.eu/fhir/laboratory/StructureDefinition/Observation-resultslab-eu-lab"
          ]
        },
        "performer": [
          {
            "display": "The Central European Lab"
          }
        ],
        "category": [
          {
            "coding": [
              {
                "system": "http://terminology.hl7.org/CodeSystem/observation-category",
                "code": "laboratory"
              }
            ]
          }
        ],
        "code": {
          "coding": [
            {
              "code": "10834-0",
              "system": "http://loinc.org",
              "display": "Globulin [Mass/volume] in Serum by calculation"
            }
          ],
          "text": "Globulin [Mass/volume] in Serum by calculation"
        },
        "valueQuantity": {
          "system": "http://unitsofmeasure.org",
          "value": 3.2,
          "unit": "g/L",
          "code": "g/L"
        },
        "referenceRange": [
          {
            "low": {
              "value": 2,
              "code": "g/L",
              "system": "http://unitsofmeasure.org"
            }
          },
          {
            "high": {
              "value": 3.5,
              "code": "g/L",
              "system": "http://unitsofmeasure.org"
            }
          }
        ],
        "text": {
          "status": "generated",
          "div": "<div xmlns=\"http://www.w3.org/1999/xhtml\"><table class=\"hl7__eu__lab__report\"><tr><th>Test</th><th>29-May-2018</th><th>Reference&#xA0;Range</th><th>Unit</th></tr><tr><td>Globulin [Mass/volume] in Serum by calculation</td><td>3.2</td><td>2 - 3.5</td><td></td><td>g/L</td></tr></table></div>"
        },
        "status": "final",
        "subject": {
          "reference": "urn:uuid:ec4343b2-b322-4700-ab5b-6ba2c144239d",
          "display": "Maria Nohlmans"
        },
        "effectiveDateTime": "2018-05-29T02:59:39Z",
        "specimen": {
          "reference": "urn:uuid:ea9b97a5-6228-4eb7-939e-10aba4defb51"
        }
      }
    },
    {
      "fullUrl": "urn:uuid:96b061a4-69e5-45cb-bceb-7c69aaaed3b7",
      "resource": {
        "resourceType": "Observation",
        "id": "96b061a4-69e5-45cb-bceb-7c69aaaed3b7",
        "meta": {
          "profile": [
            "http://hl7.eu/fhir/laboratory/StructureDefinition/Observation-resultslab-eu-lab"
          ]
        },
        "performer": [
          {
            "display": "The Central European Lab"
          }
        ],
        "category": [
          {
            "coding": [
              {
                "system": "http://terminology.hl7.org/CodeSystem/observation-category",
                "code": "laboratory"
              }
            ]
          }
        ],
        "code": {
          "coding": [
            {
              "code": "1975-2",
              "system": "http://loinc.org",
              "display": "Bilirubin.total [Mass/volume] in Serum or Plasma"
            }
          ],
          "text": "Bilirubin.total [Mass/volume] in Serum or Plasma"
        },
        "valueQuantity": {
          "system": "http://unitsofmeasure.org",
          "value": 0.9,
          "unit": "mg/dL",
          "code": "mg/dL"
        },
        "referenceRange": [
          {
            "low": {
              "value": 0.3,
              "code": "mg/dL",
              "system": "http://unitsofmeasure.org"
            }
          },
          {
            "high": {
              "value": 1.2,
              "code": "mg/dL",
              "system": "http://unitsofmeasure.org"
            }
          }
        ],
        "text": {
          "status": "generated",
          "div": "<div xmlns=\"http://www.w3.org/1999/xhtml\"><table class=\"hl7__eu__lab__report\"><tr><th>Test</th><th>29-May-2018</th><th>Reference&#xA0;Range</th><th>Unit</th></tr><tr><td>Bilirubin.total [Mass/volume] in Serum or Plasma</td><td>0.9</td><td>0.3 - 1.2</td><td></td><td>mg/dL</td></tr></table></div>"
        },
        "status": "final",
        "subject": {
          "reference": "urn:uuid:ec4343b2-b322-4700-ab5b-6ba2c144239d",
          "display": "Maria Nohlmans"
        },
        "effectiveDateTime": "2018-05-29T02:59:39Z",
        "specimen": {
          "reference": "urn:uuid:dfa94468-3e11-476e-9f36-5300a87219ef"
        }
      }
    },
    {
      "fullUrl": "urn:uuid:52c4bf9d-047e-45f4-a872-3ec597e9c1ee",
      "resource": {
        "resourceType": "Observation",
        "id": "52c4bf9d-047e-45f4-a872-3ec597e9c1ee",
        "meta": {
          "profile": [
            "http://hl7.eu/fhir/laboratory/StructureDefinition/Observation-resultslab-eu-lab"
          ]
        },
        "performer": [
          {
            "display": "The Central European Lab"
          }
        ],
        "category": [
          {
            "coding": [
              {
                "system": "http://terminology.hl7.org/CodeSystem/observation-category",
                "code": "laboratory"
              }
            ]
          }
        ],
        "code": {
          "coding": [
            {
              "code": "6768-6",
              "system": "http://loinc.org",
              "display": "Alkaline phosphatase [Enzymatic activity/volume] in Serum or Plasma"
            }
          ],
          "text": "Alkaline phosphatase [Enzymatic activity/volume] in Serum or Plasma"
        },
        "valueQuantity": {
          "system": "http://unitsofmeasure.org",
          "value": 41.9,
          "unit": "U/L",
          "code": "U/L"
        },
        "referenceRange": [
          {
            "low": {
              "value": 44,
              "code": "U/L",
              "system": "http://unitsofmeasure.org"
            }
          },
          {
            "high": {
              "value": 142,
              "code": "U/L",
              "system": "http://unitsofmeasure.org"
            }
          }
        ],
        "interpretation": [
          {
            "coding": [
              {
                "code": "L",
                "system": "http://terminology.hl7.org/CodeSystem/v3-ObservationInterpretation",
                "display": "Low"
              }
            ]
          }
        ],
        "text": {
          "status": "generated",
          "div": "<div xmlns=\"http://www.w3.org/1999/xhtml\"><table class=\"hl7__eu__lab__report\"><tr><th>Test</th><th>29-May-2018</th><th>Reference&#xA0;Range</th><th>Unit</th></tr><tr><td>Alkaline phosphatase [Enzymatic activity/volume] in Serum or Plasma</td><td>41.9</td><td>44 - 142</td><td>L</td><td>U/L</td></tr></table></div>"
        },
        "status": "final",
        "subject": {
          "reference": "urn:uuid:ec4343b2-b322-4700-ab5b-6ba2c144239d",
          "display": "Maria Nohlmans"
        },
        "effectiveDateTime": "2018-05-29T02:59:39Z",
        "specimen": {
          "reference": "urn:uuid:dfa94468-3e11-476e-9f36-5300a87219ef"
        }
      }
    },
    {
      "fullUrl": "urn:uuid:669f2c7d-0a62-4131-855d-5b3d530b8280",
      "resource": {
        "resourceType": "Observation",
        "id": "669f2c7d-0a62-4131-855d-5b3d530b8280",
        "meta": {
          "profile": [
            "http://hl7.eu/fhir/laboratory/StructureDefinition/Observation-resultslab-eu-lab"
          ]
        },
        "performer": [
          {
            "display": "The Central European Lab"
          }
        ],
        "category": [
          {
            "coding": [
              {
                "system": "http://terminology.hl7.org/CodeSystem/observation-category",
                "code": "laboratory"
              }
            ]
          }
        ],
        "code": {
          "coding": [
            {
              "code": "1742-6",
              "system": "http://loinc.org",
              "display": "Alanine aminotransferase [Enzymatic activity/volume] in Serum or Plasma"
            }
          ],
          "text": "Alanine aminotransferase [Enzymatic activity/volume] in Serum or Plasma"
        },
        "valueQuantity": {
          "system": "http://unitsofmeasure.org",
          "value": 40,
          "unit": "U/L",
          "code": "U/L"
        },
        "referenceRange": [
          {
            "low": {
              "value": 7,
              "code": "U/L",
              "system": "http://unitsofmeasure.org"
            }
          },
          {
            "high": {
              "value": 40,
              "code": "U/L",
              "system": "http://unitsofmeasure.org"
            }
          }
        ],
        "text": {
          "status": "generated",
          "div": "<div xmlns=\"http://www.w3.org/1999/xhtml\"><table class=\"hl7__eu__lab__report\"><tr><th>Test</th><th>29-May-2018</th><th>Reference&#xA0;Range</th><th>Unit</th></tr><tr><td>Alanine aminotransferase [Enzymatic activity/volume] in Serum or Plasma</td><td>40.0</td><td>7 - 40</td><td></td><td>U/L</td></tr></table></div>"
        },
        "status": "final",
        "subject": {
          "reference": "urn:uuid:ec4343b2-b322-4700-ab5b-6ba2c144239d",
          "display": "Maria Nohlmans"
        },
        "effectiveDateTime": "2018-05-29T02:59:39Z",
        "specimen": {
          "reference": "urn:uuid:dfa94468-3e11-476e-9f36-5300a87219ef"
        }
      }
    },
    {
      "fullUrl": "urn:uuid:2943ca2a-6e53-4635-808a-942bf2b5374c",
      "resource": {
        "resourceType": "Observation",
        "id": "2943ca2a-6e53-4635-808a-942bf2b5374c",
        "meta": {
          "profile": [
            "http://hl7.eu/fhir/laboratory/StructureDefinition/Observation-resultslab-eu-lab"
          ]
        },
        "performer": [
          {
            "display": "The Central European Lab"
          }
        ],
        "category": [
          {
            "coding": [
              {
                "system": "http://terminology.hl7.org/CodeSystem/observation-category",
                "code": "laboratory"
              }
            ]
          }
        ],
        "code": {
          "coding": [
            {
              "code": "1920-8",
              "system": "http://loinc.org",
              "display": "Aspartate aminotransferase [Enzymatic activity/volume] in Serum or Plasma"
            }
          ],
          "text": "Aspartate aminotransferase [Enzymatic activity/volume] in Serum or Plasma"
        },
        "valueQuantity": {
          "system": "http://unitsofmeasure.org",
          "value": 25.1,
          "unit": "U/L",
          "code": "U/L"
        },
        "referenceRange": [
          {
            "low": {
              "value": 10,
              "code": "U/L",
              "system": "http://unitsofmeasure.org"
            }
          },
          {
            "high": {
              "value": 40,
              "code": "U/L",
              "system": "http://unitsofmeasure.org"
            }
          }
        ],
        "text": {
          "status": "generated",
          "div": "<div xmlns=\"http://www.w3.org/1999/xhtml\"><table class=\"hl7__eu__lab__report\"><tr><th>Test</th><th>29-May-2018</th><th>Reference&#xA0;Range</th><th>Unit</th></tr><tr><td>Aspartate aminotransferase [Enzymatic activity/volume] in Serum or Plasma</td><td>25.1</td><td>10 - 40</td><td></td><td>U/L</td></tr></table></div>"
        },
        "status": "final",
        "subject": {
          "reference": "urn:uuid:ec4343b2-b322-4700-ab5b-6ba2c144239d",
          "display": "Maria Nohlmans"
        },
        "effectiveDateTime": "2018-05-29T02:59:39Z",
        "specimen": {
          "reference": "urn:uuid:dfa94468-3e11-476e-9f36-5300a87219ef"
        }
      }
    },
    {
      "fullUrl": "urn:uuid:c12a659d-fb07-474e-8a22-793a17cd23a9",
      "resource": {
        "resourceType": "Observation",
        "id": "c12a659d-fb07-474e-8a22-793a17cd23a9",
        "meta": {
          "profile": [
            "http://hl7.eu/fhir/laboratory/StructureDefinition/Observation-resultslab-eu-lab"
          ]
        },
        "performer": [
          {
            "display": "The Central European Lab"
          }
        ],
        "category": [
          {
            "coding": [
              {
                "system": "http://terminology.hl7.org/CodeSystem/observation-category",
                "code": "laboratory"
              }
            ]
          }
        ],
        "code": {
          "coding": [
            {
              "code": "5767-9",
              "system": "http://loinc.org",
              "display": "Appearance of Urine"
            }
          ],
          "text": "Appearance of Urine"
        },
        "text": {
          "status": "generated",
          "div": "<div xmlns=\"http://www.w3.org/1999/xhtml\"><table class=\"hl7__eu__lab__report\"><tr><th>Test</th><th>29-May-2018</th><th>Reference&#xA0;Range</th><th>Unit</th></tr><tr><td>Appearance of Urine</td></tr></table></div>"
        },
        "status": "final",
        "subject": {
          "reference": "urn:uuid:ec4343b2-b322-4700-ab5b-6ba2c144239d",
          "display": "Maria Nohlmans"
        },
        "effectiveDateTime": "2018-05-29T02:59:39Z",
        "specimen": {
          "reference": "urn:uuid:6eecbdf5-56cd-4e2d-858c-3c6c06c61c70"
        }
      }
    },
    {
      "fullUrl": "urn:uuid:4ec30fe2-eb08-4592-b02d-ce340a128551",
      "resource": {
        "resourceType": "Observation",
        "id": "4ec30fe2-eb08-4592-b02d-ce340a128551",
        "meta": {
          "profile": [
            "http://hl7.eu/fhir/laboratory/StructureDefinition/Observation-resultslab-eu-lab"
          ]
        },
        "performer": [
          {
            "display": "The Central European Lab"
          }
        ],
        "category": [
          {
            "coding": [
              {
                "system": "http://terminology.hl7.org/CodeSystem/observation-category",
                "code": "laboratory"
              }
            ]
          }
        ],
        "code": {
          "coding": [
            {
              "code": "34533-0",
              "system": "http://loinc.org",
              "display": "Odor of Urine"
            }
          ],
          "text": "Odor of Urine"
        },
        "text": {
          "status": "generated",
          "div": "<div xmlns=\"http://www.w3.org/1999/xhtml\"><table class=\"hl7__eu__lab__report\"><tr><th>Test</th><th>29-May-2018</th><th>Reference&#xA0;Range</th><th>Unit</th></tr><tr><td>Odor of Urine</td></tr></table></div>"
        },
        "status": "final",
        "subject": {
          "reference": "urn:uuid:ec4343b2-b322-4700-ab5b-6ba2c144239d",
          "display": "Maria Nohlmans"
        },
        "effectiveDateTime": "2018-05-29T02:59:39Z",
        "specimen": {
          "reference": "urn:uuid:6eecbdf5-56cd-4e2d-858c-3c6c06c61c70"
        }
      }
    },
    {
      "fullUrl": "urn:uuid:09a42704-6417-4b77-9698-9c8ddab2a427",
      "resource": {
        "resourceType": "Observation",
        "id": "09a42704-6417-4b77-9698-9c8ddab2a427",
        "meta": {
          "profile": [
            "http://hl7.eu/fhir/laboratory/StructureDefinition/Observation-resultslab-eu-lab"
          ]
        },
        "performer": [
          {
            "display": "The Central European Lab"
          }
        ],
        "category": [
          {
            "coding": [
              {
                "system": "http://terminology.hl7.org/CodeSystem/observation-category",
                "code": "laboratory"
              }
            ]
          }
        ],
        "code": {
          "coding": [
            {
              "code": "32167-9",
              "system": "http://loinc.org",
              "display": "Clarity of Urine"
            }
          ],
          "text": "Clarity of Urine"
        },
        "text": {
          "status": "generated",
          "div": "<div xmlns=\"http://www.w3.org/1999/xhtml\"><table class=\"hl7__eu__lab__report\"><tr><th>Test</th><th>29-May-2018</th><th>Reference&#xA0;Range</th><th>Unit</th></tr><tr><td>Clarity of Urine</td></tr></table></div>"
        },
        "status": "final",
        "subject": {
          "reference": "urn:uuid:ec4343b2-b322-4700-ab5b-6ba2c144239d",
          "display": "Maria Nohlmans"
        },
        "effectiveDateTime": "2018-05-29T02:59:39Z",
        "specimen": {
          "reference": "urn:uuid:6eecbdf5-56cd-4e2d-858c-3c6c06c61c70"
        }
      }
    },
    {
      "fullUrl": "urn:uuid:fa0e91de-5aa3-43e2-8c18-49ae5338e171",
      "resource": {
        "resourceType": "Observation",
        "id": "fa0e91de-5aa3-43e2-8c18-49ae5338e171",
        "meta": {
          "profile": [
            "http://hl7.eu/fhir/laboratory/StructureDefinition/Observation-resultslab-eu-lab"
          ]
        },
        "performer": [
          {
            "display": "The Central European Lab"
          }
        ],
        "category": [
          {
            "coding": [
              {
                "system": "http://terminology.hl7.org/CodeSystem/observation-category",
                "code": "laboratory"
              }
            ]
          }
        ],
        "code": {
          "coding": [
            {
              "code": "5778-6",
              "system": "http://loinc.org",
              "display": "Color of Urine"
            }
          ],
          "text": "Color of Urine"
        },
        "text": {
          "status": "generated",
          "div": "<div xmlns=\"http://www.w3.org/1999/xhtml\"><table class=\"hl7__eu__lab__report\"><tr><th>Test</th><th>29-May-2018</th><th>Reference&#xA0;Range</th><th>Unit</th></tr><tr><td>Color of Urine</td></tr></table></div>"
        },
        "status": "final",
        "subject": {
          "reference": "urn:uuid:ec4343b2-b322-4700-ab5b-6ba2c144239d",
          "display": "Maria Nohlmans"
        },
        "effectiveDateTime": "2018-05-29T02:59:39Z",
        "specimen": {
          "reference": "urn:uuid:6eecbdf5-56cd-4e2d-858c-3c6c06c61c70"
        }
      }
    },
    {
      "fullUrl": "urn:uuid:56820018-acb1-4043-a151-20c7a90d8fe2",
      "resource": {
        "resourceType": "Observation",
        "id": "56820018-acb1-4043-a151-20c7a90d8fe2",
        "meta": {
          "profile": [
            "http://hl7.eu/fhir/laboratory/StructureDefinition/Observation-resultslab-eu-lab"
          ]
        },
        "performer": [
          {
            "display": "The Central European Lab"
          }
        ],
        "category": [
          {
            "coding": [
              {
                "system": "http://terminology.hl7.org/CodeSystem/observation-category",
                "code": "laboratory"
              }
            ]
          }
        ],
        "code": {
          "coding": [
            {
              "code": "5792-7",
              "system": "http://loinc.org",
              "display": "Glucose [Mass/volume] in Urine by Test strip"
            }
          ],
          "text": "Glucose [Mass/volume] in Urine by Test strip"
        },
        "valueQuantity": {
          "system": "http://unitsofmeasure.org",
          "value": 2.4,
          "unit": "mg/dL",
          "code": "mg/dL"
        },
        "referenceRange": [
          {
            "low": {
              "value": 0.8,
              "code": "mg/dL",
              "system": "http://unitsofmeasure.org"
            }
          },
          {
            "high": {
              "value": 0,
              "code": "mg/dL",
              "system": "http://unitsofmeasure.org"
            }
          }
        ],
        "interpretation": [
          {
            "coding": [
              {
                "code": "H",
                "system": "http://terminology.hl7.org/CodeSystem/v3-ObservationInterpretation",
                "display": "High"
              }
            ]
          }
        ],
        "text": {
          "status": "generated",
          "div": "<div xmlns=\"http://www.w3.org/1999/xhtml\"><table class=\"hl7__eu__lab__report\"><tr><th>Test</th><th>29-May-2018</th><th>Reference&#xA0;Range</th><th>Unit</th></tr><tr><td>Glucose [Mass/volume] in Urine by Test strip</td><td>2.4</td><td>0.8 - 0</td><td>H</td><td>mg/dL</td></tr></table></div>"
        },
        "status": "final",
        "subject": {
          "reference": "urn:uuid:ec4343b2-b322-4700-ab5b-6ba2c144239d",
          "display": "Maria Nohlmans"
        },
        "effectiveDateTime": "2018-05-29T02:59:39Z",
        "specimen": {
          "reference": "urn:uuid:6eecbdf5-56cd-4e2d-858c-3c6c06c61c70"
        }
      }
    },
    {
      "fullUrl": "urn:uuid:76b0ba52-a046-425a-a8b4-65466bd2713a",
      "resource": {
        "resourceType": "Observation",
        "id": "76b0ba52-a046-425a-a8b4-65466bd2713a",
        "meta": {
          "profile": [
            "http://hl7.eu/fhir/laboratory/StructureDefinition/Observation-resultslab-eu-lab"
          ]
        },
        "performer": [
          {
            "display": "The Central European Lab"
          }
        ],
        "category": [
          {
            "coding": [
              {
                "system": "http://terminology.hl7.org/CodeSystem/observation-category",
                "code": "laboratory"
              }
            ]
          }
        ],
        "code": {
          "coding": [
            {
              "code": "25428-4",
              "system": "http://loinc.org",
              "display": "Glucose [Presence] in Urine by Test strip"
            }
          ],
          "text": "Glucose [Presence] in Urine by Test strip"
        },
        "text": {
          "status": "generated",
          "div": "<div xmlns=\"http://www.w3.org/1999/xhtml\"><table class=\"hl7__eu__lab__report\"><tr><th>Test</th><th>29-May-2018</th><th>Reference&#xA0;Range</th><th>Unit</th></tr><tr><td>Glucose [Presence] in Urine by Test strip</td></tr></table></div>"
        },
        "status": "final",
        "subject": {
          "reference": "urn:uuid:ec4343b2-b322-4700-ab5b-6ba2c144239d",
          "display": "Maria Nohlmans"
        },
        "effectiveDateTime": "2018-05-29T02:59:39Z",
        "specimen": {
          "reference": "urn:uuid:6eecbdf5-56cd-4e2d-858c-3c6c06c61c70"
        }
      }
    },
    {
      "fullUrl": "urn:uuid:6137040c-ffb0-4c0b-b273-ee1a1513c222",
      "resource": {
        "resourceType": "Observation",
        "id": "6137040c-ffb0-4c0b-b273-ee1a1513c222",
        "meta": {
          "profile": [
            "http://hl7.eu/fhir/laboratory/StructureDefinition/Observation-resultslab-eu-lab"
          ]
        },
        "performer": [
          {
            "display": "The Central European Lab"
          }
        ],
        "category": [
          {
            "coding": [
              {
                "system": "http://terminology.hl7.org/CodeSystem/observation-category",
                "code": "laboratory"
              }
            ]
          }
        ],
        "code": {
          "coding": [
            {
              "code": "20505-4",
              "system": "http://loinc.org",
              "display": "Bilirubin.total [Mass/volume] in Urine by Test strip"
            }
          ],
          "text": "Bilirubin.total [Mass/volume] in Urine by Test strip"
        },
        "valueQuantity": {
          "system": "http://unitsofmeasure.org",
          "value": 0.2,
          "unit": "mg/dL",
          "code": "mg/dL"
        },
        "referenceRange": [
          {
            "low": {
              "value": 0,
              "code": "mg/dL",
              "system": "http://unitsofmeasure.org"
            }
          },
          {
            "high": {
              "value": 1.5,
              "code": "mg/dL",
              "system": "http://unitsofmeasure.org"
            }
          }
        ],
        "text": {
          "status": "generated",
          "div": "<div xmlns=\"http://www.w3.org/1999/xhtml\"><table class=\"hl7__eu__lab__report\"><tr><th>Test</th><th>29-May-2018</th><th>Reference&#xA0;Range</th><th>Unit</th></tr><tr><td>Bilirubin.total [Mass/volume] in Urine by Test strip</td><td>0.2</td><td>0 - 1.5</td><td></td><td>mg/dL</td></tr></table></div>"
        },
        "status": "final",
        "subject": {
          "reference": "urn:uuid:ec4343b2-b322-4700-ab5b-6ba2c144239d",
          "display": "Maria Nohlmans"
        },
        "effectiveDateTime": "2018-05-29T02:59:39Z",
        "specimen": {
          "reference": "urn:uuid:6eecbdf5-56cd-4e2d-858c-3c6c06c61c70"
        }
      }
    },
    {
      "fullUrl": "urn:uuid:80cf5d47-e8b8-46d7-82ef-8112db225eed",
      "resource": {
        "resourceType": "Observation",
        "id": "80cf5d47-e8b8-46d7-82ef-8112db225eed",
        "meta": {
          "profile": [
            "http://hl7.eu/fhir/laboratory/StructureDefinition/Observation-resultslab-eu-lab"
          ]
        },
        "performer": [
          {
            "display": "The Central European Lab"
          }
        ],
        "category": [
          {
            "coding": [
              {
                "system": "http://terminology.hl7.org/CodeSystem/observation-category",
                "code": "laboratory"
              }
            ]
          }
        ],
        "code": {
          "coding": [
            {
              "code": "5770-3",
              "system": "http://loinc.org",
              "display": "Bilirubin.total [Presence] in Urine by Test strip"
            }
          ],
          "text": "Bilirubin.total [Presence] in Urine by Test strip"
        },
        "text": {
          "status": "generated",
          "div": "<div xmlns=\"http://www.w3.org/1999/xhtml\"><table class=\"hl7__eu__lab__report\"><tr><th>Test</th><th>29-May-2018</th><th>Reference&#xA0;Range</th><th>Unit</th></tr><tr><td>Bilirubin.total [Presence] in Urine by Test strip</td></tr></table></div>"
        },
        "status": "final",
        "subject": {
          "reference": "urn:uuid:ec4343b2-b322-4700-ab5b-6ba2c144239d",
          "display": "Maria Nohlmans"
        },
        "effectiveDateTime": "2018-05-29T02:59:39Z",
        "specimen": {
          "reference": "urn:uuid:6eecbdf5-56cd-4e2d-858c-3c6c06c61c70"
        }
      }
    },
    {
      "fullUrl": "urn:uuid:12d5e6be-b3f1-4226-91d6-722c1f1c082e",
      "resource": {
        "resourceType": "Observation",
        "id": "12d5e6be-b3f1-4226-91d6-722c1f1c082e",
        "meta": {
          "profile": [
            "http://hl7.eu/fhir/laboratory/StructureDefinition/Observation-resultslab-eu-lab"
          ]
        },
        "performer": [
          {
            "display": "The Central European Lab"
          }
        ],
        "category": [
          {
            "coding": [
              {
                "system": "http://terminology.hl7.org/CodeSystem/observation-category",
                "code": "laboratory"
              }
            ]
          }
        ],
        "code": {
          "coding": [
            {
              "code": "5797-6",
              "system": "http://loinc.org",
              "display": "Ketones [Mass/volume] in Urine by Test strip"
            }
          ],
          "text": "Ketones [Mass/volume] in Urine by Test strip"
        },
        "valueQuantity": {
          "system": "http://unitsofmeasure.org",
          "value": 17.7,
          "unit": "mg/dL",
          "code": "mg/dL"
        },
        "referenceRange": [
          {
            "low": {
              "value": 0,
              "code": "mg/dL",
              "system": "http://unitsofmeasure.org"
            }
          },
          {
            "high": {
              "value": 8,
              "code": "mg/dL",
              "system": "http://unitsofmeasure.org"
            }
          }
        ],
        "interpretation": [
          {
            "coding": [
              {
                "code": "H",
                "system": "http://terminology.hl7.org/CodeSystem/v3-ObservationInterpretation",
                "display": "High"
              }
            ]
          }
        ],
        "text": {
          "status": "generated",
          "div": "<div xmlns=\"http://www.w3.org/1999/xhtml\"><table class=\"hl7__eu__lab__report\"><tr><th>Test</th><th>29-May-2018</th><th>Reference&#xA0;Range</th><th>Unit</th></tr><tr><td>Ketones [Mass/volume] in Urine by Test strip</td><td>17.7</td><td>0 - 8</td><td>H</td><td>mg/dL</td></tr></table></div>"
        },
        "status": "final",
        "subject": {
          "reference": "urn:uuid:ec4343b2-b322-4700-ab5b-6ba2c144239d",
          "display": "Maria Nohlmans"
        },
        "effectiveDateTime": "2018-05-29T02:59:39Z",
        "specimen": {
          "reference": "urn:uuid:6eecbdf5-56cd-4e2d-858c-3c6c06c61c70"
        }
      }
    },
    {
      "fullUrl": "urn:uuid:0225d34a-371d-447a-bf7e-99962266ae14",
      "resource": {
        "resourceType": "Observation",
        "id": "0225d34a-371d-447a-bf7e-99962266ae14",
        "meta": {
          "profile": [
            "http://hl7.eu/fhir/laboratory/StructureDefinition/Observation-resultslab-eu-lab"
          ]
        },
        "performer": [
          {
            "display": "The Central European Lab"
          }
        ],
        "category": [
          {
            "coding": [
              {
                "system": "http://terminology.hl7.org/CodeSystem/observation-category",
                "code": "laboratory"
              }
            ]
          }
        ],
        "code": {
          "coding": [
            {
              "code": "2514-8",
              "system": "http://loinc.org",
              "display": "Ketones [Presence] in Urine by Test strip"
            }
          ],
          "text": "Ketones [Presence] in Urine by Test strip"
        },
        "text": {
          "status": "generated",
          "div": "<div xmlns=\"http://www.w3.org/1999/xhtml\"><table class=\"hl7__eu__lab__report\"><tr><th>Test</th><th>29-May-2018</th><th>Reference&#xA0;Range</th><th>Unit</th></tr><tr><td>Ketones [Presence] in Urine by Test strip</td></tr></table></div>"
        },
        "status": "final",
        "subject": {
          "reference": "urn:uuid:ec4343b2-b322-4700-ab5b-6ba2c144239d",
          "display": "Maria Nohlmans"
        },
        "effectiveDateTime": "2018-05-29T02:59:39Z",
        "specimen": {
          "reference": "urn:uuid:6eecbdf5-56cd-4e2d-858c-3c6c06c61c70"
        }
      }
    },
    {
      "fullUrl": "urn:uuid:717f132c-5953-4a60-9548-09acc3b26be3",
      "resource": {
        "resourceType": "Observation",
        "id": "717f132c-5953-4a60-9548-09acc3b26be3",
        "meta": {
          "profile": [
            "http://hl7.eu/fhir/laboratory/StructureDefinition/Observation-resultslab-eu-lab"
          ]
        },
        "performer": [
          {
            "display": "The Central European Lab"
          }
        ],
        "category": [
          {
            "coding": [
              {
                "system": "http://terminology.hl7.org/CodeSystem/observation-category",
                "code": "laboratory"
              }
            ]
          }
        ],
        "code": {
          "coding": [
            {
              "code": "5811-5",
              "system": "http://loinc.org",
              "display": "Specific gravity of Urine by Test strip"
            }
          ],
          "text": "Specific gravity of Urine by Test strip"
        },
        "valueQuantity": {
          "system": "http://unitsofmeasure.org",
          "value": 1,
          "unit": "{nominal}",
          "code": "{nominal}"
        },
        "referenceRange": [
          {
            "low": {
              "value": 1.01,
              "code": "g/mL",
              "system": "http://unitsofmeasure.org"
            }
          },
          {
            "high": {
              "value": 1.03,
              "code": "g/mL",
              "system": "http://unitsofmeasure.org"
            }
          }
        ],
        "interpretation": [
          {
            "coding": [
              {
                "code": "L",
                "system": "http://terminology.hl7.org/CodeSystem/v3-ObservationInterpretation",
                "display": "Low"
              }
            ]
          }
        ],
        "text": {
          "status": "generated",
          "div": "<div xmlns=\"http://www.w3.org/1999/xhtml\"><table class=\"hl7__eu__lab__report\"><tr><th>Test</th><th>29-May-2018</th><th>Reference&#xA0;Range</th><th>Unit</th></tr><tr><td>Specific gravity of Urine by Test strip</td><td>1.0</td><td>1.01 - 1.03</td><td>L</td><td>{nominal}</td></tr></table></div>"
        },
        "status": "final",
        "subject": {
          "reference": "urn:uuid:ec4343b2-b322-4700-ab5b-6ba2c144239d",
          "display": "Maria Nohlmans"
        },
        "effectiveDateTime": "2018-05-29T02:59:39Z",
        "specimen": {
          "reference": "urn:uuid:6eecbdf5-56cd-4e2d-858c-3c6c06c61c70"
        }
      }
    },
    {
      "fullUrl": "urn:uuid:42dd0e98-e94a-4090-81f5-fa3eda9a5d1a",
      "resource": {
        "resourceType": "Observation",
        "id": "42dd0e98-e94a-4090-81f5-fa3eda9a5d1a",
        "meta": {
          "profile": [
            "http://hl7.eu/fhir/laboratory/StructureDefinition/Observation-resultslab-eu-lab"
          ]
        },
        "performer": [
          {
            "display": "The Central European Lab"
          }
        ],
        "category": [
          {
            "coding": [
              {
                "system": "http://terminology.hl7.org/CodeSystem/observation-category",
                "code": "laboratory"
              }
            ]
          }
        ],
        "code": {
          "coding": [
            {
              "code": "5803-2",
              "system": "http://loinc.org",
              "display": "pH of Urine by Test strip"
            }
          ],
          "text": "pH of Urine by Test strip"
        },
        "valueQuantity": {
          "system": "http://unitsofmeasure.org",
          "value": 6.3,
          "unit": "pH",
          "code": "pH"
        },
        "referenceRange": [
          {
            "low": {
              "value": 4.6,
              "code": "pH",
              "system": "http://unitsofmeasure.org"
            }
          },
          {
            "high": {
              "value": 7.5,
              "code": "pH",
              "system": "http://unitsofmeasure.org"
            }
          }
        ],
        "text": {
          "status": "generated",
          "div": "<div xmlns=\"http://www.w3.org/1999/xhtml\"><table class=\"hl7__eu__lab__report\"><tr><th>Test</th><th>29-May-2018</th><th>Reference&#xA0;Range</th><th>Unit</th></tr><tr><td>pH of Urine by Test strip</td><td>6.3</td><td>4.6 - 7.5</td><td></td><td>pH</td></tr></table></div>"
        },
        "status": "final",
        "subject": {
          "reference": "urn:uuid:ec4343b2-b322-4700-ab5b-6ba2c144239d",
          "display": "Maria Nohlmans"
        },
        "effectiveDateTime": "2018-05-29T02:59:39Z",
        "specimen": {
          "reference": "urn:uuid:6eecbdf5-56cd-4e2d-858c-3c6c06c61c70"
        }
      }
    },
    {
      "fullUrl": "urn:uuid:48060ff7-3f45-4adb-b60c-7ed1ae6db064",
      "resource": {
        "resourceType": "Observation",
        "id": "48060ff7-3f45-4adb-b60c-7ed1ae6db064",
        "meta": {
          "profile": [
            "http://hl7.eu/fhir/laboratory/StructureDefinition/Observation-resultslab-eu-lab"
          ]
        },
        "performer": [
          {
            "display": "The Central European Lab"
          }
        ],
        "category": [
          {
            "coding": [
              {
                "system": "http://terminology.hl7.org/CodeSystem/observation-category",
                "code": "laboratory"
              }
            ]
          }
        ],
        "code": {
          "coding": [
            {
              "code": "5804-0",
              "system": "http://loinc.org",
              "display": "Protein [Mass/volume] in Urine by Test strip"
            }
          ],
          "text": "Protein [Mass/volume] in Urine by Test strip"
        },
        "valueQuantity": {
          "system": "http://unitsofmeasure.org",
          "value": 282.6,
          "unit": "mg/dL",
          "code": "mg/dL"
        },
        "referenceRange": [
          {
            "low": {
              "value": 0,
              "code": "mg/dL",
              "system": "http://unitsofmeasure.org"
            }
          },
          {
            "high": {
              "value": 14,
              "code": "mg/dL",
              "system": "http://unitsofmeasure.org"
            }
          }
        ],
        "interpretation": [
          {
            "coding": [
              {
                "code": "H",
                "system": "http://terminology.hl7.org/CodeSystem/v3-ObservationInterpretation",
                "display": "High"
              }
            ]
          }
        ],
        "text": {
          "status": "generated",
          "div": "<div xmlns=\"http://www.w3.org/1999/xhtml\"><table class=\"hl7__eu__lab__report\"><tr><th>Test</th><th>29-May-2018</th><th>Reference&#xA0;Range</th><th>Unit</th></tr><tr><td>Protein [Mass/volume] in Urine by Test strip</td><td>282.6</td><td>0 - 14</td><td>H</td><td>mg/dL</td></tr></table></div>"
        },
        "status": "final",
        "subject": {
          "reference": "urn:uuid:ec4343b2-b322-4700-ab5b-6ba2c144239d",
          "display": "Maria Nohlmans"
        },
        "effectiveDateTime": "2018-05-29T02:59:39Z",
        "specimen": {
          "reference": "urn:uuid:6eecbdf5-56cd-4e2d-858c-3c6c06c61c70"
        }
      }
    },
    {
      "fullUrl": "urn:uuid:f2497015-b59f-43a7-ba91-2aad42a30db1",
      "resource": {
        "resourceType": "Observation",
        "id": "f2497015-b59f-43a7-ba91-2aad42a30db1",
        "meta": {
          "profile": [
            "http://hl7.eu/fhir/laboratory/StructureDefinition/Observation-resultslab-eu-lab"
          ]
        },
        "performer": [
          {
            "display": "The Central European Lab"
          }
        ],
        "category": [
          {
            "coding": [
              {
                "system": "http://terminology.hl7.org/CodeSystem/observation-category",
                "code": "laboratory"
              }
            ]
          }
        ],
        "code": {
          "coding": [
            {
              "code": "20454-5",
              "system": "http://loinc.org",
              "display": "Protein [Presence] in Urine by Test strip"
            }
          ],
          "text": "Protein [Presence] in Urine by Test strip"
        },
        "text": {
          "status": "generated",
          "div": "<div xmlns=\"http://www.w3.org/1999/xhtml\"><table class=\"hl7__eu__lab__report\"><tr><th>Test</th><th>29-May-2018</th><th>Reference&#xA0;Range</th><th>Unit</th></tr><tr><td>Protein [Presence] in Urine by Test strip</td></tr></table></div>"
        },
        "status": "final",
        "subject": {
          "reference": "urn:uuid:ec4343b2-b322-4700-ab5b-6ba2c144239d",
          "display": "Maria Nohlmans"
        },
        "effectiveDateTime": "2018-05-29T02:59:39Z",
        "specimen": {
          "reference": "urn:uuid:6eecbdf5-56cd-4e2d-858c-3c6c06c61c70"
        }
      }
    },
    {
      "fullUrl": "urn:uuid:c02aabac-00ce-466f-a3bf-78730a82e6eb",
      "resource": {
        "resourceType": "Observation",
        "id": "c02aabac-00ce-466f-a3bf-78730a82e6eb",
        "meta": {
          "profile": [
            "http://hl7.eu/fhir/laboratory/StructureDefinition/Observation-resultslab-eu-lab"
          ]
        },
        "performer": [
          {
            "display": "The Central European Lab"
          }
        ],
        "category": [
          {
            "coding": [
              {
                "system": "http://terminology.hl7.org/CodeSystem/observation-category",
                "code": "laboratory"
              }
            ]
          }
        ],
        "code": {
          "coding": [
            {
              "code": "5802-4",
              "system": "http://loinc.org",
              "display": "Nitrite [Presence] in Urine by Test strip"
            }
          ],
          "text": "Nitrite [Presence] in Urine by Test strip"
        },
        "text": {
          "status": "generated",
          "div": "<div xmlns=\"http://www.w3.org/1999/xhtml\"><table class=\"hl7__eu__lab__report\"><tr><th>Test</th><th>29-May-2018</th><th>Reference&#xA0;Range</th><th>Unit</th></tr><tr><td>Nitrite [Presence] in Urine by Test strip</td></tr></table></div>"
        },
        "status": "final",
        "subject": {
          "reference": "urn:uuid:ec4343b2-b322-4700-ab5b-6ba2c144239d",
          "display": "Maria Nohlmans"
        },
        "effectiveDateTime": "2018-05-29T02:59:39Z",
        "specimen": {
          "reference": "urn:uuid:6eecbdf5-56cd-4e2d-858c-3c6c06c61c70"
        }
      }
    },
    {
      "fullUrl": "urn:uuid:78273cbf-354e-4612-8af0-b2d346b98a15",
      "resource": {
        "resourceType": "Observation",
        "id": "78273cbf-354e-4612-8af0-b2d346b98a15",
        "meta": {
          "profile": [
            "http://hl7.eu/fhir/laboratory/StructureDefinition/Observation-resultslab-eu-lab"
          ]
        },
        "performer": [
          {
            "display": "The Central European Lab"
          }
        ],
        "category": [
          {
            "coding": [
              {
                "system": "http://terminology.hl7.org/CodeSystem/observation-category",
                "code": "laboratory"
              }
            ]
          }
        ],
        "code": {
          "coding": [
            {
              "code": "5794-3",
              "system": "http://loinc.org",
              "display": "Hemoglobin [Presence] in Urine by Test strip"
            }
          ],
          "text": "Hemoglobin [Presence] in Urine by Test strip"
        },
        "text": {
          "status": "generated",
          "div": "<div xmlns=\"http://www.w3.org/1999/xhtml\"><table class=\"hl7__eu__lab__report\"><tr><th>Test</th><th>29-May-2018</th><th>Reference&#xA0;Range</th><th>Unit</th></tr><tr><td>Hemoglobin [Presence] in Urine by Test strip</td></tr></table></div>"
        },
        "status": "final",
        "subject": {
          "reference": "urn:uuid:ec4343b2-b322-4700-ab5b-6ba2c144239d",
          "display": "Maria Nohlmans"
        },
        "effectiveDateTime": "2018-05-29T02:59:39Z",
        "specimen": {
          "reference": "urn:uuid:6eecbdf5-56cd-4e2d-858c-3c6c06c61c70"
        }
      }
    },
    {
      "fullUrl": "urn:uuid:b77c557d-e4c0-4679-af5f-e88cf705fb63",
      "resource": {
        "resourceType": "Observation",
        "id": "b77c557d-e4c0-4679-af5f-e88cf705fb63",
        "meta": {
          "profile": [
            "http://hl7.eu/fhir/laboratory/StructureDefinition/Observation-resultslab-eu-lab"
          ]
        },
        "performer": [
          {
            "display": "The Central European Lab"
          }
        ],
        "category": [
          {
            "coding": [
              {
                "system": "http://terminology.hl7.org/CodeSystem/observation-category",
                "code": "laboratory"
              }
            ]
          }
        ],
        "code": {
          "coding": [
            {
              "code": "5799-2",
              "system": "http://loinc.org",
              "display": "Leukocyte esterase [Presence] in Urine by Test strip"
            }
          ],
          "text": "Leukocyte esterase [Presence] in Urine by Test strip"
        },
        "text": {
          "status": "generated",
          "div": "<div xmlns=\"http://www.w3.org/1999/xhtml\"><table class=\"hl7__eu__lab__report\"><tr><th>Test</th><th>29-May-2018</th><th>Reference&#xA0;Range</th><th>Unit</th></tr><tr><td>Leukocyte esterase [Presence] in Urine by Test strip</td></tr></table></div>"
        },
        "status": "final",
        "subject": {
          "reference": "urn:uuid:ec4343b2-b322-4700-ab5b-6ba2c144239d",
          "display": "Maria Nohlmans"
        },
        "effectiveDateTime": "2018-05-29T02:59:39Z",
        "specimen": {
          "reference": "urn:uuid:6eecbdf5-56cd-4e2d-858c-3c6c06c61c70"
        }
      }
    },
    {
      "fullUrl": "urn:uuid:9a017c12-dbfb-49a1-a5cc-935b8ca33c85",
      "resource": {
        "resourceType": "Device",
        "id": "9a017c12-dbfb-49a1-a5cc-935b8ca33c85",
        "deviceName": [
          {
            "name": "SYNDERAI Synthetic Generator",
            "type": "manufacturer-name"
          }
        ],
        "version": [
          {
            "value": "5.0"
          }
        ],
        "text": {
          "status": "generated",
          "div": "<div xmlns=\"http://www.w3.org/1999/xhtml\">SYNDERAI Synthetic Generator v5.0</div>"
        },
        "status": "active\"",
        "distinctIdentifier": "synderai-generator-50",
        "manufacturer": "SYNDERAI Project"
      }
    },
    {
      "fullUrl": "urn:uuid:2209e517-d84c-441f-b42d-7667a62e9456",
      "resource": {
        "resourceType": "Provenance",
        "id": "2209e517-d84c-441f-b42d-7667a62e9456",
        "target": [
          {
            "reference": "Patient/ec4343b2-b322-4700-ab5b-6ba2c144239d"
          },
          {
            "reference": "Bundle/1ecde1cc-bd8f-4bd0-a19f-20abd2589625"
          },
          {
            "reference": "Composition/ad8096e1-6d35-4714-8952-d9d37dfd3c6f"
          },
          {
            "reference": "PractitionerRole/74116349-f9be-49e9-bad8-0920081bc8f7"
          },
          {
            "reference": "Practitioner/4c3b3b47-fd91-4a87-84ca-62993693b16f"
          },
          {
            "reference": "PractitionerRole/85f8ad85-0e47-44b8-b126-90a1d636f8a8"
          },
          {
            "reference": "Organization/892de332-392e-40a5-a7a3-eb242042c59a"
          }
        ],
        "activity": {
          "text": "Synthetic Example Data Generation"
        },
        "policy": [
          "https://synderai.net/synderai-synthetic-data-policy"
        ],
        "agent": [
          {
            "type": {
              "text": "author"
            },
            "who": {
              "reference": "Device/9a017c12-dbfb-49a1-a5cc-935b8ca33c85"
            }
          }
        ],
        "reason": [
          {
            "text": "Interoperability Testing and Training (non-clinical use)"
          }
        ],
        "text": {
          "status": "generated",
          "div": "<div xmlns=\"http://www.w3.org/1999/xhtml\">Provenance for SYNDERAI Synthetic Example Data Resource</div>"
        },
        "recorded": "2018-05-29T04:59:39Z"
      }
    },
    {
      "fullUrl": "urn:uuid:74116349-f9be-49e9-bad8-0920081bc8f7",
      "resource": {
        "resourceType": "PractitionerRole",
        "id": "74116349-f9be-49e9-bad8-0920081bc8f7",
        "meta": {
          "profile": [
            "http://hl7.eu/fhir/base/StructureDefinition/practitionerRole-eu"
          ]
        },
        "text": {
          "status": "generated",
          "div": "<div xmlns=\"http://www.w3.org/1999/xhtml\">Laboratory Role Id: 74116349-f9be-49e9-bad8-0920081bc8f7</div>"
        },
        "practitioner": {
          "reference": "urn:uuid:4c3b3b47-fd91-4a87-84ca-62993693b16f"
        }
      }
    },
    {
      "fullUrl": "urn:uuid:4c3b3b47-fd91-4a87-84ca-62993693b16f",
      "resource": {
        "resourceType": "Practitioner",
        "id": "4c3b3b47-fd91-4a87-84ca-62993693b16f",
        "meta": {
          "profile": [
            "http://hl7.eu/fhir/base/StructureDefinition/practitioner-eu"
          ]
        },
        "identifier": [
          {
            "assigner": {
              "display": "HL7 Europe"
            },
            "system": "urn:oid:2.16.840.1.113883.2.51.999",
            "value": "2ffd953f-3c5a-474a-8ca7-a3fb2b8898d9"
          }
        ],
        "name": [
          {
            "prefix": [
              "dr"
            ],
            "given": [
              "Ex"
            ],
            "family": "Ample"
          }
        ],
        "address": [
          {
            "line": [
              "Laboratoire Central Européenne",
              "Boulevard du Jardin Botanique 32"
            ],
            "postalCode": "1000",
            "city": "Brussels",
            "country": "Belgium"
          }
        ],
        "text": {
          "status": "generated",
          "div": "<div xmlns=\"http://www.w3.org/1999/xhtml\">Laboratory: Laboratoire Central Européenne, 1000 Brussels, Belgium</div>"
        }
      }
    }
  ],
  "type": "document",
  "timestamp": "2018-05-29T04:59:39Z"
}
