{
  "resourceType": "Bundle",
  "id": "f9e2a9f0-9037-4ec9-9e8c-3097dd7e7021",
  "meta": {
    "profile": [
      "http://hl7.eu/fhir/laboratory/StructureDefinition/Bundle-eu-lab"
    ]
  },
  "identifier": {
    "assigner": {
      "display": "HL7 Europe"
    },
    "system": "urn:oid:2.16.840.1.113883.2.51.999",
    "value": "f5676cd4-9f44-4bc8-bc3f-b3585b8fff38"
  },
  "entry": [
    {
      "fullUrl": "urn:uuid:aeada2d1-27d1-45ab-87b3-57b9c00afe1e",
      "resource": {
        "resourceType": "Composition",
        "id": "aeada2d1-27d1-45ab-87b3-57b9c00afe1e",
        "meta": {
          "profile": [
            "http://hl7.eu/fhir/laboratory/StructureDefinition/Composition-eu-lab"
          ]
        },
        "identifier": {
          "assigner": {
            "display": "HL7 Europe"
          },
          "system": "urn:oid:2.16.840.1.113883.2.51.999",
          "value": "1d1f66f8-9194-4f35-a5f9-567a00a245a0"
        },
        "author": [
          {
            "reference": "urn:uuid:ad4dba00-0a01-4526-bb3b-d5389627dc74"
          }
        ],
        "category": [
          {
            "coding": [
              {
                "code": "26436-6",
                "system": "http://loinc.org",
                "display": "Laboratory studies (set)"
              }
            ]
          }
        ],
        "type": {
          "coding": [
            {
              "code": "11502-2",
              "system": "http://loinc.org",
              "display": "Laboratory report"
            }
          ],
          "text": "Laboratory Report"
        },
        "section": [
          {
            "code": {
              "coding": [
                {
                  "code": "26436-6",
                  "system": "http://loinc.org",
                  "display": "Laboratory studies (set)"
                }
              ],
              "text": "Laboratory studies"
            },
            "section": [
              {
                "code": {
                  "coding": [
                    {
                      "code": "$18719-5",
                      "system": "http://loinc.org",
                      "display": "Chemistry studies (set)"
                    }
                  ],
                  "text": "Chemistry"
                },
                "entry": [
                  {
                    "reference": "urn:uuid:d8242287-a41f-448b-b585-812487f50639"
                  },
                  {
                    "reference": "urn:uuid:373467b4-14a1-4d07-ab7d-539103709225"
                  },
                  {
                    "reference": "urn:uuid:34d68cb7-bfd2-44bb-9ba1-b2088cebe0be"
                  },
                  {
                    "reference": "urn:uuid:9f094843-0de3-452d-ab6f-b42b83273942"
                  },
                  {
                    "reference": "urn:uuid:ec80e479-bbdb-474f-815f-0146b5eccbfc"
                  },
                  {
                    "reference": "urn:uuid:10d4497f-a4f0-42ec-b7e6-ea41590794bb"
                  },
                  {
                    "reference": "urn:uuid:c648f897-164c-4122-9753-db30692357b1"
                  },
                  {
                    "reference": "urn:uuid:27ced835-d7d0-44db-bc25-0ac16d718541"
                  },
                  {
                    "reference": "urn:uuid:19675e88-f12f-488f-bfde-728258a6f8c3"
                  }
                ],
                "text": {
                  "status": "generated",
                  "div": "<div xmlns=\"http://www.w3.org/1999/xhtml\"><h3>Chemistry</h3><table class=\"hl7__eu__lab__report\"><thead><tr><th>Test</th><th>16-JUL-2018</th><th>Reference&#xA0;Range</th><th>Unit</th></tr></thead><tbody><tr><td>Glucose [Mass/volume] in Blood</td><td>75.3</td><td>70 - 140</td><td>mg/dL</td></tr><tr><td>Urea nitrogen [Mass/volume] in Blood</td><td>12.5</td><td>7 - 30</td><td>mg/dL</td></tr><tr><td>Creatinine [Mass/volume] in Blood</td><td><strong>2.6 H</strong></td><td>0.5 - 1.3</td><td>mg/dL</td></tr><tr><td>Calcium [Mass/volume] in Blood</td><td>9.3</td><td>8.6 - 10.2</td><td>mg/dL</td></tr><tr><td>Sodium [Moles/volume] in Blood</td><td>139.1</td><td>135 - 145</td><td>mmol/L</td></tr><tr><td>Potassium [Moles/volume] in Blood</td><td>5.1</td><td>3.5 - 5.1</td><td>mmol/L</td></tr><tr><td>Chloride [Moles/volume] in Blood</td><td>109.1</td><td>98 - 114</td><td>mmol/L</td></tr><tr><td>Carbon dioxide, total [Moles/volume] in Blood</td><td>26.5</td><td>22 - 32</td><td>mmol/L</td></tr><tr><td>Ketones [Presence] in Urine by Test strip</td><td>Urine ketone test = +++</td><td></td><td></td></tr></tbody></table></div>"
                },
                "title": "Chemistry"
              },
              {
                "code": {
                  "coding": [
                    {
                      "code": "$18729-4",
                      "system": "http://loinc.org",
                      "display": "Urinalysis studies (set)"
                    }
                  ],
                  "text": "Urinalysis"
                },
                "entry": [
                  {
                    "reference": "urn:uuid:926c3f6e-0818-4dca-b290-1c742240344f"
                  },
                  {
                    "reference": "urn:uuid:a499a2ec-9586-4c7b-8b4b-1a3552e25586"
                  },
                  {
                    "reference": "urn:uuid:24f308f8-51e0-45f7-aee2-96766d83a146"
                  },
                  {
                    "reference": "urn:uuid:fcfa4fba-a705-4203-a6b3-da6de637d52d"
                  },
                  {
                    "reference": "urn:uuid:ba180116-5be8-45d0-bfe9-21a431a6f798"
                  },
                  {
                    "reference": "urn:uuid:2bd2f350-b02f-42d0-9d14-fd1c24360939"
                  },
                  {
                    "reference": "urn:uuid:1c557e3c-8c38-4efd-9b09-7bf2ff9c4632"
                  },
                  {
                    "reference": "urn:uuid:7930fa4b-4d8a-47c6-aae0-80aea7eec237"
                  },
                  {
                    "reference": "urn:uuid:35615a02-d709-4f3f-b631-9bacbfb2e53f"
                  },
                  {
                    "reference": "urn:uuid:3c323305-1ae3-4f02-bfd2-abe90a6a77db"
                  },
                  {
                    "reference": "urn:uuid:b4b2d305-539f-4cdb-bddb-d08c46a74266"
                  },
                  {
                    "reference": "urn:uuid:9bcf444d-4638-4f2e-9436-d1e01e702095"
                  }
                ],
                "text": {
                  "status": "generated",
                  "div": "<div xmlns=\"http://www.w3.org/1999/xhtml\"><h3>Urinalysis</h3><table class=\"hl7__eu__lab__report\"><thead><tr><th>Test</th><th>16-JUL-2018</th><th>Reference&#xA0;Range</th><th>Unit</th></tr></thead><tbody><tr><td>Glucose [Mass/volume] in Urine by Test strip</td><td><strong>0.9 H</strong></td><td>0.8 - 0</td><td>mg/dL</td></tr><tr><td>Glucose [Presence] in Urine by Test strip</td><td>++</td><td></td><td></td></tr><tr><td>Bilirubin.total [Mass/volume] in Urine by Test strip</td><td>0.7</td><td>0 - 1.5</td><td>mg/dL</td></tr><tr><td>Bilirubin.total [Presence] in Urine by Test strip</td><td>Finding of bilirubin in urine</td><td></td><td></td></tr><tr><td>Ketones [Mass/volume] in Urine by Test strip</td><td>0.1</td><td>0 - 8</td><td>mg/dL</td></tr><tr><td>Specific gravity of Urine by Test strip</td><td><strong>1.0 L</strong></td><td>1.01 - 1.03</td><td>{nominal}</td></tr><tr><td>pH of Urine by Test strip</td><td>6.6</td><td>4.6 - 7.5</td><td>pH</td></tr><tr><td>Protein [Mass/volume] in Urine by Test strip</td><td><strong>425.4 H</strong></td><td>0 - 14</td><td>mg/dL</td></tr><tr><td>Protein [Presence] in Urine by Test strip</td><td>Urine protein test = +++</td><td></td><td></td></tr><tr><td>Nitrite [Presence] in Urine by Test strip</td><td>Urine nitrite negative</td><td></td><td></td></tr><tr><td>Hemoglobin [Presence] in Urine by Test strip</td><td>Urine blood test = negative</td><td></td><td></td></tr><tr><td>Leukocyte esterase [Presence] in Urine by Test strip</td><td>Urine leukocyte test negative</td><td></td><td></td></tr></tbody></table></div>"
                },
                "title": "Urinalysis"
              },
              {
                "code": {
                  "coding": [
                    {
                      "code": "$LP7846-1",
                      "system": "http://loinc.org",
                      "display": "Specimen information"
                    }
                  ],
                  "text": "Specimen information"
                },
                "entry": [
                  {
                    "reference": "urn:uuid:e271b96c-8a93-41a2-a98a-ce2f0744556f"
                  },
                  {
                    "reference": "urn:uuid:25319153-d735-4219-8a6a-f542f6a14561"
                  },
                  {
                    "reference": "urn:uuid:3775252d-c243-40d7-814e-1aacb7c4dde0"
                  },
                  {
                    "reference": "urn:uuid:37755f4e-beb5-43c9-b38a-a2136a131a4c"
                  }
                ],
                "text": {
                  "status": "generated",
                  "div": "<div xmlns=\"http://www.w3.org/1999/xhtml\"><h3>Specimen information</h3><table class=\"hl7__eu__lab__report\"><thead><tr><th>Test</th><th>16-JUL-2018</th><th>Specimen</th><th></th></tr></thead><tbody><tr><td>Appearance of Urine</td><td>Cloudy urine</td><td>Urine</td><td></td></tr><tr><td>Appearance of Urine</td><td>Urine smell ammoniacal</td><td>Urine</td><td></td></tr><tr><td>Clarity of Urine</td><td>Translucent</td><td>Urine</td><td></td></tr><tr><td>Color of Urine</td><td>Brown color</td><td>Urine</td><td></td></tr></tbody></table></div>"
                },
                "title": "Specimen information"
              }
            ],
            "title": "Laboratory Report"
          },
          {
            "text": {
              "status": "generated",
              "div": "<div xmlns=\"http://www.w3.org/1999/xhtml\"><h3>Annotation</h3><table class=\"hl7__eu__lab__report\"><tr><th>Conclusion and Recommendations based on this report and previous findings known to us</th></tr><tr><td>The patient shows significantly elevated serum creatinine, indicating impaired renal function. Urinalysis reveals marked proteinuria, glucosuria, and ketonuria, with low specific gravity and abnormal urine appearance (cloudy, brown, ammoniacal), but no hematuria or leukocyturia. These findings suggest possible diabetic nephropathy or another chronic kidney disease with tubular dysfunction. Further clinical correlation and nephrology evaluation are recommended.</td></tr></table></div>"
            },
            "code": {
              "coding": [
                {
                  "system": "http://loinc.org",
                  "code": "48767-8",
                  "display": "Annotation comment"
                }
              ]
            },
            "title": "Annotation comment"
          }
        ],
        "status": "final",
        "subject": {
          "reference": "urn:uuid:771586c5-a78f-4e4e-82fb-14fba95e9d1c",
          "display": "Maria Nohlmans"
        },
        "date": "2018-07-16T14:02:04Z",
        "title": "Laboratory Report",
        "confidentiality": "N"
      }
    },
    {
      "fullUrl": "urn:uuid:a3a271f5-19dd-4b0d-bc6a-9e0eeb7a0db1",
      "resource": {
        "resourceType": "DiagnosticReport",
        "id": "a3a271f5-19dd-4b0d-bc6a-9e0eeb7a0db1",
        "meta": {
          "profile": [
            "http://hl7.eu/fhir/laboratory/StructureDefinition/DiagnosticReport-eu-lab"
          ]
        },
        "identifier": [
          {
            "assigner": {
              "display": "HL7 Europe"
            },
            "system": "urn:oid:2.16.840.1.113883.2.51.999",
            "value": "2a6ede07-ddbf-4224-a87b-0e13f6544b28"
          }
        ],
        "extension": [
          {
            "url": "http://hl7.org/fhir/5.0/StructureDefinition/extension-DiagnosticReport.composition",
            "valueReference": {
              "reference": "urn:uuid:1d1f66f8-9194-4f35-a5f9-567a00a245a0"
            }
          }
        ],
        "category": [
          {
            "coding": [
              {
                "code": "26436-6",
                "system": "http://loinc.org",
                "display": "Laboratory studies (set)"
              }
            ]
          }
        ],
        "specimen": [
          {
            "reference": "urn:uuid:61bd7c75-f28e-405d-9f58-d15984c37dab"
          },
          {
            "reference": "urn:uuid:167fc3f2-f93e-42a5-a5c0-5d26b9d8faf4"
          }
        ],
        "result": [
          {
            "reference": "urn:uuid:d8242287-a41f-448b-b585-812487f50639"
          },
          {
            "reference": "urn:uuid:373467b4-14a1-4d07-ab7d-539103709225"
          },
          {
            "reference": "urn:uuid:34d68cb7-bfd2-44bb-9ba1-b2088cebe0be"
          },
          {
            "reference": "urn:uuid:9f094843-0de3-452d-ab6f-b42b83273942"
          },
          {
            "reference": "urn:uuid:ec80e479-bbdb-474f-815f-0146b5eccbfc"
          },
          {
            "reference": "urn:uuid:10d4497f-a4f0-42ec-b7e6-ea41590794bb"
          },
          {
            "reference": "urn:uuid:c648f897-164c-4122-9753-db30692357b1"
          },
          {
            "reference": "urn:uuid:27ced835-d7d0-44db-bc25-0ac16d718541"
          },
          {
            "reference": "urn:uuid:e271b96c-8a93-41a2-a98a-ce2f0744556f"
          },
          {
            "reference": "urn:uuid:25319153-d735-4219-8a6a-f542f6a14561"
          },
          {
            "reference": "urn:uuid:3775252d-c243-40d7-814e-1aacb7c4dde0"
          },
          {
            "reference": "urn:uuid:37755f4e-beb5-43c9-b38a-a2136a131a4c"
          },
          {
            "reference": "urn:uuid:926c3f6e-0818-4dca-b290-1c742240344f"
          },
          {
            "reference": "urn:uuid:a499a2ec-9586-4c7b-8b4b-1a3552e25586"
          },
          {
            "reference": "urn:uuid:24f308f8-51e0-45f7-aee2-96766d83a146"
          },
          {
            "reference": "urn:uuid:fcfa4fba-a705-4203-a6b3-da6de637d52d"
          },
          {
            "reference": "urn:uuid:ba180116-5be8-45d0-bfe9-21a431a6f798"
          },
          {
            "reference": "urn:uuid:19675e88-f12f-488f-bfde-728258a6f8c3"
          },
          {
            "reference": "urn:uuid:2bd2f350-b02f-42d0-9d14-fd1c24360939"
          },
          {
            "reference": "urn:uuid:1c557e3c-8c38-4efd-9b09-7bf2ff9c4632"
          },
          {
            "reference": "urn:uuid:7930fa4b-4d8a-47c6-aae0-80aea7eec237"
          },
          {
            "reference": "urn:uuid:35615a02-d709-4f3f-b631-9bacbfb2e53f"
          },
          {
            "reference": "urn:uuid:3c323305-1ae3-4f02-bfd2-abe90a6a77db"
          },
          {
            "reference": "urn:uuid:b4b2d305-539f-4cdb-bddb-d08c46a74266"
          },
          {
            "reference": "urn:uuid:9bcf444d-4638-4f2e-9436-d1e01e702095"
          }
        ],
        "status": "registered",
        "code": {
          "coding": [
            {
              "code": "11502-2",
              "system": "http://loinc.org",
              "display": "Laboratory report"
            }
          ]
        },
        "subject": {
          "reference": "urn:uuid:771586c5-a78f-4e4e-82fb-14fba95e9d1c",
          "display": "Maria Nohlmans"
        }
      }
    },
    {
      "fullUrl": "urn:uuid:771586c5-a78f-4e4e-82fb-14fba95e9d1c",
      "resource": {
        "resourceType": "Patient",
        "id": "771586c5-a78f-4e4e-82fb-14fba95e9d1c",
        "meta": {
          "security": [
            {
              "system": "http://terminology.hl7.org/CodeSystem/v3-ActReason",
              "code": "HTEST"
            },
            {
              "system": "http://terminology.hl7.org/CodeSystem/v3-ActReason",
              "code": "TRAIN"
            }
          ],
          "tag": [
            {
              "system": "https://synderai.net/fhir/CodeSystem/tags",
              "code": "synthetic",
              "display": "SYNDERAI Synthetic data"
            }
          ],
          "profile": [
            "http://hl7.eu/fhir/base/StructureDefinition/patient-eu-core"
          ]
        },
        "identifier": [
          {
            "type": {
              "coding": [
                {
                  "code": "PT",
                  "system": "http://terminology.hl7.org/CodeSystem/v2-0203"
                }
              ]
            },
            "system": "http://ec.europa.eu/identifier/eci",
            "value": "6886-506417-1"
          },
          {
            "type": {
              "coding": [
                {
                  "code": "MR",
                  "system": "http://terminology.hl7.org/CodeSystem/v2-0203"
                }
              ]
            },
            "system": "http://local.setting.eu/identifier",
            "value": "2cb21ed6-b617-b1f3-2290-589a710de5ee"
          }
        ],
        "name": [
          {
            "family": "Nohlmans"
          },
          {
            "given": [
              "Maria"
            ]
          },
          {
            "text": "Maria Nohlmans"
          }
        ],
        "address": [
          {
            "line": [
              "Alfons-Wulff-Weg 1"
            ],
            "use": "home",
            "type": "physical",
            "postalCode": "25813",
            "city": "Husum",
            "country": "Germany"
          }
        ],
        "telecom": [
          {
            "system": "phone",
            "value": "+49(0)1911 105501"
          }
        ],
        "extension": [
          {
            "url": "http://hl7.org/fhir/StructureDefinition/patient-nationality",
            "valueCodeableConcept": {
              "coding": [
                {
                  "code": "DE",
                  "system": "http://hl7.org/fhir/ValueSet/country"
                }
              ]
            }
          }
        ],
        "text": {
          "status": "generated",
          "div": "<div xmlns=\"http://www.w3.org/1999/xhtml\"><table class=\"hl7__ips\"><tr><td>Maria Nohlmans</td><td>female</td><td>11-Jun-1947</td></tr></table></div>"
        },
        "gender": "female",
        "birthDate": "1947-06-11"
      }
    },
    {
      "fullUrl": "urn:uuid:49884b3d-7f2c-4fcd-9552-aad71815610a",
      "resource": {
        "resourceType": "ServiceRequest",
        "id": "49884b3d-7f2c-4fcd-9552-aad71815610a",
        "meta": {
          "profile": [
            "http://hl7.eu/fhir/laboratory/StructureDefinition/ServiceRequest-eu-lab"
          ]
        },
        "identifier": [
          {
            "system": "http://example.org",
            "value": "52e14ac1-50fb-4605-979b-f75a4db5b473"
          }
        ],
        "specimen": [
          {
            "reference": "urn:uuid:61bd7c75-f28e-405d-9f58-d15984c37dab"
          },
          {
            "reference": "urn:uuid:167fc3f2-f93e-42a5-a5c0-5d26b9d8faf4"
          }
        ],
        "reasonCode": [
          {
            "coding": [
              {
                "code": "401314000",
                "system": "http://snomed.info/sct",
                "display": "Acute non-ST segment elevation myocardial infarction"
              }
            ]
          },
          {
            "coding": [
              {
                "code": "157141000119108",
                "system": "http://snomed.info/sct",
                "display": "Proteinuria due to type 2 diabetes mellitus"
              }
            ]
          },
          {
            "coding": [
              {
                "code": "237602007",
                "system": "http://snomed.info/sct",
                "display": "Metabolic syndrome X"
              }
            ]
          },
          {
            "coding": [
              {
                "code": "90781000119102",
                "system": "http://snomed.info/sct",
                "display": "Microalbuminuria due to type 2 diabetes mellitus"
              }
            ]
          },
          {
            "coding": [
              {
                "code": "127013003",
                "system": "http://snomed.info/sct",
                "display": "Disorder of kidney due to diabetes mellitus"
              }
            ]
          },
          {
            "coding": [
              {
                "code": "59621000",
                "system": "http://snomed.info/sct",
                "display": "Essential hypertension"
              }
            ]
          },
          {
            "coding": [
              {
                "code": "271737000",
                "system": "http://snomed.info/sct",
                "display": "Anemia"
              }
            ]
          },
          {
            "coding": [
              {
                "code": "15777000",
                "system": "http://snomed.info/sct",
                "display": "Prediabetes"
              }
            ]
          }
        ],
        "status": "active",
        "intent": "order",
        "code": {
          "coding": [
            {
              "code": "108252007",
              "system": "http://snomed.info/sct",
              "display": "Laboratory procedure"
            }
          ]
        },
        "subject": {
          "reference": "urn:uuid:771586c5-a78f-4e4e-82fb-14fba95e9d1c",
          "display": "Maria Nohlmans"
        },
        "requester": {
          "reference": "urn:uuid:0f4423d9-06b5-46a1-9ef5-009073a6473e"
        }
      }
    },
    {
      "fullUrl": "urn:uuid:0f4423d9-06b5-46a1-9ef5-009073a6473e",
      "resource": {
        "resourceType": "PractitionerRole",
        "id": "0f4423d9-06b5-46a1-9ef5-009073a6473e",
        "meta": {
          "profile": [
            "http://hl7.eu/fhir/base/StructureDefinition/practitionerRole-eu"
          ]
        },
        "text": {
          "status": "generated",
          "div": "<div xmlns=\"http://www.w3.org/1999/xhtml\">Provider Role Id: 0f4423d9-06b5-46a1-9ef5-009073a6473e</div>"
        },
        "organization": {
          "reference": "urn:uuid:57d374ff-965d-4057-8702-a922a84aa997"
        }
      }
    },
    {
      "fullUrl": "urn:uuid:57d374ff-965d-4057-8702-a922a84aa997",
      "resource": {
        "resourceType": "Organization",
        "id": "57d374ff-965d-4057-8702-a922a84aa997",
        "meta": {
          "profile": [
            "http://hl7.eu/fhir/base/StructureDefinition/organization-eu"
          ]
        },
        "identifier": [
          {
            "assigner": {
              "display": "HL7 Europe"
            },
            "system": "urn:oid:2.16.840.1.113883.2.51.999",
            "value": "7c0910d3-7981-4362-acfc-51ba31091951"
          }
        ],
        "address": [
          {
            "line": [
              "Brinckmannstraße 35"
            ],
            "city": "Husum",
            "postalCode": "25813",
            "country": "Germany"
          }
        ],
        "text": {
          "status": "generated",
          "div": "<div xmlns=\"http://www.w3.org/1999/xhtml\">Provider Organization: Dr. Wolfram Hussels Kieferorthopäde</div>"
        },
        "name": "Dr. Wolfram Hussels Kieferorthopäde"
      }
    },
    {
      "fullUrl": "urn:uuid:61bd7c75-f28e-405d-9f58-d15984c37dab",
      "resource": {
        "resourceType": "Specimen",
        "id": "61bd7c75-f28e-405d-9f58-d15984c37dab",
        "meta": {
          "profile": [
            "http://hl7.eu/fhir/laboratory/StructureDefinition/Specimen-eu-lab"
          ]
        },
        "collection": {
          "collectedDateTime": "2018-07-16"
        },
        "text": {
          "status": "generated",
          "div": "<div xmlns=\"http://www.w3.org/1999/xhtml\"><table class=\"hl7__eu__lab__report\"><tr><th>Specimen</th><th>Collection Date</th></tr><tr><td>Whole blood specimen (specimen)</td><td><span class=\"nb\">16-Jul-2018</span></td></tr></table></div>"
        },
        "type": {
          "coding": [
            {
              "code": "258580003",
              "system": "http://snomed.info/sct",
              "display": "Whole blood specimen (specimen)"
            }
          ]
        }
      }
    },
    {
      "fullUrl": "urn:uuid:167fc3f2-f93e-42a5-a5c0-5d26b9d8faf4",
      "resource": {
        "resourceType": "Specimen",
        "id": "167fc3f2-f93e-42a5-a5c0-5d26b9d8faf4",
        "meta": {
          "profile": [
            "http://hl7.eu/fhir/laboratory/StructureDefinition/Specimen-eu-lab"
          ]
        },
        "collection": {
          "collectedDateTime": "2018-07-16"
        },
        "text": {
          "status": "generated",
          "div": "<div xmlns=\"http://www.w3.org/1999/xhtml\"><table class=\"hl7__eu__lab__report\"><tr><th>Specimen</th><th>Collection Date</th></tr><tr><td>Urine specimen</td><td><span class=\"nb\">16-Jul-2018</span></td></tr></table></div>"
        },
        "type": {
          "coding": [
            {
              "code": "122575003",
              "system": "http://snomed.info/sct",
              "display": "Urine specimen"
            }
          ]
        }
      }
    },
    {
      "fullUrl": "urn:uuid:d8242287-a41f-448b-b585-812487f50639",
      "resource": {
        "resourceType": "Observation",
        "id": "d8242287-a41f-448b-b585-812487f50639",
        "meta": {
          "profile": [
            "http://hl7.eu/fhir/laboratory/StructureDefinition/Observation-resultslab-eu-lab"
          ]
        },
        "performer": [
          {
            "display": "The Central European Lab"
          }
        ],
        "category": [
          {
            "coding": [
              {
                "system": "http://terminology.hl7.org/CodeSystem/observation-category",
                "code": "laboratory"
              }
            ]
          }
        ],
        "code": {
          "coding": [
            {
              "code": "2339-0",
              "system": "http://loinc.org",
              "display": "Glucose [Mass/volume] in Blood"
            }
          ],
          "text": "Glucose [Mass/volume] in Blood"
        },
        "valueQuantity": {
          "system": "http://unitsofmeasure.org",
          "value": 75.3,
          "unit": "mg/dL",
          "code": "mg/dL"
        },
        "referenceRange": [
          {
            "low": {
              "value": 70,
              "code": "mg/dL",
              "system": "http://unitsofmeasure.org"
            }
          },
          {
            "high": {
              "value": 140,
              "code": "mg/dL",
              "system": "http://unitsofmeasure.org"
            }
          }
        ],
        "text": {
          "status": "generated",
          "div": "<div xmlns=\"http://www.w3.org/1999/xhtml\"><table class=\"hl7__eu__lab__report\"><tr><th>Test</th><th>16-Jul-2018</th><th>Reference&#xA0;Range</th><th>Unit</th></tr><tr><td>Glucose [Mass/volume] in Blood</td><td>75.3</td><td>70 - 140</td><td></td><td>mg/dL</td></tr></table></div>"
        },
        "status": "final",
        "subject": {
          "reference": "urn:uuid:771586c5-a78f-4e4e-82fb-14fba95e9d1c",
          "display": "Maria Nohlmans"
        },
        "effectiveDateTime": "2018-07-16T12:02:04Z",
        "specimen": {
          "reference": "urn:uuid:61bd7c75-f28e-405d-9f58-d15984c37dab"
        }
      }
    },
    {
      "fullUrl": "urn:uuid:373467b4-14a1-4d07-ab7d-539103709225",
      "resource": {
        "resourceType": "Observation",
        "id": "373467b4-14a1-4d07-ab7d-539103709225",
        "meta": {
          "profile": [
            "http://hl7.eu/fhir/laboratory/StructureDefinition/Observation-resultslab-eu-lab"
          ]
        },
        "performer": [
          {
            "display": "The Central European Lab"
          }
        ],
        "category": [
          {
            "coding": [
              {
                "system": "http://terminology.hl7.org/CodeSystem/observation-category",
                "code": "laboratory"
              }
            ]
          }
        ],
        "code": {
          "coding": [
            {
              "code": "6299-2",
              "system": "http://loinc.org",
              "display": "Urea nitrogen [Mass/volume] in Blood"
            }
          ],
          "text": "Urea nitrogen [Mass/volume] in Blood"
        },
        "valueQuantity": {
          "system": "http://unitsofmeasure.org",
          "value": 12.5,
          "unit": "mg/dL",
          "code": "mg/dL"
        },
        "referenceRange": [
          {
            "low": {
              "value": 7,
              "code": "mg/dL",
              "system": "http://unitsofmeasure.org"
            }
          },
          {
            "high": {
              "value": 30,
              "code": "mg/dL",
              "system": "http://unitsofmeasure.org"
            }
          }
        ],
        "text": {
          "status": "generated",
          "div": "<div xmlns=\"http://www.w3.org/1999/xhtml\"><table class=\"hl7__eu__lab__report\"><tr><th>Test</th><th>16-Jul-2018</th><th>Reference&#xA0;Range</th><th>Unit</th></tr><tr><td>Urea nitrogen [Mass/volume] in Blood</td><td>12.5</td><td>7 - 30</td><td></td><td>mg/dL</td></tr></table></div>"
        },
        "status": "final",
        "subject": {
          "reference": "urn:uuid:771586c5-a78f-4e4e-82fb-14fba95e9d1c",
          "display": "Maria Nohlmans"
        },
        "effectiveDateTime": "2018-07-16T12:02:04Z",
        "specimen": {
          "reference": "urn:uuid:61bd7c75-f28e-405d-9f58-d15984c37dab"
        }
      }
    },
    {
      "fullUrl": "urn:uuid:34d68cb7-bfd2-44bb-9ba1-b2088cebe0be",
      "resource": {
        "resourceType": "Observation",
        "id": "34d68cb7-bfd2-44bb-9ba1-b2088cebe0be",
        "meta": {
          "profile": [
            "http://hl7.eu/fhir/laboratory/StructureDefinition/Observation-resultslab-eu-lab"
          ]
        },
        "performer": [
          {
            "display": "The Central European Lab"
          }
        ],
        "category": [
          {
            "coding": [
              {
                "system": "http://terminology.hl7.org/CodeSystem/observation-category",
                "code": "laboratory"
              }
            ]
          }
        ],
        "code": {
          "coding": [
            {
              "code": "38483-4",
              "system": "http://loinc.org",
              "display": "Creatinine [Mass/volume] in Blood"
            }
          ],
          "text": "Creatinine [Mass/volume] in Blood"
        },
        "valueQuantity": {
          "system": "http://unitsofmeasure.org",
          "value": 2.6,
          "unit": "mg/dL",
          "code": "mg/dL"
        },
        "referenceRange": [
          {
            "low": {
              "value": 0.5,
              "code": "mg/dL",
              "system": "http://unitsofmeasure.org"
            }
          },
          {
            "high": {
              "value": 1.3,
              "code": "mg/dL",
              "system": "http://unitsofmeasure.org"
            }
          }
        ],
        "interpretation": [
          {
            "coding": [
              {
                "code": "H",
                "system": "http://terminology.hl7.org/CodeSystem/v3-ObservationInterpretation",
                "display": "High"
              }
            ]
          }
        ],
        "text": {
          "status": "generated",
          "div": "<div xmlns=\"http://www.w3.org/1999/xhtml\"><table class=\"hl7__eu__lab__report\"><tr><th>Test</th><th>16-Jul-2018</th><th>Reference&#xA0;Range</th><th>Unit</th></tr><tr><td>Creatinine [Mass/volume] in Blood</td><td>2.6</td><td>0.5 - 1.3</td><td>H</td><td>mg/dL</td></tr></table></div>"
        },
        "status": "final",
        "subject": {
          "reference": "urn:uuid:771586c5-a78f-4e4e-82fb-14fba95e9d1c",
          "display": "Maria Nohlmans"
        },
        "effectiveDateTime": "2018-07-16T12:02:04Z",
        "specimen": {
          "reference": "urn:uuid:61bd7c75-f28e-405d-9f58-d15984c37dab"
        }
      }
    },
    {
      "fullUrl": "urn:uuid:9f094843-0de3-452d-ab6f-b42b83273942",
      "resource": {
        "resourceType": "Observation",
        "id": "9f094843-0de3-452d-ab6f-b42b83273942",
        "meta": {
          "profile": [
            "http://hl7.eu/fhir/laboratory/StructureDefinition/Observation-resultslab-eu-lab"
          ]
        },
        "performer": [
          {
            "display": "The Central European Lab"
          }
        ],
        "category": [
          {
            "coding": [
              {
                "system": "http://terminology.hl7.org/CodeSystem/observation-category",
                "code": "laboratory"
              }
            ]
          }
        ],
        "code": {
          "coding": [
            {
              "code": "49765-1",
              "system": "http://loinc.org",
              "display": "Calcium [Mass/volume] in Blood"
            }
          ],
          "text": "Calcium [Mass/volume] in Blood"
        },
        "valueQuantity": {
          "system": "http://unitsofmeasure.org",
          "value": 9.3,
          "unit": "mg/dL",
          "code": "mg/dL"
        },
        "referenceRange": [
          {
            "low": {
              "value": 8.6,
              "code": "mg/dL",
              "system": "http://unitsofmeasure.org"
            }
          },
          {
            "high": {
              "value": 10.2,
              "code": "mg/dL",
              "system": "http://unitsofmeasure.org"
            }
          }
        ],
        "text": {
          "status": "generated",
          "div": "<div xmlns=\"http://www.w3.org/1999/xhtml\"><table class=\"hl7__eu__lab__report\"><tr><th>Test</th><th>16-Jul-2018</th><th>Reference&#xA0;Range</th><th>Unit</th></tr><tr><td>Calcium [Mass/volume] in Blood</td><td>9.3</td><td>8.6 - 10.2</td><td></td><td>mg/dL</td></tr></table></div>"
        },
        "status": "final",
        "subject": {
          "reference": "urn:uuid:771586c5-a78f-4e4e-82fb-14fba95e9d1c",
          "display": "Maria Nohlmans"
        },
        "effectiveDateTime": "2018-07-16T12:02:04Z",
        "specimen": {
          "reference": "urn:uuid:61bd7c75-f28e-405d-9f58-d15984c37dab"
        }
      }
    },
    {
      "fullUrl": "urn:uuid:ec80e479-bbdb-474f-815f-0146b5eccbfc",
      "resource": {
        "resourceType": "Observation",
        "id": "ec80e479-bbdb-474f-815f-0146b5eccbfc",
        "meta": {
          "profile": [
            "http://hl7.eu/fhir/laboratory/StructureDefinition/Observation-resultslab-eu-lab"
          ]
        },
        "performer": [
          {
            "display": "The Central European Lab"
          }
        ],
        "category": [
          {
            "coding": [
              {
                "system": "http://terminology.hl7.org/CodeSystem/observation-category",
                "code": "laboratory"
              }
            ]
          }
        ],
        "code": {
          "coding": [
            {
              "code": "2947-0",
              "system": "http://loinc.org",
              "display": "Sodium [Moles/volume] in Blood"
            }
          ],
          "text": "Sodium [Moles/volume] in Blood"
        },
        "valueQuantity": {
          "system": "http://unitsofmeasure.org",
          "value": 139.1,
          "unit": "mmol/L",
          "code": "mmol/L"
        },
        "referenceRange": [
          {
            "low": {
              "value": 135,
              "code": "mmol/L",
              "system": "http://unitsofmeasure.org"
            }
          },
          {
            "high": {
              "value": 145,
              "code": "mmol/L",
              "system": "http://unitsofmeasure.org"
            }
          }
        ],
        "text": {
          "status": "generated",
          "div": "<div xmlns=\"http://www.w3.org/1999/xhtml\"><table class=\"hl7__eu__lab__report\"><tr><th>Test</th><th>16-Jul-2018</th><th>Reference&#xA0;Range</th><th>Unit</th></tr><tr><td>Sodium [Moles/volume] in Blood</td><td>139.1</td><td>135 - 145</td><td></td><td>mmol/L</td></tr></table></div>"
        },
        "status": "final",
        "subject": {
          "reference": "urn:uuid:771586c5-a78f-4e4e-82fb-14fba95e9d1c",
          "display": "Maria Nohlmans"
        },
        "effectiveDateTime": "2018-07-16T12:02:04Z",
        "specimen": {
          "reference": "urn:uuid:61bd7c75-f28e-405d-9f58-d15984c37dab"
        }
      }
    },
    {
      "fullUrl": "urn:uuid:10d4497f-a4f0-42ec-b7e6-ea41590794bb",
      "resource": {
        "resourceType": "Observation",
        "id": "10d4497f-a4f0-42ec-b7e6-ea41590794bb",
        "meta": {
          "profile": [
            "http://hl7.eu/fhir/laboratory/StructureDefinition/Observation-resultslab-eu-lab"
          ]
        },
        "performer": [
          {
            "display": "The Central European Lab"
          }
        ],
        "category": [
          {
            "coding": [
              {
                "system": "http://terminology.hl7.org/CodeSystem/observation-category",
                "code": "laboratory"
              }
            ]
          }
        ],
        "code": {
          "coding": [
            {
              "code": "6298-4",
              "system": "http://loinc.org",
              "display": "Potassium [Moles/volume] in Blood"
            }
          ],
          "text": "Potassium [Moles/volume] in Blood"
        },
        "valueQuantity": {
          "system": "http://unitsofmeasure.org",
          "value": 5.1,
          "unit": "mmol/L",
          "code": "mmol/L"
        },
        "referenceRange": [
          {
            "low": {
              "value": 3.5,
              "code": "mmol/L",
              "system": "http://unitsofmeasure.org"
            }
          },
          {
            "high": {
              "value": 5.1,
              "code": "mmol/L",
              "system": "http://unitsofmeasure.org"
            }
          }
        ],
        "text": {
          "status": "generated",
          "div": "<div xmlns=\"http://www.w3.org/1999/xhtml\"><table class=\"hl7__eu__lab__report\"><tr><th>Test</th><th>16-Jul-2018</th><th>Reference&#xA0;Range</th><th>Unit</th></tr><tr><td>Potassium [Moles/volume] in Blood</td><td>5.1</td><td>3.5 - 5.1</td><td></td><td>mmol/L</td></tr></table></div>"
        },
        "status": "final",
        "subject": {
          "reference": "urn:uuid:771586c5-a78f-4e4e-82fb-14fba95e9d1c",
          "display": "Maria Nohlmans"
        },
        "effectiveDateTime": "2018-07-16T12:02:04Z",
        "specimen": {
          "reference": "urn:uuid:61bd7c75-f28e-405d-9f58-d15984c37dab"
        }
      }
    },
    {
      "fullUrl": "urn:uuid:c648f897-164c-4122-9753-db30692357b1",
      "resource": {
        "resourceType": "Observation",
        "id": "c648f897-164c-4122-9753-db30692357b1",
        "meta": {
          "profile": [
            "http://hl7.eu/fhir/laboratory/StructureDefinition/Observation-resultslab-eu-lab"
          ]
        },
        "performer": [
          {
            "display": "The Central European Lab"
          }
        ],
        "category": [
          {
            "coding": [
              {
                "system": "http://terminology.hl7.org/CodeSystem/observation-category",
                "code": "laboratory"
              }
            ]
          }
        ],
        "code": {
          "coding": [
            {
              "code": "2069-3",
              "system": "http://loinc.org",
              "display": "Chloride [Moles/volume] in Blood"
            }
          ],
          "text": "Chloride [Moles/volume] in Blood"
        },
        "valueQuantity": {
          "system": "http://unitsofmeasure.org",
          "value": 109.1,
          "unit": "mmol/L",
          "code": "mmol/L"
        },
        "referenceRange": [
          {
            "low": {
              "value": 98,
              "code": "mmol/L",
              "system": "http://unitsofmeasure.org"
            }
          },
          {
            "high": {
              "value": 114,
              "code": "mmol/L",
              "system": "http://unitsofmeasure.org"
            }
          }
        ],
        "text": {
          "status": "generated",
          "div": "<div xmlns=\"http://www.w3.org/1999/xhtml\"><table class=\"hl7__eu__lab__report\"><tr><th>Test</th><th>16-Jul-2018</th><th>Reference&#xA0;Range</th><th>Unit</th></tr><tr><td>Chloride [Moles/volume] in Blood</td><td>109.1</td><td>98 - 114</td><td></td><td>mmol/L</td></tr></table></div>"
        },
        "status": "final",
        "subject": {
          "reference": "urn:uuid:771586c5-a78f-4e4e-82fb-14fba95e9d1c",
          "display": "Maria Nohlmans"
        },
        "effectiveDateTime": "2018-07-16T12:02:04Z",
        "specimen": {
          "reference": "urn:uuid:61bd7c75-f28e-405d-9f58-d15984c37dab"
        }
      }
    },
    {
      "fullUrl": "urn:uuid:27ced835-d7d0-44db-bc25-0ac16d718541",
      "resource": {
        "resourceType": "Observation",
        "id": "27ced835-d7d0-44db-bc25-0ac16d718541",
        "meta": {
          "profile": [
            "http://hl7.eu/fhir/laboratory/StructureDefinition/Observation-resultslab-eu-lab"
          ]
        },
        "performer": [
          {
            "display": "The Central European Lab"
          }
        ],
        "category": [
          {
            "coding": [
              {
                "system": "http://terminology.hl7.org/CodeSystem/observation-category",
                "code": "laboratory"
              }
            ]
          }
        ],
        "code": {
          "coding": [
            {
              "code": "20565-8",
              "system": "http://loinc.org",
              "display": "Carbon dioxide, total [Moles/volume] in Blood"
            }
          ],
          "text": "Carbon dioxide, total [Moles/volume] in Blood"
        },
        "valueQuantity": {
          "system": "http://unitsofmeasure.org",
          "value": 26.5,
          "unit": "mmol/L",
          "code": "mmol/L"
        },
        "referenceRange": [
          {
            "low": {
              "value": 22,
              "code": "mmol/L",
              "system": "http://unitsofmeasure.org"
            }
          },
          {
            "high": {
              "value": 32,
              "code": "mmol/L",
              "system": "http://unitsofmeasure.org"
            }
          }
        ],
        "text": {
          "status": "generated",
          "div": "<div xmlns=\"http://www.w3.org/1999/xhtml\"><table class=\"hl7__eu__lab__report\"><tr><th>Test</th><th>16-Jul-2018</th><th>Reference&#xA0;Range</th><th>Unit</th></tr><tr><td>Carbon dioxide, total [Moles/volume] in Blood</td><td>26.5</td><td>22 - 32</td><td></td><td>mmol/L</td></tr></table></div>"
        },
        "status": "final",
        "subject": {
          "reference": "urn:uuid:771586c5-a78f-4e4e-82fb-14fba95e9d1c",
          "display": "Maria Nohlmans"
        },
        "effectiveDateTime": "2018-07-16T12:02:04Z",
        "specimen": {
          "reference": "urn:uuid:61bd7c75-f28e-405d-9f58-d15984c37dab"
        }
      }
    },
    {
      "fullUrl": "urn:uuid:e271b96c-8a93-41a2-a98a-ce2f0744556f",
      "resource": {
        "resourceType": "Observation",
        "id": "e271b96c-8a93-41a2-a98a-ce2f0744556f",
        "meta": {
          "profile": [
            "http://hl7.eu/fhir/laboratory/StructureDefinition/Observation-resultslab-eu-lab"
          ]
        },
        "performer": [
          {
            "display": "The Central European Lab"
          }
        ],
        "category": [
          {
            "coding": [
              {
                "system": "http://terminology.hl7.org/CodeSystem/observation-category",
                "code": "laboratory"
              }
            ]
          }
        ],
        "code": {
          "coding": [
            {
              "code": "5767-9",
              "system": "http://loinc.org",
              "display": "Appearance of Urine"
            }
          ],
          "text": "Appearance of Urine"
        },
        "text": {
          "status": "generated",
          "div": "<div xmlns=\"http://www.w3.org/1999/xhtml\"><table class=\"hl7__eu__lab__report\"><tr><th>Test</th><th>16-Jul-2018</th><th>Reference&#xA0;Range</th><th>Unit</th></tr><tr><td>Appearance of Urine</td></tr></table></div>"
        },
        "status": "final",
        "subject": {
          "reference": "urn:uuid:771586c5-a78f-4e4e-82fb-14fba95e9d1c",
          "display": "Maria Nohlmans"
        },
        "effectiveDateTime": "2018-07-16T12:02:04Z",
        "specimen": {
          "reference": "urn:uuid:167fc3f2-f93e-42a5-a5c0-5d26b9d8faf4"
        }
      }
    },
    {
      "fullUrl": "urn:uuid:25319153-d735-4219-8a6a-f542f6a14561",
      "resource": {
        "resourceType": "Observation",
        "id": "25319153-d735-4219-8a6a-f542f6a14561",
        "meta": {
          "profile": [
            "http://hl7.eu/fhir/laboratory/StructureDefinition/Observation-resultslab-eu-lab"
          ]
        },
        "performer": [
          {
            "display": "The Central European Lab"
          }
        ],
        "category": [
          {
            "coding": [
              {
                "system": "http://terminology.hl7.org/CodeSystem/observation-category",
                "code": "laboratory"
              }
            ]
          }
        ],
        "code": {
          "coding": [
            {
              "code": "5767-9",
              "system": "http://loinc.org",
              "display": "Appearance of Urine"
            }
          ],
          "text": "Appearance of Urine"
        },
        "text": {
          "status": "generated",
          "div": "<div xmlns=\"http://www.w3.org/1999/xhtml\"><table class=\"hl7__eu__lab__report\"><tr><th>Test</th><th>16-Jul-2018</th><th>Reference&#xA0;Range</th><th>Unit</th></tr><tr><td>Appearance of Urine</td></tr></table></div>"
        },
        "status": "final",
        "subject": {
          "reference": "urn:uuid:771586c5-a78f-4e4e-82fb-14fba95e9d1c",
          "display": "Maria Nohlmans"
        },
        "effectiveDateTime": "2018-07-16T12:02:04Z",
        "specimen": {
          "reference": "urn:uuid:167fc3f2-f93e-42a5-a5c0-5d26b9d8faf4"
        }
      }
    },
    {
      "fullUrl": "urn:uuid:3775252d-c243-40d7-814e-1aacb7c4dde0",
      "resource": {
        "resourceType": "Observation",
        "id": "3775252d-c243-40d7-814e-1aacb7c4dde0",
        "meta": {
          "profile": [
            "http://hl7.eu/fhir/laboratory/StructureDefinition/Observation-resultslab-eu-lab"
          ]
        },
        "performer": [
          {
            "display": "The Central European Lab"
          }
        ],
        "category": [
          {
            "coding": [
              {
                "system": "http://terminology.hl7.org/CodeSystem/observation-category",
                "code": "laboratory"
              }
            ]
          }
        ],
        "code": {
          "coding": [
            {
              "code": "32167-9",
              "system": "http://loinc.org",
              "display": "Clarity of Urine"
            }
          ],
          "text": "Clarity of Urine"
        },
        "text": {
          "status": "generated",
          "div": "<div xmlns=\"http://www.w3.org/1999/xhtml\"><table class=\"hl7__eu__lab__report\"><tr><th>Test</th><th>16-Jul-2018</th><th>Reference&#xA0;Range</th><th>Unit</th></tr><tr><td>Clarity of Urine</td></tr></table></div>"
        },
        "status": "final",
        "subject": {
          "reference": "urn:uuid:771586c5-a78f-4e4e-82fb-14fba95e9d1c",
          "display": "Maria Nohlmans"
        },
        "effectiveDateTime": "2018-07-16T12:02:04Z",
        "specimen": {
          "reference": "urn:uuid:167fc3f2-f93e-42a5-a5c0-5d26b9d8faf4"
        }
      }
    },
    {
      "fullUrl": "urn:uuid:37755f4e-beb5-43c9-b38a-a2136a131a4c",
      "resource": {
        "resourceType": "Observation",
        "id": "37755f4e-beb5-43c9-b38a-a2136a131a4c",
        "meta": {
          "profile": [
            "http://hl7.eu/fhir/laboratory/StructureDefinition/Observation-resultslab-eu-lab"
          ]
        },
        "performer": [
          {
            "display": "The Central European Lab"
          }
        ],
        "category": [
          {
            "coding": [
              {
                "system": "http://terminology.hl7.org/CodeSystem/observation-category",
                "code": "laboratory"
              }
            ]
          }
        ],
        "code": {
          "coding": [
            {
              "code": "5778-6",
              "system": "http://loinc.org",
              "display": "Color of Urine"
            }
          ],
          "text": "Color of Urine"
        },
        "text": {
          "status": "generated",
          "div": "<div xmlns=\"http://www.w3.org/1999/xhtml\"><table class=\"hl7__eu__lab__report\"><tr><th>Test</th><th>16-Jul-2018</th><th>Reference&#xA0;Range</th><th>Unit</th></tr><tr><td>Color of Urine</td></tr></table></div>"
        },
        "status": "final",
        "subject": {
          "reference": "urn:uuid:771586c5-a78f-4e4e-82fb-14fba95e9d1c",
          "display": "Maria Nohlmans"
        },
        "effectiveDateTime": "2018-07-16T12:02:04Z",
        "specimen": {
          "reference": "urn:uuid:167fc3f2-f93e-42a5-a5c0-5d26b9d8faf4"
        }
      }
    },
    {
      "fullUrl": "urn:uuid:926c3f6e-0818-4dca-b290-1c742240344f",
      "resource": {
        "resourceType": "Observation",
        "id": "926c3f6e-0818-4dca-b290-1c742240344f",
        "meta": {
          "profile": [
            "http://hl7.eu/fhir/laboratory/StructureDefinition/Observation-resultslab-eu-lab"
          ]
        },
        "performer": [
          {
            "display": "The Central European Lab"
          }
        ],
        "category": [
          {
            "coding": [
              {
                "system": "http://terminology.hl7.org/CodeSystem/observation-category",
                "code": "laboratory"
              }
            ]
          }
        ],
        "code": {
          "coding": [
            {
              "code": "5792-7",
              "system": "http://loinc.org",
              "display": "Glucose [Mass/volume] in Urine by Test strip"
            }
          ],
          "text": "Glucose [Mass/volume] in Urine by Test strip"
        },
        "valueQuantity": {
          "system": "http://unitsofmeasure.org",
          "value": 0.9,
          "unit": "mg/dL",
          "code": "mg/dL"
        },
        "referenceRange": [
          {
            "low": {
              "value": 0.8,
              "code": "mg/dL",
              "system": "http://unitsofmeasure.org"
            }
          },
          {
            "high": {
              "value": 0,
              "code": "mg/dL",
              "system": "http://unitsofmeasure.org"
            }
          }
        ],
        "interpretation": [
          {
            "coding": [
              {
                "code": "H",
                "system": "http://terminology.hl7.org/CodeSystem/v3-ObservationInterpretation",
                "display": "High"
              }
            ]
          }
        ],
        "text": {
          "status": "generated",
          "div": "<div xmlns=\"http://www.w3.org/1999/xhtml\"><table class=\"hl7__eu__lab__report\"><tr><th>Test</th><th>16-Jul-2018</th><th>Reference&#xA0;Range</th><th>Unit</th></tr><tr><td>Glucose [Mass/volume] in Urine by Test strip</td><td>0.9</td><td>0.8 - 0</td><td>H</td><td>mg/dL</td></tr></table></div>"
        },
        "status": "final",
        "subject": {
          "reference": "urn:uuid:771586c5-a78f-4e4e-82fb-14fba95e9d1c",
          "display": "Maria Nohlmans"
        },
        "effectiveDateTime": "2018-07-16T12:02:04Z",
        "specimen": {
          "reference": "urn:uuid:167fc3f2-f93e-42a5-a5c0-5d26b9d8faf4"
        }
      }
    },
    {
      "fullUrl": "urn:uuid:a499a2ec-9586-4c7b-8b4b-1a3552e25586",
      "resource": {
        "resourceType": "Observation",
        "id": "a499a2ec-9586-4c7b-8b4b-1a3552e25586",
        "meta": {
          "profile": [
            "http://hl7.eu/fhir/laboratory/StructureDefinition/Observation-resultslab-eu-lab"
          ]
        },
        "performer": [
          {
            "display": "The Central European Lab"
          }
        ],
        "category": [
          {
            "coding": [
              {
                "system": "http://terminology.hl7.org/CodeSystem/observation-category",
                "code": "laboratory"
              }
            ]
          }
        ],
        "code": {
          "coding": [
            {
              "code": "25428-4",
              "system": "http://loinc.org",
              "display": "Glucose [Presence] in Urine by Test strip"
            }
          ],
          "text": "Glucose [Presence] in Urine by Test strip"
        },
        "text": {
          "status": "generated",
          "div": "<div xmlns=\"http://www.w3.org/1999/xhtml\"><table class=\"hl7__eu__lab__report\"><tr><th>Test</th><th>16-Jul-2018</th><th>Reference&#xA0;Range</th><th>Unit</th></tr><tr><td>Glucose [Presence] in Urine by Test strip</td></tr></table></div>"
        },
        "status": "final",
        "subject": {
          "reference": "urn:uuid:771586c5-a78f-4e4e-82fb-14fba95e9d1c",
          "display": "Maria Nohlmans"
        },
        "effectiveDateTime": "2018-07-16T12:02:04Z",
        "specimen": {
          "reference": "urn:uuid:167fc3f2-f93e-42a5-a5c0-5d26b9d8faf4"
        }
      }
    },
    {
      "fullUrl": "urn:uuid:24f308f8-51e0-45f7-aee2-96766d83a146",
      "resource": {
        "resourceType": "Observation",
        "id": "24f308f8-51e0-45f7-aee2-96766d83a146",
        "meta": {
          "profile": [
            "http://hl7.eu/fhir/laboratory/StructureDefinition/Observation-resultslab-eu-lab"
          ]
        },
        "performer": [
          {
            "display": "The Central European Lab"
          }
        ],
        "category": [
          {
            "coding": [
              {
                "system": "http://terminology.hl7.org/CodeSystem/observation-category",
                "code": "laboratory"
              }
            ]
          }
        ],
        "code": {
          "coding": [
            {
              "code": "20505-4",
              "system": "http://loinc.org",
              "display": "Bilirubin.total [Mass/volume] in Urine by Test strip"
            }
          ],
          "text": "Bilirubin.total [Mass/volume] in Urine by Test strip"
        },
        "valueQuantity": {
          "system": "http://unitsofmeasure.org",
          "value": 0.7,
          "unit": "mg/dL",
          "code": "mg/dL"
        },
        "referenceRange": [
          {
            "low": {
              "value": 0,
              "code": "mg/dL",
              "system": "http://unitsofmeasure.org"
            }
          },
          {
            "high": {
              "value": 1.5,
              "code": "mg/dL",
              "system": "http://unitsofmeasure.org"
            }
          }
        ],
        "text": {
          "status": "generated",
          "div": "<div xmlns=\"http://www.w3.org/1999/xhtml\"><table class=\"hl7__eu__lab__report\"><tr><th>Test</th><th>16-Jul-2018</th><th>Reference&#xA0;Range</th><th>Unit</th></tr><tr><td>Bilirubin.total [Mass/volume] in Urine by Test strip</td><td>0.7</td><td>0 - 1.5</td><td></td><td>mg/dL</td></tr></table></div>"
        },
        "status": "final",
        "subject": {
          "reference": "urn:uuid:771586c5-a78f-4e4e-82fb-14fba95e9d1c",
          "display": "Maria Nohlmans"
        },
        "effectiveDateTime": "2018-07-16T12:02:04Z",
        "specimen": {
          "reference": "urn:uuid:167fc3f2-f93e-42a5-a5c0-5d26b9d8faf4"
        }
      }
    },
    {
      "fullUrl": "urn:uuid:fcfa4fba-a705-4203-a6b3-da6de637d52d",
      "resource": {
        "resourceType": "Observation",
        "id": "fcfa4fba-a705-4203-a6b3-da6de637d52d",
        "meta": {
          "profile": [
            "http://hl7.eu/fhir/laboratory/StructureDefinition/Observation-resultslab-eu-lab"
          ]
        },
        "performer": [
          {
            "display": "The Central European Lab"
          }
        ],
        "category": [
          {
            "coding": [
              {
                "system": "http://terminology.hl7.org/CodeSystem/observation-category",
                "code": "laboratory"
              }
            ]
          }
        ],
        "code": {
          "coding": [
            {
              "code": "5770-3",
              "system": "http://loinc.org",
              "display": "Bilirubin.total [Presence] in Urine by Test strip"
            }
          ],
          "text": "Bilirubin.total [Presence] in Urine by Test strip"
        },
        "text": {
          "status": "generated",
          "div": "<div xmlns=\"http://www.w3.org/1999/xhtml\"><table class=\"hl7__eu__lab__report\"><tr><th>Test</th><th>16-Jul-2018</th><th>Reference&#xA0;Range</th><th>Unit</th></tr><tr><td>Bilirubin.total [Presence] in Urine by Test strip</td></tr></table></div>"
        },
        "status": "final",
        "subject": {
          "reference": "urn:uuid:771586c5-a78f-4e4e-82fb-14fba95e9d1c",
          "display": "Maria Nohlmans"
        },
        "effectiveDateTime": "2018-07-16T12:02:04Z",
        "specimen": {
          "reference": "urn:uuid:167fc3f2-f93e-42a5-a5c0-5d26b9d8faf4"
        }
      }
    },
    {
      "fullUrl": "urn:uuid:ba180116-5be8-45d0-bfe9-21a431a6f798",
      "resource": {
        "resourceType": "Observation",
        "id": "ba180116-5be8-45d0-bfe9-21a431a6f798",
        "meta": {
          "profile": [
            "http://hl7.eu/fhir/laboratory/StructureDefinition/Observation-resultslab-eu-lab"
          ]
        },
        "performer": [
          {
            "display": "The Central European Lab"
          }
        ],
        "category": [
          {
            "coding": [
              {
                "system": "http://terminology.hl7.org/CodeSystem/observation-category",
                "code": "laboratory"
              }
            ]
          }
        ],
        "code": {
          "coding": [
            {
              "code": "5797-6",
              "system": "http://loinc.org",
              "display": "Ketones [Mass/volume] in Urine by Test strip"
            }
          ],
          "text": "Ketones [Mass/volume] in Urine by Test strip"
        },
        "valueQuantity": {
          "system": "http://unitsofmeasure.org",
          "value": 0.1,
          "unit": "mg/dL",
          "code": "mg/dL"
        },
        "referenceRange": [
          {
            "low": {
              "value": 0,
              "code": "mg/dL",
              "system": "http://unitsofmeasure.org"
            }
          },
          {
            "high": {
              "value": 8,
              "code": "mg/dL",
              "system": "http://unitsofmeasure.org"
            }
          }
        ],
        "text": {
          "status": "generated",
          "div": "<div xmlns=\"http://www.w3.org/1999/xhtml\"><table class=\"hl7__eu__lab__report\"><tr><th>Test</th><th>16-Jul-2018</th><th>Reference&#xA0;Range</th><th>Unit</th></tr><tr><td>Ketones [Mass/volume] in Urine by Test strip</td><td>0.1</td><td>0 - 8</td><td></td><td>mg/dL</td></tr></table></div>"
        },
        "status": "final",
        "subject": {
          "reference": "urn:uuid:771586c5-a78f-4e4e-82fb-14fba95e9d1c",
          "display": "Maria Nohlmans"
        },
        "effectiveDateTime": "2018-07-16T12:02:04Z",
        "specimen": {
          "reference": "urn:uuid:167fc3f2-f93e-42a5-a5c0-5d26b9d8faf4"
        }
      }
    },
    {
      "fullUrl": "urn:uuid:19675e88-f12f-488f-bfde-728258a6f8c3",
      "resource": {
        "resourceType": "Observation",
        "id": "19675e88-f12f-488f-bfde-728258a6f8c3",
        "meta": {
          "profile": [
            "http://hl7.eu/fhir/laboratory/StructureDefinition/Observation-resultslab-eu-lab"
          ]
        },
        "performer": [
          {
            "display": "The Central European Lab"
          }
        ],
        "category": [
          {
            "coding": [
              {
                "system": "http://terminology.hl7.org/CodeSystem/observation-category",
                "code": "laboratory"
              }
            ]
          }
        ],
        "code": {
          "coding": [
            {
              "code": "2514-8",
              "system": "http://loinc.org",
              "display": "Ketones [Presence] in Urine by Test strip"
            }
          ],
          "text": "Ketones [Presence] in Urine by Test strip"
        },
        "text": {
          "status": "generated",
          "div": "<div xmlns=\"http://www.w3.org/1999/xhtml\"><table class=\"hl7__eu__lab__report\"><tr><th>Test</th><th>16-Jul-2018</th><th>Reference&#xA0;Range</th><th>Unit</th></tr><tr><td>Ketones [Presence] in Urine by Test strip</td></tr></table></div>"
        },
        "status": "final",
        "subject": {
          "reference": "urn:uuid:771586c5-a78f-4e4e-82fb-14fba95e9d1c",
          "display": "Maria Nohlmans"
        },
        "effectiveDateTime": "2018-07-16T12:02:04Z",
        "specimen": {
          "reference": "urn:uuid:167fc3f2-f93e-42a5-a5c0-5d26b9d8faf4"
        }
      }
    },
    {
      "fullUrl": "urn:uuid:2bd2f350-b02f-42d0-9d14-fd1c24360939",
      "resource": {
        "resourceType": "Observation",
        "id": "2bd2f350-b02f-42d0-9d14-fd1c24360939",
        "meta": {
          "profile": [
            "http://hl7.eu/fhir/laboratory/StructureDefinition/Observation-resultslab-eu-lab"
          ]
        },
        "performer": [
          {
            "display": "The Central European Lab"
          }
        ],
        "category": [
          {
            "coding": [
              {
                "system": "http://terminology.hl7.org/CodeSystem/observation-category",
                "code": "laboratory"
              }
            ]
          }
        ],
        "code": {
          "coding": [
            {
              "code": "5811-5",
              "system": "http://loinc.org",
              "display": "Specific gravity of Urine by Test strip"
            }
          ],
          "text": "Specific gravity of Urine by Test strip"
        },
        "valueQuantity": {
          "system": "http://unitsofmeasure.org",
          "value": 1,
          "unit": "{nominal}",
          "code": "{nominal}"
        },
        "referenceRange": [
          {
            "low": {
              "value": 1.01,
              "code": "g/mL",
              "system": "http://unitsofmeasure.org"
            }
          },
          {
            "high": {
              "value": 1.03,
              "code": "g/mL",
              "system": "http://unitsofmeasure.org"
            }
          }
        ],
        "interpretation": [
          {
            "coding": [
              {
                "code": "L",
                "system": "http://terminology.hl7.org/CodeSystem/v3-ObservationInterpretation",
                "display": "Low"
              }
            ]
          }
        ],
        "text": {
          "status": "generated",
          "div": "<div xmlns=\"http://www.w3.org/1999/xhtml\"><table class=\"hl7__eu__lab__report\"><tr><th>Test</th><th>16-Jul-2018</th><th>Reference&#xA0;Range</th><th>Unit</th></tr><tr><td>Specific gravity of Urine by Test strip</td><td>1.0</td><td>1.01 - 1.03</td><td>L</td><td>{nominal}</td></tr></table></div>"
        },
        "status": "final",
        "subject": {
          "reference": "urn:uuid:771586c5-a78f-4e4e-82fb-14fba95e9d1c",
          "display": "Maria Nohlmans"
        },
        "effectiveDateTime": "2018-07-16T12:02:04Z",
        "specimen": {
          "reference": "urn:uuid:167fc3f2-f93e-42a5-a5c0-5d26b9d8faf4"
        }
      }
    },
    {
      "fullUrl": "urn:uuid:1c557e3c-8c38-4efd-9b09-7bf2ff9c4632",
      "resource": {
        "resourceType": "Observation",
        "id": "1c557e3c-8c38-4efd-9b09-7bf2ff9c4632",
        "meta": {
          "profile": [
            "http://hl7.eu/fhir/laboratory/StructureDefinition/Observation-resultslab-eu-lab"
          ]
        },
        "performer": [
          {
            "display": "The Central European Lab"
          }
        ],
        "category": [
          {
            "coding": [
              {
                "system": "http://terminology.hl7.org/CodeSystem/observation-category",
                "code": "laboratory"
              }
            ]
          }
        ],
        "code": {
          "coding": [
            {
              "code": "5803-2",
              "system": "http://loinc.org",
              "display": "pH of Urine by Test strip"
            }
          ],
          "text": "pH of Urine by Test strip"
        },
        "valueQuantity": {
          "system": "http://unitsofmeasure.org",
          "value": 6.6,
          "unit": "pH",
          "code": "pH"
        },
        "referenceRange": [
          {
            "low": {
              "value": 4.6,
              "code": "pH",
              "system": "http://unitsofmeasure.org"
            }
          },
          {
            "high": {
              "value": 7.5,
              "code": "pH",
              "system": "http://unitsofmeasure.org"
            }
          }
        ],
        "text": {
          "status": "generated",
          "div": "<div xmlns=\"http://www.w3.org/1999/xhtml\"><table class=\"hl7__eu__lab__report\"><tr><th>Test</th><th>16-Jul-2018</th><th>Reference&#xA0;Range</th><th>Unit</th></tr><tr><td>pH of Urine by Test strip</td><td>6.6</td><td>4.6 - 7.5</td><td></td><td>pH</td></tr></table></div>"
        },
        "status": "final",
        "subject": {
          "reference": "urn:uuid:771586c5-a78f-4e4e-82fb-14fba95e9d1c",
          "display": "Maria Nohlmans"
        },
        "effectiveDateTime": "2018-07-16T12:02:04Z",
        "specimen": {
          "reference": "urn:uuid:167fc3f2-f93e-42a5-a5c0-5d26b9d8faf4"
        }
      }
    },
    {
      "fullUrl": "urn:uuid:7930fa4b-4d8a-47c6-aae0-80aea7eec237",
      "resource": {
        "resourceType": "Observation",
        "id": "7930fa4b-4d8a-47c6-aae0-80aea7eec237",
        "meta": {
          "profile": [
            "http://hl7.eu/fhir/laboratory/StructureDefinition/Observation-resultslab-eu-lab"
          ]
        },
        "performer": [
          {
            "display": "The Central European Lab"
          }
        ],
        "category": [
          {
            "coding": [
              {
                "system": "http://terminology.hl7.org/CodeSystem/observation-category",
                "code": "laboratory"
              }
            ]
          }
        ],
        "code": {
          "coding": [
            {
              "code": "5804-0",
              "system": "http://loinc.org",
              "display": "Protein [Mass/volume] in Urine by Test strip"
            }
          ],
          "text": "Protein [Mass/volume] in Urine by Test strip"
        },
        "valueQuantity": {
          "system": "http://unitsofmeasure.org",
          "value": 425.4,
          "unit": "mg/dL",
          "code": "mg/dL"
        },
        "referenceRange": [
          {
            "low": {
              "value": 0,
              "code": "mg/dL",
              "system": "http://unitsofmeasure.org"
            }
          },
          {
            "high": {
              "value": 14,
              "code": "mg/dL",
              "system": "http://unitsofmeasure.org"
            }
          }
        ],
        "interpretation": [
          {
            "coding": [
              {
                "code": "H",
                "system": "http://terminology.hl7.org/CodeSystem/v3-ObservationInterpretation",
                "display": "High"
              }
            ]
          }
        ],
        "text": {
          "status": "generated",
          "div": "<div xmlns=\"http://www.w3.org/1999/xhtml\"><table class=\"hl7__eu__lab__report\"><tr><th>Test</th><th>16-Jul-2018</th><th>Reference&#xA0;Range</th><th>Unit</th></tr><tr><td>Protein [Mass/volume] in Urine by Test strip</td><td>425.4</td><td>0 - 14</td><td>H</td><td>mg/dL</td></tr></table></div>"
        },
        "status": "final",
        "subject": {
          "reference": "urn:uuid:771586c5-a78f-4e4e-82fb-14fba95e9d1c",
          "display": "Maria Nohlmans"
        },
        "effectiveDateTime": "2018-07-16T12:02:04Z",
        "specimen": {
          "reference": "urn:uuid:167fc3f2-f93e-42a5-a5c0-5d26b9d8faf4"
        }
      }
    },
    {
      "fullUrl": "urn:uuid:35615a02-d709-4f3f-b631-9bacbfb2e53f",
      "resource": {
        "resourceType": "Observation",
        "id": "35615a02-d709-4f3f-b631-9bacbfb2e53f",
        "meta": {
          "profile": [
            "http://hl7.eu/fhir/laboratory/StructureDefinition/Observation-resultslab-eu-lab"
          ]
        },
        "performer": [
          {
            "display": "The Central European Lab"
          }
        ],
        "category": [
          {
            "coding": [
              {
                "system": "http://terminology.hl7.org/CodeSystem/observation-category",
                "code": "laboratory"
              }
            ]
          }
        ],
        "code": {
          "coding": [
            {
              "code": "20454-5",
              "system": "http://loinc.org",
              "display": "Protein [Presence] in Urine by Test strip"
            }
          ],
          "text": "Protein [Presence] in Urine by Test strip"
        },
        "text": {
          "status": "generated",
          "div": "<div xmlns=\"http://www.w3.org/1999/xhtml\"><table class=\"hl7__eu__lab__report\"><tr><th>Test</th><th>16-Jul-2018</th><th>Reference&#xA0;Range</th><th>Unit</th></tr><tr><td>Protein [Presence] in Urine by Test strip</td></tr></table></div>"
        },
        "status": "final",
        "subject": {
          "reference": "urn:uuid:771586c5-a78f-4e4e-82fb-14fba95e9d1c",
          "display": "Maria Nohlmans"
        },
        "effectiveDateTime": "2018-07-16T12:02:04Z",
        "specimen": {
          "reference": "urn:uuid:167fc3f2-f93e-42a5-a5c0-5d26b9d8faf4"
        }
      }
    },
    {
      "fullUrl": "urn:uuid:3c323305-1ae3-4f02-bfd2-abe90a6a77db",
      "resource": {
        "resourceType": "Observation",
        "id": "3c323305-1ae3-4f02-bfd2-abe90a6a77db",
        "meta": {
          "profile": [
            "http://hl7.eu/fhir/laboratory/StructureDefinition/Observation-resultslab-eu-lab"
          ]
        },
        "performer": [
          {
            "display": "The Central European Lab"
          }
        ],
        "category": [
          {
            "coding": [
              {
                "system": "http://terminology.hl7.org/CodeSystem/observation-category",
                "code": "laboratory"
              }
            ]
          }
        ],
        "code": {
          "coding": [
            {
              "code": "5802-4",
              "system": "http://loinc.org",
              "display": "Nitrite [Presence] in Urine by Test strip"
            }
          ],
          "text": "Nitrite [Presence] in Urine by Test strip"
        },
        "text": {
          "status": "generated",
          "div": "<div xmlns=\"http://www.w3.org/1999/xhtml\"><table class=\"hl7__eu__lab__report\"><tr><th>Test</th><th>16-Jul-2018</th><th>Reference&#xA0;Range</th><th>Unit</th></tr><tr><td>Nitrite [Presence] in Urine by Test strip</td></tr></table></div>"
        },
        "status": "final",
        "subject": {
          "reference": "urn:uuid:771586c5-a78f-4e4e-82fb-14fba95e9d1c",
          "display": "Maria Nohlmans"
        },
        "effectiveDateTime": "2018-07-16T12:02:04Z",
        "specimen": {
          "reference": "urn:uuid:167fc3f2-f93e-42a5-a5c0-5d26b9d8faf4"
        }
      }
    },
    {
      "fullUrl": "urn:uuid:b4b2d305-539f-4cdb-bddb-d08c46a74266",
      "resource": {
        "resourceType": "Observation",
        "id": "b4b2d305-539f-4cdb-bddb-d08c46a74266",
        "meta": {
          "profile": [
            "http://hl7.eu/fhir/laboratory/StructureDefinition/Observation-resultslab-eu-lab"
          ]
        },
        "performer": [
          {
            "display": "The Central European Lab"
          }
        ],
        "category": [
          {
            "coding": [
              {
                "system": "http://terminology.hl7.org/CodeSystem/observation-category",
                "code": "laboratory"
              }
            ]
          }
        ],
        "code": {
          "coding": [
            {
              "code": "5794-3",
              "system": "http://loinc.org",
              "display": "Hemoglobin [Presence] in Urine by Test strip"
            }
          ],
          "text": "Hemoglobin [Presence] in Urine by Test strip"
        },
        "text": {
          "status": "generated",
          "div": "<div xmlns=\"http://www.w3.org/1999/xhtml\"><table class=\"hl7__eu__lab__report\"><tr><th>Test</th><th>16-Jul-2018</th><th>Reference&#xA0;Range</th><th>Unit</th></tr><tr><td>Hemoglobin [Presence] in Urine by Test strip</td></tr></table></div>"
        },
        "status": "final",
        "subject": {
          "reference": "urn:uuid:771586c5-a78f-4e4e-82fb-14fba95e9d1c",
          "display": "Maria Nohlmans"
        },
        "effectiveDateTime": "2018-07-16T12:02:04Z",
        "specimen": {
          "reference": "urn:uuid:167fc3f2-f93e-42a5-a5c0-5d26b9d8faf4"
        }
      }
    },
    {
      "fullUrl": "urn:uuid:9bcf444d-4638-4f2e-9436-d1e01e702095",
      "resource": {
        "resourceType": "Observation",
        "id": "9bcf444d-4638-4f2e-9436-d1e01e702095",
        "meta": {
          "profile": [
            "http://hl7.eu/fhir/laboratory/StructureDefinition/Observation-resultslab-eu-lab"
          ]
        },
        "performer": [
          {
            "display": "The Central European Lab"
          }
        ],
        "category": [
          {
            "coding": [
              {
                "system": "http://terminology.hl7.org/CodeSystem/observation-category",
                "code": "laboratory"
              }
            ]
          }
        ],
        "code": {
          "coding": [
            {
              "code": "5799-2",
              "system": "http://loinc.org",
              "display": "Leukocyte esterase [Presence] in Urine by Test strip"
            }
          ],
          "text": "Leukocyte esterase [Presence] in Urine by Test strip"
        },
        "text": {
          "status": "generated",
          "div": "<div xmlns=\"http://www.w3.org/1999/xhtml\"><table class=\"hl7__eu__lab__report\"><tr><th>Test</th><th>16-Jul-2018</th><th>Reference&#xA0;Range</th><th>Unit</th></tr><tr><td>Leukocyte esterase [Presence] in Urine by Test strip</td></tr></table></div>"
        },
        "status": "final",
        "subject": {
          "reference": "urn:uuid:771586c5-a78f-4e4e-82fb-14fba95e9d1c",
          "display": "Maria Nohlmans"
        },
        "effectiveDateTime": "2018-07-16T12:02:04Z",
        "specimen": {
          "reference": "urn:uuid:167fc3f2-f93e-42a5-a5c0-5d26b9d8faf4"
        }
      }
    },
    {
      "fullUrl": "urn:uuid:80afd68b-dd32-499c-aeb0-9d0408bdb991",
      "resource": {
        "resourceType": "Device",
        "id": "80afd68b-dd32-499c-aeb0-9d0408bdb991",
        "deviceName": [
          {
            "name": "SYNDERAI Synthetic Generator",
            "type": "manufacturer-name"
          }
        ],
        "version": [
          {
            "value": "5.0"
          }
        ],
        "text": {
          "status": "generated",
          "div": "<div xmlns=\"http://www.w3.org/1999/xhtml\">SYNDERAI Synthetic Generator v5.0</div>"
        },
        "status": "active\"",
        "distinctIdentifier": "synderai-generator-50",
        "manufacturer": "SYNDERAI Project"
      }
    },
    {
      "fullUrl": "urn:uuid:12e852ff-0c8b-4dfc-9979-4ab84ada1d96",
      "resource": {
        "resourceType": "Provenance",
        "id": "12e852ff-0c8b-4dfc-9979-4ab84ada1d96",
        "target": [
          {
            "reference": "Patient/771586c5-a78f-4e4e-82fb-14fba95e9d1c"
          },
          {
            "reference": "Bundle/f9e2a9f0-9037-4ec9-9e8c-3097dd7e7021"
          },
          {
            "reference": "Composition/aeada2d1-27d1-45ab-87b3-57b9c00afe1e"
          },
          {
            "reference": "PractitionerRole/ad4dba00-0a01-4526-bb3b-d5389627dc74"
          },
          {
            "reference": "Practitioner/b48136c6-c212-45b8-8b96-fcb180973ffa"
          },
          {
            "reference": "PractitionerRole/0f4423d9-06b5-46a1-9ef5-009073a6473e"
          },
          {
            "reference": "Organization/57d374ff-965d-4057-8702-a922a84aa997"
          }
        ],
        "activity": {
          "text": "Synthetic Example Data Generation"
        },
        "policy": [
          "https://synderai.net/synderai-synthetic-data-policy"
        ],
        "agent": [
          {
            "type": {
              "text": "author"
            },
            "who": {
              "reference": "Device/80afd68b-dd32-499c-aeb0-9d0408bdb991"
            }
          }
        ],
        "reason": [
          {
            "text": "Interoperability Testing and Training (non-clinical use)"
          }
        ],
        "text": {
          "status": "generated",
          "div": "<div xmlns=\"http://www.w3.org/1999/xhtml\">Provenance for SYNDERAI Synthetic Example Data Resource</div>"
        },
        "recorded": "2018-07-16T14:02:04Z"
      }
    },
    {
      "fullUrl": "urn:uuid:ad4dba00-0a01-4526-bb3b-d5389627dc74",
      "resource": {
        "resourceType": "PractitionerRole",
        "id": "ad4dba00-0a01-4526-bb3b-d5389627dc74",
        "meta": {
          "profile": [
            "http://hl7.eu/fhir/base/StructureDefinition/practitionerRole-eu"
          ]
        },
        "text": {
          "status": "generated",
          "div": "<div xmlns=\"http://www.w3.org/1999/xhtml\">Laboratory Role Id: ad4dba00-0a01-4526-bb3b-d5389627dc74</div>"
        },
        "practitioner": {
          "reference": "urn:uuid:b48136c6-c212-45b8-8b96-fcb180973ffa"
        }
      }
    },
    {
      "fullUrl": "urn:uuid:b48136c6-c212-45b8-8b96-fcb180973ffa",
      "resource": {
        "resourceType": "Practitioner",
        "id": "b48136c6-c212-45b8-8b96-fcb180973ffa",
        "meta": {
          "profile": [
            "http://hl7.eu/fhir/base/StructureDefinition/practitioner-eu"
          ]
        },
        "identifier": [
          {
            "assigner": {
              "display": "HL7 Europe"
            },
            "system": "urn:oid:2.16.840.1.113883.2.51.999",
            "value": "8177ac0b-2abd-40fa-9db6-8e291466b0d2"
          }
        ],
        "name": [
          {
            "prefix": [
              "dr"
            ],
            "given": [
              "Ex"
            ],
            "family": "Ample"
          }
        ],
        "address": [
          {
            "line": [
              "Laboratoire Central Européenne",
              "Boulevard du Jardin Botanique 32"
            ],
            "postalCode": "1000",
            "city": "Brussels",
            "country": "Belgium"
          }
        ],
        "text": {
          "status": "generated",
          "div": "<div xmlns=\"http://www.w3.org/1999/xhtml\">Laboratory: Laboratoire Central Européenne, 1000 Brussels, Belgium</div>"
        }
      }
    }
  ],
  "type": "document",
  "timestamp": "2018-07-16T14:02:04Z"
}
