{
  "resourceType": "Bundle",
  "id": "55142e5c-dcf2-4419-8ff0-7f8185b7510d",
  "meta": {
    "profile": [
      "http://hl7.eu/fhir/laboratory/StructureDefinition/Bundle-eu-lab"
    ]
  },
  "identifier": {
    "assigner": {
      "display": "HL7 Europe"
    },
    "system": "urn:oid:2.16.840.1.113883.2.51.999",
    "value": "d4a34b59-841f-48db-861a-7115c1bdaddb"
  },
  "entry": [
    {
      "fullUrl": "urn:uuid:03c74692-b9f0-40aa-ad4b-9a6b12ffe6e5",
      "resource": {
        "resourceType": "Composition",
        "id": "03c74692-b9f0-40aa-ad4b-9a6b12ffe6e5",
        "meta": {
          "profile": [
            "http://hl7.eu/fhir/laboratory/StructureDefinition/Composition-eu-lab"
          ]
        },
        "identifier": {
          "assigner": {
            "display": "HL7 Europe"
          },
          "system": "urn:oid:2.16.840.1.113883.2.51.999",
          "value": "21dbdd1f-cd37-4561-b0be-961e51ab04ac"
        },
        "author": [
          {
            "reference": "urn:uuid:93e728e0-ca1f-40d4-a4fd-43c7f545a812"
          }
        ],
        "category": [
          {
            "coding": [
              {
                "code": "26436-6",
                "system": "http://loinc.org",
                "display": "Laboratory studies (set)"
              }
            ]
          }
        ],
        "type": {
          "coding": [
            {
              "code": "11502-2",
              "system": "http://loinc.org",
              "display": "Laboratory report"
            }
          ],
          "text": "Laboratory Report"
        },
        "section": [
          {
            "code": {
              "coding": [
                {
                  "code": "26436-6",
                  "system": "http://loinc.org",
                  "display": "Laboratory studies (set)"
                }
              ],
              "text": "Laboratory studies"
            },
            "section": [
              {
                "code": {
                  "coding": [
                    {
                      "code": "$18719-5",
                      "system": "http://loinc.org",
                      "display": "Chemistry studies (set)"
                    }
                  ],
                  "text": "Chemistry"
                },
                "entry": [
                  {
                    "reference": "urn:uuid:737da6cc-fe66-4975-b84a-19af0b1eb2c6"
                  },
                  {
                    "reference": "urn:uuid:7428ecd1-9d7f-4d95-a084-a259e44c3950"
                  },
                  {
                    "reference": "urn:uuid:1a9ac8aa-bfbe-48f6-8582-88ff6cc342aa"
                  },
                  {
                    "reference": "urn:uuid:b6e35d8f-d3dd-499e-bf0b-e9f607276ff5"
                  },
                  {
                    "reference": "urn:uuid:ec18c1ff-1f12-4d6c-bde2-aabdaf7b140b"
                  },
                  {
                    "reference": "urn:uuid:35b66447-eff7-4264-8ba6-099a62474837"
                  },
                  {
                    "reference": "urn:uuid:d3613cad-f931-448c-8aab-2ec06a41dc0a"
                  },
                  {
                    "reference": "urn:uuid:16916a22-94fc-4103-bf9c-890a8975a439"
                  },
                  {
                    "reference": "urn:uuid:010904a6-e9c5-4841-b0a8-2cce5333f00d"
                  },
                  {
                    "reference": "urn:uuid:56d79818-1e19-4691-8f97-95e41d8ddf69"
                  },
                  {
                    "reference": "urn:uuid:b0eb0b9a-c9cf-4a35-b520-5ea0b550e50b"
                  },
                  {
                    "reference": "urn:uuid:22352ff0-ad34-492f-b878-18f91e1c7dbb"
                  },
                  {
                    "reference": "urn:uuid:46801403-010c-404f-9c5a-768b8704c57d"
                  },
                  {
                    "reference": "urn:uuid:22902979-f129-46c5-9329-c499b1653457"
                  },
                  {
                    "reference": "urn:uuid:065b971c-7d02-4a17-b69b-3b07f432b07e"
                  },
                  {
                    "reference": "urn:uuid:6fee83cd-79d3-4803-ab7e-106afcc626ff"
                  },
                  {
                    "reference": "urn:uuid:b8d307f9-243a-4233-bf59-a46da28d0277"
                  },
                  {
                    "reference": "urn:uuid:4dd7f251-e3c9-4cf9-a620-f9cd21671f5f"
                  }
                ],
                "text": {
                  "status": "generated",
                  "div": "<div xmlns=\"http://www.w3.org/1999/xhtml\"><h3>Chemistry</h3><table class=\"hl7__eu__lab__report\"><thead><tr><th>Test</th><th>08-DEC-2017</th><th>Reference&#xA0;Range</th><th>Unit</th></tr></thead><tbody><tr><td>Glucose [Mass/volume] in Serum or Plasma</td><td>81.2</td><td>70 - 140</td><td>mg/dL</td></tr><tr><td>Urea nitrogen [Mass/volume] in Serum or Plasma</td><td>15.6</td><td>7 - 20</td><td>mg/dL</td></tr><tr><td>Creatinine [Mass/volume] in Serum or Plasma</td><td><strong>1.8 H</strong></td><td>0.9 - 1.3</td><td>mg/dL</td></tr><tr><td>Calcium [Mass/volume] in Serum or Plasma</td><td>8.6</td><td>8.5 - 10.5</td><td>mg/dL</td></tr><tr><td>Sodium [Moles/volume] in Serum or Plasma</td><td>140.5</td><td>135 - 145</td><td>mmol/L</td></tr><tr><td>Potassium [Moles/volume] in Serum or Plasma</td><td>5.1</td><td>3.5 - 5.3</td><td>mmol/L</td></tr><tr><td>Chloride [Moles/volume] in Serum or Plasma</td><td><strong>109.7 H</strong></td><td>98 - 107</td><td>mmol/L</td></tr><tr><td>Carbon dioxide, total [Moles/volume] in Serum or Plasma</td><td>23.9</td><td>22 - 33</td><td>mmol/L</td></tr><tr><td>Ketones [Presence] in Urine by Test strip</td><td>Urine ketone test = +</td><td></td><td></td></tr><tr><td>Hemoglobin A1c/Hemoglobin.total in Blood</td><td><strong>2.9 L</strong></td><td>4.3 - 6</td><td>%</td></tr><tr><td>Glucose [Mass/volume] in Blood</td><td>81.2</td><td>70 - 140</td><td>mg/dL</td></tr><tr><td>Urea nitrogen [Mass/volume] in Blood</td><td>15.6</td><td>7 - 20</td><td>mg/dL</td></tr><tr><td>Creatinine [Mass/volume] in Blood</td><td><strong>2.6 H</strong></td><td>0.9 - 1.3</td><td>mg/dL</td></tr><tr><td>Calcium [Mass/volume] in Blood</td><td>8.6</td><td>8.5 - 10.5</td><td>mg/dL</td></tr><tr><td>Sodium [Moles/volume] in Blood</td><td>140.5</td><td>135 - 145</td><td>mmol/L</td></tr><tr><td>Potassium [Moles/volume] in Blood</td><td>5.1</td><td>3.5 - 5.1</td><td>mmol/L</td></tr><tr><td>Chloride [Moles/volume] in Blood</td><td><strong>109.7 H</strong></td><td>98 - 108</td><td>mmol/L</td></tr><tr><td>Carbon dioxide, total [Moles/volume] in Blood</td><td>23.9</td><td>22 - 29</td><td>mmol/L</td></tr></tbody></table></div>"
                },
                "title": "Chemistry"
              },
              {
                "code": {
                  "coding": [
                    {
                      "code": "$18729-4",
                      "system": "http://loinc.org",
                      "display": "Urinalysis studies (set)"
                    }
                  ],
                  "text": "Urinalysis"
                },
                "entry": [
                  {
                    "reference": "urn:uuid:0e8fa4c3-107b-48fd-8cd6-68e38d6b7899"
                  },
                  {
                    "reference": "urn:uuid:e0186419-4d00-4b90-9a6a-64e617855d17"
                  },
                  {
                    "reference": "urn:uuid:a8e1d131-7677-4cff-9d52-923b450e2096"
                  },
                  {
                    "reference": "urn:uuid:0c61d663-07d9-4ceb-b1ed-db44fa13d3bc"
                  },
                  {
                    "reference": "urn:uuid:78484f9f-2ca5-48c0-8826-2fb862a6f513"
                  },
                  {
                    "reference": "urn:uuid:8eff31a9-b75a-46ea-a37a-865761946659"
                  },
                  {
                    "reference": "urn:uuid:24895ae4-f5dd-41e2-b799-fbdbcb0b22e7"
                  },
                  {
                    "reference": "urn:uuid:34e0511d-2890-44a6-96aa-8e19cde2e35b"
                  },
                  {
                    "reference": "urn:uuid:60d91167-d1a7-4e3f-bace-2cc582873350"
                  },
                  {
                    "reference": "urn:uuid:ae475860-c291-4d15-8205-8cb0fff2f231"
                  },
                  {
                    "reference": "urn:uuid:8088f888-76b2-4e2b-861b-db08ced15cf7"
                  },
                  {
                    "reference": "urn:uuid:fae747ea-9e87-4766-b38d-87c51e87f86d"
                  }
                ],
                "text": {
                  "status": "generated",
                  "div": "<div xmlns=\"http://www.w3.org/1999/xhtml\"><h3>Urinalysis</h3><table class=\"hl7__eu__lab__report\"><thead><tr><th>Test</th><th>08-DEC-2017</th><th>Reference&#xA0;Range</th><th>Unit</th></tr></thead><tbody><tr><td>Glucose [Mass/volume] in Urine by Test strip</td><td><strong>1.2 H</strong></td><td>0 - 0.8</td><td>mg/dL</td></tr><tr><td>Glucose [Presence] in Urine by Test strip</td><td>++</td><td></td><td></td></tr><tr><td>Bilirubin.total [Mass/volume] in Urine by Test strip</td><td>0.3</td><td>0 - 1.9</td><td>mg/dL</td></tr><tr><td>Bilirubin.total [Presence] in Urine by Test strip</td><td>Finding of bilirubin in urine</td><td></td><td></td></tr><tr><td>Ketones [Mass/volume] in Urine by Test strip</td><td><strong>16.0 H</strong></td><td>0 - 3</td><td>mg/dL</td></tr><tr><td>Specific gravity of Urine by Test strip</td><td><strong>1.0 L</strong></td><td>1.01 - 1.03</td><td>{nominal}</td></tr><tr><td>pH of Urine by Test strip</td><td>5.5</td><td>4.5 - 7.5</td><td>pH</td></tr><tr><td>Protein [Mass/volume] in Urine by Test strip</td><td><strong>296.7 H</strong></td><td>0 - 149</td><td>mg/dL</td></tr><tr><td>Protein [Presence] in Urine by Test strip</td><td>Urine protein test = ++</td><td></td><td></td></tr><tr><td>Nitrite [Presence] in Urine by Test strip</td><td>Urine nitrite negative</td><td></td><td></td></tr><tr><td>Hemoglobin [Presence] in Urine by Test strip</td><td>Urine blood test = negative</td><td></td><td></td></tr><tr><td>Leukocyte esterase [Presence] in Urine by Test strip</td><td>Urine leukocyte test negative</td><td></td><td></td></tr></tbody></table></div>"
                },
                "title": "Urinalysis"
              },
              {
                "code": {
                  "coding": [
                    {
                      "code": "$LP7846-1",
                      "system": "http://loinc.org",
                      "display": "Specimen information"
                    }
                  ],
                  "text": "Specimen information"
                },
                "entry": [
                  {
                    "reference": "urn:uuid:1bedd512-7c3b-4db9-aa83-9557a2883fab"
                  },
                  {
                    "reference": "urn:uuid:a58d29ef-0b46-401b-a50e-3479169b3a80"
                  },
                  {
                    "reference": "urn:uuid:5520b9b6-a3fc-45b5-b050-1151100f41b0"
                  },
                  {
                    "reference": "urn:uuid:6754085b-6124-425d-bf85-91ca0bb853be"
                  }
                ],
                "text": {
                  "status": "generated",
                  "div": "<div xmlns=\"http://www.w3.org/1999/xhtml\"><h3>Specimen information</h3><table class=\"hl7__eu__lab__report\"><thead><tr><th>Test</th><th>08-DEC-2017</th><th>Specimen</th><th></th></tr></thead><tbody><tr><td>Appearance of Urine</td><td>Cloudy urine</td><td>Urine</td><td></td></tr><tr><td>Odor of Urine</td><td>Urine smell ammoniacal</td><td>Urine</td><td></td></tr><tr><td>Clarity of Urine</td><td>Translucent</td><td>Urine</td><td></td></tr><tr><td>Color of Urine</td><td>Brown color</td><td>Urine</td><td></td></tr></tbody></table></div>"
                },
                "title": "Specimen information"
              }
            ],
            "title": "Laboratory Report"
          },
          {
            "text": {
              "status": "generated",
              "div": "<div xmlns=\"http://www.w3.org/1999/xhtml\"><h3>Annotation</h3><table class=\"hl7__eu__lab__report\"><tr><th>Conclusion and Recommendations based on this report and previous findings known to us</th></tr><tr><td>The patient shows elevated creatinine, suggesting impaired renal function, and high chloride. Urinalysis reveals proteinuria, glucosuria, ketonuria, low specific gravity, and abnormal urine appearance, indicating possible diabetic nephropathy or another renal pathology, though HbA1c is unexpectedly low. No evidence of urinary infection. Recommend clinical correlation for renal impairment, review of diabetes status, and further nephrological evaluation.</td></tr></table></div>"
            },
            "code": {
              "coding": [
                {
                  "system": "http://loinc.org",
                  "code": "48767-8",
                  "display": "Annotation comment"
                }
              ]
            },
            "title": "Annotation comment"
          }
        ],
        "status": "final",
        "subject": {
          "reference": "urn:uuid:b5826c6d-b70d-4e32-9137-bb34ae5778d2",
          "display": "Victor Lagarde"
        },
        "date": "2017-12-08T05:48:18Z",
        "title": "Laboratory Report",
        "confidentiality": "N"
      }
    },
    {
      "fullUrl": "urn:uuid:8ae5e9f8-8c3d-44e7-b2b8-e46b962013f5",
      "resource": {
        "resourceType": "DiagnosticReport",
        "id": "8ae5e9f8-8c3d-44e7-b2b8-e46b962013f5",
        "meta": {
          "profile": [
            "http://hl7.eu/fhir/laboratory/StructureDefinition/DiagnosticReport-eu-lab"
          ]
        },
        "identifier": [
          {
            "assigner": {
              "display": "HL7 Europe"
            },
            "system": "urn:oid:2.16.840.1.113883.2.51.999",
            "value": "41d9e05f-9ceb-4e9b-8244-6383ca6fd4cc"
          }
        ],
        "extension": [
          {
            "url": "http://hl7.org/fhir/5.0/StructureDefinition/extension-DiagnosticReport.composition",
            "valueReference": {
              "reference": "urn:uuid:21dbdd1f-cd37-4561-b0be-961e51ab04ac"
            }
          }
        ],
        "category": [
          {
            "coding": [
              {
                "code": "26436-6",
                "system": "http://loinc.org",
                "display": "Laboratory studies (set)"
              }
            ]
          }
        ],
        "specimen": [
          {
            "reference": "urn:uuid:3d7c758e-28bd-4674-8ceb-9af8a0ef53a2"
          },
          {
            "reference": "urn:uuid:63f97105-445c-43c6-8943-28d3e4b239ac"
          },
          {
            "reference": "urn:uuid:bf46f532-6c36-4fc4-bd5b-a79d72bdc0e3"
          }
        ],
        "result": [
          {
            "reference": "urn:uuid:737da6cc-fe66-4975-b84a-19af0b1eb2c6"
          },
          {
            "reference": "urn:uuid:7428ecd1-9d7f-4d95-a084-a259e44c3950"
          },
          {
            "reference": "urn:uuid:1a9ac8aa-bfbe-48f6-8582-88ff6cc342aa"
          },
          {
            "reference": "urn:uuid:b6e35d8f-d3dd-499e-bf0b-e9f607276ff5"
          },
          {
            "reference": "urn:uuid:ec18c1ff-1f12-4d6c-bde2-aabdaf7b140b"
          },
          {
            "reference": "urn:uuid:35b66447-eff7-4264-8ba6-099a62474837"
          },
          {
            "reference": "urn:uuid:d3613cad-f931-448c-8aab-2ec06a41dc0a"
          },
          {
            "reference": "urn:uuid:16916a22-94fc-4103-bf9c-890a8975a439"
          },
          {
            "reference": "urn:uuid:1bedd512-7c3b-4db9-aa83-9557a2883fab"
          },
          {
            "reference": "urn:uuid:a58d29ef-0b46-401b-a50e-3479169b3a80"
          },
          {
            "reference": "urn:uuid:5520b9b6-a3fc-45b5-b050-1151100f41b0"
          },
          {
            "reference": "urn:uuid:6754085b-6124-425d-bf85-91ca0bb853be"
          },
          {
            "reference": "urn:uuid:0e8fa4c3-107b-48fd-8cd6-68e38d6b7899"
          },
          {
            "reference": "urn:uuid:e0186419-4d00-4b90-9a6a-64e617855d17"
          },
          {
            "reference": "urn:uuid:a8e1d131-7677-4cff-9d52-923b450e2096"
          },
          {
            "reference": "urn:uuid:0c61d663-07d9-4ceb-b1ed-db44fa13d3bc"
          },
          {
            "reference": "urn:uuid:78484f9f-2ca5-48c0-8826-2fb862a6f513"
          },
          {
            "reference": "urn:uuid:010904a6-e9c5-4841-b0a8-2cce5333f00d"
          },
          {
            "reference": "urn:uuid:8eff31a9-b75a-46ea-a37a-865761946659"
          },
          {
            "reference": "urn:uuid:24895ae4-f5dd-41e2-b799-fbdbcb0b22e7"
          },
          {
            "reference": "urn:uuid:34e0511d-2890-44a6-96aa-8e19cde2e35b"
          },
          {
            "reference": "urn:uuid:60d91167-d1a7-4e3f-bace-2cc582873350"
          },
          {
            "reference": "urn:uuid:ae475860-c291-4d15-8205-8cb0fff2f231"
          },
          {
            "reference": "urn:uuid:8088f888-76b2-4e2b-861b-db08ced15cf7"
          },
          {
            "reference": "urn:uuid:fae747ea-9e87-4766-b38d-87c51e87f86d"
          },
          {
            "reference": "urn:uuid:56d79818-1e19-4691-8f97-95e41d8ddf69"
          },
          {
            "reference": "urn:uuid:b0eb0b9a-c9cf-4a35-b520-5ea0b550e50b"
          },
          {
            "reference": "urn:uuid:22352ff0-ad34-492f-b878-18f91e1c7dbb"
          },
          {
            "reference": "urn:uuid:46801403-010c-404f-9c5a-768b8704c57d"
          },
          {
            "reference": "urn:uuid:22902979-f129-46c5-9329-c499b1653457"
          },
          {
            "reference": "urn:uuid:065b971c-7d02-4a17-b69b-3b07f432b07e"
          },
          {
            "reference": "urn:uuid:6fee83cd-79d3-4803-ab7e-106afcc626ff"
          },
          {
            "reference": "urn:uuid:b8d307f9-243a-4233-bf59-a46da28d0277"
          },
          {
            "reference": "urn:uuid:4dd7f251-e3c9-4cf9-a620-f9cd21671f5f"
          }
        ],
        "status": "registered",
        "code": {
          "coding": [
            {
              "code": "11502-2",
              "system": "http://loinc.org",
              "display": "Laboratory report"
            }
          ]
        },
        "subject": {
          "reference": "urn:uuid:b5826c6d-b70d-4e32-9137-bb34ae5778d2",
          "display": "Victor Lagarde"
        }
      }
    },
    {
      "fullUrl": "urn:uuid:b5826c6d-b70d-4e32-9137-bb34ae5778d2",
      "resource": {
        "resourceType": "Patient",
        "id": "b5826c6d-b70d-4e32-9137-bb34ae5778d2",
        "meta": {
          "security": [
            {
              "system": "http://terminology.hl7.org/CodeSystem/v3-ActReason",
              "code": "HTEST"
            },
            {
              "system": "http://terminology.hl7.org/CodeSystem/v3-ActReason",
              "code": "TRAIN"
            }
          ],
          "tag": [
            {
              "system": "https://synderai.net/fhir/CodeSystem/tags",
              "code": "synthetic",
              "display": "SYNDERAI Synthetic data"
            }
          ],
          "profile": [
            "http://hl7.eu/fhir/base/StructureDefinition/patient-eu-core"
          ]
        },
        "identifier": [
          {
            "type": {
              "coding": [
                {
                  "code": "PT",
                  "system": "http://terminology.hl7.org/CodeSystem/v2-0203"
                }
              ]
            },
            "system": "http://ec.europa.eu/identifier/eci",
            "value": "9925-001801-9"
          },
          {
            "type": {
              "coding": [
                {
                  "code": "MR",
                  "system": "http://terminology.hl7.org/CodeSystem/v2-0203"
                }
              ]
            },
            "system": "http://local.setting.eu/identifier",
            "value": "22c2dfd0-ac57-8833-2532-848f180896a4"
          }
        ],
        "name": [
          {
            "family": "Lagarde"
          },
          {
            "given": [
              "Victor"
            ]
          },
          {
            "text": "Victor Lagarde"
          }
        ],
        "address": [
          {
            "line": [
              "avenue Robert"
            ],
            "use": "home",
            "type": "physical",
            "postalCode": "80300",
            "city": "Albert",
            "country": "France"
          }
        ],
        "telecom": [
          {
            "system": "phone",
            "value": "0177941801"
          }
        ],
        "extension": [
          {
            "url": "http://hl7.org/fhir/StructureDefinition/patient-nationality",
            "valueCodeableConcept": {
              "coding": [
                {
                  "code": "FR",
                  "system": "http://hl7.org/fhir/ValueSet/country"
                }
              ]
            }
          }
        ],
        "text": {
          "status": "generated",
          "div": "<div xmlns=\"http://www.w3.org/1999/xhtml\"><table class=\"hl7__ips\"><tr><td>Victor Lagarde</td><td>male</td><td>31-Aug-1939</td></tr></table></div>"
        },
        "gender": "male",
        "birthDate": "1939-08-31"
      }
    },
    {
      "fullUrl": "urn:uuid:3d5fcb57-76eb-42cc-a34f-02bb20c8da44",
      "resource": {
        "resourceType": "ServiceRequest",
        "id": "3d5fcb57-76eb-42cc-a34f-02bb20c8da44",
        "meta": {
          "profile": [
            "http://hl7.eu/fhir/laboratory/StructureDefinition/ServiceRequest-eu-lab"
          ]
        },
        "identifier": [
          {
            "system": "http://example.org",
            "value": "cec58b72-8f51-452c-88d1-d48fe548a831"
          }
        ],
        "specimen": [
          {
            "reference": "urn:uuid:3d7c758e-28bd-4674-8ceb-9af8a0ef53a2"
          },
          {
            "reference": "urn:uuid:63f97105-445c-43c6-8943-28d3e4b239ac"
          },
          {
            "reference": "urn:uuid:bf46f532-6c36-4fc4-bd5b-a79d72bdc0e3"
          }
        ],
        "reasonCode": [
          {
            "coding": [
              {
                "code": "433144002",
                "system": "http://snomed.info/sct",
                "display": "Chronic kidney disease stage 3"
              }
            ]
          },
          {
            "coding": [
              {
                "code": "157141000119108",
                "system": "http://snomed.info/sct",
                "display": "Proteinuria due to type 2 diabetes mellitus"
              }
            ]
          },
          {
            "coding": [
              {
                "code": "431856006",
                "system": "http://snomed.info/sct",
                "display": "Chronic kidney disease stage 2"
              }
            ]
          },
          {
            "coding": [
              {
                "code": "90781000119102",
                "system": "http://snomed.info/sct",
                "display": "Microalbuminuria due to type 2 diabetes mellitus"
              }
            ]
          },
          {
            "coding": [
              {
                "code": "127013003",
                "system": "http://snomed.info/sct",
                "display": "Disorder of kidney due to diabetes mellitus"
              }
            ]
          },
          {
            "coding": [
              {
                "code": "431855005",
                "system": "http://snomed.info/sct",
                "display": "Chronic kidney disease stage 1"
              }
            ]
          },
          {
            "coding": [
              {
                "code": "55822004",
                "system": "http://snomed.info/sct",
                "display": "Hyperlipidemia"
              }
            ]
          },
          {
            "coding": [
              {
                "code": "59621000",
                "system": "http://snomed.info/sct",
                "display": "Essential hypertension"
              }
            ]
          },
          {
            "coding": [
              {
                "code": "237602007",
                "system": "http://snomed.info/sct",
                "display": "Metabolic syndrome X"
              }
            ]
          },
          {
            "coding": [
              {
                "code": "414545008",
                "system": "http://snomed.info/sct",
                "display": "Ischemic heart disease"
              }
            ]
          },
          {
            "coding": [
              {
                "code": "40055000",
                "system": "http://snomed.info/sct",
                "display": "Chronic sinusitis"
              }
            ]
          },
          {
            "coding": [
              {
                "code": "15777000",
                "system": "http://snomed.info/sct",
                "display": "Prediabetes"
              }
            ]
          },
          {
            "coding": [
              {
                "code": "271737000",
                "system": "http://snomed.info/sct",
                "display": "Anemia"
              }
            ]
          }
        ],
        "status": "active",
        "intent": "order",
        "code": {
          "coding": [
            {
              "code": "108252007",
              "system": "http://snomed.info/sct",
              "display": "Laboratory procedure"
            }
          ]
        },
        "subject": {
          "reference": "urn:uuid:b5826c6d-b70d-4e32-9137-bb34ae5778d2",
          "display": "Victor Lagarde"
        },
        "requester": {
          "reference": "urn:uuid:424dee72-bfba-4918-888f-690b65bde909"
        }
      }
    },
    {
      "fullUrl": "urn:uuid:424dee72-bfba-4918-888f-690b65bde909",
      "resource": {
        "resourceType": "PractitionerRole",
        "id": "424dee72-bfba-4918-888f-690b65bde909",
        "meta": {
          "profile": [
            "http://hl7.eu/fhir/base/StructureDefinition/practitionerRole-eu"
          ]
        },
        "text": {
          "status": "generated",
          "div": "<div xmlns=\"http://www.w3.org/1999/xhtml\">Provider Role Id: 424dee72-bfba-4918-888f-690b65bde909</div>"
        },
        "organization": {
          "reference": "urn:uuid:06911158-38d1-4d44-8231-14ea6116754a"
        }
      }
    },
    {
      "fullUrl": "urn:uuid:06911158-38d1-4d44-8231-14ea6116754a",
      "resource": {
        "resourceType": "Organization",
        "id": "06911158-38d1-4d44-8231-14ea6116754a",
        "meta": {
          "profile": [
            "http://hl7.eu/fhir/base/StructureDefinition/organization-eu"
          ]
        },
        "identifier": [
          {
            "assigner": {
              "display": "HL7 Europe"
            },
            "system": "urn:oid:2.16.840.1.113883.2.51.999",
            "value": "01108c38-8aac-46cd-a34c-5c18e23df86e"
          }
        ],
        "address": [
          {
            "city": "Auxerre",
            "postalCode": "89000",
            "country": "France"
          }
        ],
        "text": {
          "status": "generated",
          "div": "<div xmlns=\"http://www.w3.org/1999/xhtml\">Provider Organization: Thiriot Didier (Cardiologie)</div>"
        },
        "name": "Thiriot Didier (Cardiologie)"
      }
    },
    {
      "fullUrl": "urn:uuid:3d7c758e-28bd-4674-8ceb-9af8a0ef53a2",
      "resource": {
        "resourceType": "Specimen",
        "id": "3d7c758e-28bd-4674-8ceb-9af8a0ef53a2",
        "meta": {
          "profile": [
            "http://hl7.eu/fhir/laboratory/StructureDefinition/Specimen-eu-lab"
          ]
        },
        "collection": {
          "collectedDateTime": "2017-12-08"
        },
        "text": {
          "status": "generated",
          "div": "<div xmlns=\"http://www.w3.org/1999/xhtml\"><table class=\"hl7__eu__lab__report\"><tr><th>Specimen</th><th>Collection Date</th></tr><tr><td>Acellular blood (serum or plasma) specimen</td><td><span class=\"nb\">08-Dec-2017</span></td></tr></table></div>"
        },
        "type": {
          "coding": [
            {
              "code": "122592007",
              "system": "http://snomed.info/sct",
              "display": "Acellular blood (serum or plasma) specimen"
            }
          ]
        }
      }
    },
    {
      "fullUrl": "urn:uuid:63f97105-445c-43c6-8943-28d3e4b239ac",
      "resource": {
        "resourceType": "Specimen",
        "id": "63f97105-445c-43c6-8943-28d3e4b239ac",
        "meta": {
          "profile": [
            "http://hl7.eu/fhir/laboratory/StructureDefinition/Specimen-eu-lab"
          ]
        },
        "collection": {
          "collectedDateTime": "2017-12-08"
        },
        "text": {
          "status": "generated",
          "div": "<div xmlns=\"http://www.w3.org/1999/xhtml\"><table class=\"hl7__eu__lab__report\"><tr><th>Specimen</th><th>Collection Date</th></tr><tr><td>Urine specimen</td><td><span class=\"nb\">08-Dec-2017</span></td></tr></table></div>"
        },
        "type": {
          "coding": [
            {
              "code": "122575003",
              "system": "http://snomed.info/sct",
              "display": "Urine specimen"
            }
          ]
        }
      }
    },
    {
      "fullUrl": "urn:uuid:bf46f532-6c36-4fc4-bd5b-a79d72bdc0e3",
      "resource": {
        "resourceType": "Specimen",
        "id": "bf46f532-6c36-4fc4-bd5b-a79d72bdc0e3",
        "meta": {
          "profile": [
            "http://hl7.eu/fhir/laboratory/StructureDefinition/Specimen-eu-lab"
          ]
        },
        "collection": {
          "collectedDateTime": "2017-12-08"
        },
        "text": {
          "status": "generated",
          "div": "<div xmlns=\"http://www.w3.org/1999/xhtml\"><table class=\"hl7__eu__lab__report\"><tr><th>Specimen</th><th>Collection Date</th></tr><tr><td>Whole blood specimen (specimen)</td><td><span class=\"nb\">08-Dec-2017</span></td></tr></table></div>"
        },
        "type": {
          "coding": [
            {
              "code": "258580003",
              "system": "http://snomed.info/sct",
              "display": "Whole blood specimen (specimen)"
            }
          ]
        }
      }
    },
    {
      "fullUrl": "urn:uuid:737da6cc-fe66-4975-b84a-19af0b1eb2c6",
      "resource": {
        "resourceType": "Observation",
        "id": "737da6cc-fe66-4975-b84a-19af0b1eb2c6",
        "meta": {
          "profile": [
            "http://hl7.eu/fhir/laboratory/StructureDefinition/Observation-resultslab-eu-lab"
          ]
        },
        "performer": [
          {
            "display": "The Central European Lab"
          }
        ],
        "category": [
          {
            "coding": [
              {
                "system": "http://terminology.hl7.org/CodeSystem/observation-category",
                "code": "laboratory"
              }
            ]
          }
        ],
        "code": {
          "coding": [
            {
              "code": "2345-7",
              "system": "http://loinc.org",
              "display": "Glucose [Mass/volume] in Serum or Plasma"
            }
          ],
          "text": "Glucose [Mass/volume] in Serum or Plasma"
        },
        "valueQuantity": {
          "system": "http://unitsofmeasure.org",
          "value": 81.2,
          "unit": "mg/dL",
          "code": "mg/dL"
        },
        "referenceRange": [
          {
            "low": {
              "value": 70,
              "code": "mg/dL",
              "system": "http://unitsofmeasure.org"
            }
          },
          {
            "high": {
              "value": 140,
              "code": "mg/dL",
              "system": "http://unitsofmeasure.org"
            }
          }
        ],
        "text": {
          "status": "generated",
          "div": "<div xmlns=\"http://www.w3.org/1999/xhtml\"><table class=\"hl7__eu__lab__report\"><tr><th>Test</th><th>08-Dec-2017</th><th>Reference&#xA0;Range</th><th>Unit</th></tr><tr><td>Glucose [Mass/volume] in Serum or Plasma</td><td>81.2</td><td>70 - 140</td><td></td><td>mg/dL</td></tr></table></div>"
        },
        "status": "final",
        "subject": {
          "reference": "urn:uuid:b5826c6d-b70d-4e32-9137-bb34ae5778d2",
          "display": "Victor Lagarde"
        },
        "effectiveDateTime": "2017-12-08T04:48:18Z",
        "specimen": {
          "reference": "urn:uuid:3d7c758e-28bd-4674-8ceb-9af8a0ef53a2"
        }
      }
    },
    {
      "fullUrl": "urn:uuid:7428ecd1-9d7f-4d95-a084-a259e44c3950",
      "resource": {
        "resourceType": "Observation",
        "id": "7428ecd1-9d7f-4d95-a084-a259e44c3950",
        "meta": {
          "profile": [
            "http://hl7.eu/fhir/laboratory/StructureDefinition/Observation-resultslab-eu-lab"
          ]
        },
        "performer": [
          {
            "display": "The Central European Lab"
          }
        ],
        "category": [
          {
            "coding": [
              {
                "system": "http://terminology.hl7.org/CodeSystem/observation-category",
                "code": "laboratory"
              }
            ]
          }
        ],
        "code": {
          "coding": [
            {
              "code": "3094-0",
              "system": "http://loinc.org",
              "display": "Urea nitrogen [Mass/volume] in Serum or Plasma"
            }
          ],
          "text": "Urea nitrogen [Mass/volume] in Serum or Plasma"
        },
        "valueQuantity": {
          "system": "http://unitsofmeasure.org",
          "value": 15.6,
          "unit": "mg/dL",
          "code": "mg/dL"
        },
        "referenceRange": [
          {
            "low": {
              "value": 7,
              "code": "mg/dL",
              "system": "http://unitsofmeasure.org"
            }
          },
          {
            "high": {
              "value": 20,
              "code": "mg/dL",
              "system": "http://unitsofmeasure.org"
            }
          }
        ],
        "text": {
          "status": "generated",
          "div": "<div xmlns=\"http://www.w3.org/1999/xhtml\"><table class=\"hl7__eu__lab__report\"><tr><th>Test</th><th>08-Dec-2017</th><th>Reference&#xA0;Range</th><th>Unit</th></tr><tr><td>Urea nitrogen [Mass/volume] in Serum or Plasma</td><td>15.6</td><td>7 - 20</td><td></td><td>mg/dL</td></tr></table></div>"
        },
        "status": "final",
        "subject": {
          "reference": "urn:uuid:b5826c6d-b70d-4e32-9137-bb34ae5778d2",
          "display": "Victor Lagarde"
        },
        "effectiveDateTime": "2017-12-08T04:48:18Z",
        "specimen": {
          "reference": "urn:uuid:3d7c758e-28bd-4674-8ceb-9af8a0ef53a2"
        }
      }
    },
    {
      "fullUrl": "urn:uuid:1a9ac8aa-bfbe-48f6-8582-88ff6cc342aa",
      "resource": {
        "resourceType": "Observation",
        "id": "1a9ac8aa-bfbe-48f6-8582-88ff6cc342aa",
        "meta": {
          "profile": [
            "http://hl7.eu/fhir/laboratory/StructureDefinition/Observation-resultslab-eu-lab"
          ]
        },
        "performer": [
          {
            "display": "The Central European Lab"
          }
        ],
        "category": [
          {
            "coding": [
              {
                "system": "http://terminology.hl7.org/CodeSystem/observation-category",
                "code": "laboratory"
              }
            ]
          }
        ],
        "code": {
          "coding": [
            {
              "code": "2160-0",
              "system": "http://loinc.org",
              "display": "Creatinine [Mass/volume] in Serum or Plasma"
            }
          ],
          "text": "Creatinine [Mass/volume] in Serum or Plasma"
        },
        "valueQuantity": {
          "system": "http://unitsofmeasure.org",
          "value": 1.8,
          "unit": "mg/dL",
          "code": "mg/dL"
        },
        "referenceRange": [
          {
            "low": {
              "value": 0.9,
              "code": "mg/dL",
              "system": "http://unitsofmeasure.org"
            }
          },
          {
            "high": {
              "value": 1.3,
              "code": "mg/dL",
              "system": "http://unitsofmeasure.org"
            }
          }
        ],
        "interpretation": [
          {
            "coding": [
              {
                "code": "H",
                "system": "http://terminology.hl7.org/CodeSystem/v3-ObservationInterpretation",
                "display": "High"
              }
            ]
          }
        ],
        "text": {
          "status": "generated",
          "div": "<div xmlns=\"http://www.w3.org/1999/xhtml\"><table class=\"hl7__eu__lab__report\"><tr><th>Test</th><th>08-Dec-2017</th><th>Reference&#xA0;Range</th><th>Unit</th></tr><tr><td>Creatinine [Mass/volume] in Serum or Plasma</td><td>1.8</td><td>0.9 - 1.3</td><td>H</td><td>mg/dL</td></tr></table></div>"
        },
        "status": "final",
        "subject": {
          "reference": "urn:uuid:b5826c6d-b70d-4e32-9137-bb34ae5778d2",
          "display": "Victor Lagarde"
        },
        "effectiveDateTime": "2017-12-08T04:48:18Z",
        "specimen": {
          "reference": "urn:uuid:3d7c758e-28bd-4674-8ceb-9af8a0ef53a2"
        }
      }
    },
    {
      "fullUrl": "urn:uuid:b6e35d8f-d3dd-499e-bf0b-e9f607276ff5",
      "resource": {
        "resourceType": "Observation",
        "id": "b6e35d8f-d3dd-499e-bf0b-e9f607276ff5",
        "meta": {
          "profile": [
            "http://hl7.eu/fhir/laboratory/StructureDefinition/Observation-resultslab-eu-lab"
          ]
        },
        "performer": [
          {
            "display": "The Central European Lab"
          }
        ],
        "category": [
          {
            "coding": [
              {
                "system": "http://terminology.hl7.org/CodeSystem/observation-category",
                "code": "laboratory"
              }
            ]
          }
        ],
        "code": {
          "coding": [
            {
              "code": "17861-6",
              "system": "http://loinc.org",
              "display": "Calcium [Mass/volume] in Serum or Plasma"
            }
          ],
          "text": "Calcium [Mass/volume] in Serum or Plasma"
        },
        "valueQuantity": {
          "system": "http://unitsofmeasure.org",
          "value": 8.6,
          "unit": "mg/dL",
          "code": "mg/dL"
        },
        "referenceRange": [
          {
            "low": {
              "value": 8.5,
              "code": "mg/dL",
              "system": "http://unitsofmeasure.org"
            }
          },
          {
            "high": {
              "value": 10.5,
              "code": "mg/dL",
              "system": "http://unitsofmeasure.org"
            }
          }
        ],
        "text": {
          "status": "generated",
          "div": "<div xmlns=\"http://www.w3.org/1999/xhtml\"><table class=\"hl7__eu__lab__report\"><tr><th>Test</th><th>08-Dec-2017</th><th>Reference&#xA0;Range</th><th>Unit</th></tr><tr><td>Calcium [Mass/volume] in Serum or Plasma</td><td>8.6</td><td>8.5 - 10.5</td><td></td><td>mg/dL</td></tr></table></div>"
        },
        "status": "final",
        "subject": {
          "reference": "urn:uuid:b5826c6d-b70d-4e32-9137-bb34ae5778d2",
          "display": "Victor Lagarde"
        },
        "effectiveDateTime": "2017-12-08T04:48:18Z",
        "specimen": {
          "reference": "urn:uuid:3d7c758e-28bd-4674-8ceb-9af8a0ef53a2"
        }
      }
    },
    {
      "fullUrl": "urn:uuid:ec18c1ff-1f12-4d6c-bde2-aabdaf7b140b",
      "resource": {
        "resourceType": "Observation",
        "id": "ec18c1ff-1f12-4d6c-bde2-aabdaf7b140b",
        "meta": {
          "profile": [
            "http://hl7.eu/fhir/laboratory/StructureDefinition/Observation-resultslab-eu-lab"
          ]
        },
        "performer": [
          {
            "display": "The Central European Lab"
          }
        ],
        "category": [
          {
            "coding": [
              {
                "system": "http://terminology.hl7.org/CodeSystem/observation-category",
                "code": "laboratory"
              }
            ]
          }
        ],
        "code": {
          "coding": [
            {
              "code": "2951-2",
              "system": "http://loinc.org",
              "display": "Sodium [Moles/volume] in Serum or Plasma"
            }
          ],
          "text": "Sodium [Moles/volume] in Serum or Plasma"
        },
        "valueQuantity": {
          "system": "http://unitsofmeasure.org",
          "value": 140.5,
          "unit": "mmol/L",
          "code": "mmol/L"
        },
        "referenceRange": [
          {
            "low": {
              "value": 135,
              "code": "mmol/L",
              "system": "http://unitsofmeasure.org"
            }
          },
          {
            "high": {
              "value": 145,
              "code": "mmol/L",
              "system": "http://unitsofmeasure.org"
            }
          }
        ],
        "text": {
          "status": "generated",
          "div": "<div xmlns=\"http://www.w3.org/1999/xhtml\"><table class=\"hl7__eu__lab__report\"><tr><th>Test</th><th>08-Dec-2017</th><th>Reference&#xA0;Range</th><th>Unit</th></tr><tr><td>Sodium [Moles/volume] in Serum or Plasma</td><td>140.5</td><td>135 - 145</td><td></td><td>mmol/L</td></tr></table></div>"
        },
        "status": "final",
        "subject": {
          "reference": "urn:uuid:b5826c6d-b70d-4e32-9137-bb34ae5778d2",
          "display": "Victor Lagarde"
        },
        "effectiveDateTime": "2017-12-08T04:48:18Z",
        "specimen": {
          "reference": "urn:uuid:3d7c758e-28bd-4674-8ceb-9af8a0ef53a2"
        }
      }
    },
    {
      "fullUrl": "urn:uuid:35b66447-eff7-4264-8ba6-099a62474837",
      "resource": {
        "resourceType": "Observation",
        "id": "35b66447-eff7-4264-8ba6-099a62474837",
        "meta": {
          "profile": [
            "http://hl7.eu/fhir/laboratory/StructureDefinition/Observation-resultslab-eu-lab"
          ]
        },
        "performer": [
          {
            "display": "The Central European Lab"
          }
        ],
        "category": [
          {
            "coding": [
              {
                "system": "http://terminology.hl7.org/CodeSystem/observation-category",
                "code": "laboratory"
              }
            ]
          }
        ],
        "code": {
          "coding": [
            {
              "code": "2823-3",
              "system": "http://loinc.org",
              "display": "Potassium [Moles/volume] in Serum or Plasma"
            }
          ],
          "text": "Potassium [Moles/volume] in Serum or Plasma"
        },
        "valueQuantity": {
          "system": "http://unitsofmeasure.org",
          "value": 5.1,
          "unit": "mmol/L",
          "code": "mmol/L"
        },
        "referenceRange": [
          {
            "low": {
              "value": 3.5,
              "code": "mmol/L",
              "system": "http://unitsofmeasure.org"
            }
          },
          {
            "high": {
              "value": 5.3,
              "code": "mmol/L",
              "system": "http://unitsofmeasure.org"
            }
          }
        ],
        "text": {
          "status": "generated",
          "div": "<div xmlns=\"http://www.w3.org/1999/xhtml\"><table class=\"hl7__eu__lab__report\"><tr><th>Test</th><th>08-Dec-2017</th><th>Reference&#xA0;Range</th><th>Unit</th></tr><tr><td>Potassium [Moles/volume] in Serum or Plasma</td><td>5.1</td><td>3.5 - 5.3</td><td></td><td>mmol/L</td></tr></table></div>"
        },
        "status": "final",
        "subject": {
          "reference": "urn:uuid:b5826c6d-b70d-4e32-9137-bb34ae5778d2",
          "display": "Victor Lagarde"
        },
        "effectiveDateTime": "2017-12-08T04:48:18Z",
        "specimen": {
          "reference": "urn:uuid:3d7c758e-28bd-4674-8ceb-9af8a0ef53a2"
        }
      }
    },
    {
      "fullUrl": "urn:uuid:d3613cad-f931-448c-8aab-2ec06a41dc0a",
      "resource": {
        "resourceType": "Observation",
        "id": "d3613cad-f931-448c-8aab-2ec06a41dc0a",
        "meta": {
          "profile": [
            "http://hl7.eu/fhir/laboratory/StructureDefinition/Observation-resultslab-eu-lab"
          ]
        },
        "performer": [
          {
            "display": "The Central European Lab"
          }
        ],
        "category": [
          {
            "coding": [
              {
                "system": "http://terminology.hl7.org/CodeSystem/observation-category",
                "code": "laboratory"
              }
            ]
          }
        ],
        "code": {
          "coding": [
            {
              "code": "2075-0",
              "system": "http://loinc.org",
              "display": "Chloride [Moles/volume] in Serum or Plasma"
            }
          ],
          "text": "Chloride [Moles/volume] in Serum or Plasma"
        },
        "valueQuantity": {
          "system": "http://unitsofmeasure.org",
          "value": 109.7,
          "unit": "mmol/L",
          "code": "mmol/L"
        },
        "referenceRange": [
          {
            "low": {
              "value": 98,
              "code": "mmol/L",
              "system": "http://unitsofmeasure.org"
            }
          },
          {
            "high": {
              "value": 107,
              "code": "mmol/L",
              "system": "http://unitsofmeasure.org"
            }
          }
        ],
        "interpretation": [
          {
            "coding": [
              {
                "code": "H",
                "system": "http://terminology.hl7.org/CodeSystem/v3-ObservationInterpretation",
                "display": "High"
              }
            ]
          }
        ],
        "text": {
          "status": "generated",
          "div": "<div xmlns=\"http://www.w3.org/1999/xhtml\"><table class=\"hl7__eu__lab__report\"><tr><th>Test</th><th>08-Dec-2017</th><th>Reference&#xA0;Range</th><th>Unit</th></tr><tr><td>Chloride [Moles/volume] in Serum or Plasma</td><td>109.7</td><td>98 - 107</td><td>H</td><td>mmol/L</td></tr></table></div>"
        },
        "status": "final",
        "subject": {
          "reference": "urn:uuid:b5826c6d-b70d-4e32-9137-bb34ae5778d2",
          "display": "Victor Lagarde"
        },
        "effectiveDateTime": "2017-12-08T04:48:18Z",
        "specimen": {
          "reference": "urn:uuid:3d7c758e-28bd-4674-8ceb-9af8a0ef53a2"
        }
      }
    },
    {
      "fullUrl": "urn:uuid:16916a22-94fc-4103-bf9c-890a8975a439",
      "resource": {
        "resourceType": "Observation",
        "id": "16916a22-94fc-4103-bf9c-890a8975a439",
        "meta": {
          "profile": [
            "http://hl7.eu/fhir/laboratory/StructureDefinition/Observation-resultslab-eu-lab"
          ]
        },
        "performer": [
          {
            "display": "The Central European Lab"
          }
        ],
        "category": [
          {
            "coding": [
              {
                "system": "http://terminology.hl7.org/CodeSystem/observation-category",
                "code": "laboratory"
              }
            ]
          }
        ],
        "code": {
          "coding": [
            {
              "code": "2028-9",
              "system": "http://loinc.org",
              "display": "Carbon dioxide, total [Moles/volume] in Serum or Plasma"
            }
          ],
          "text": "Carbon dioxide, total [Moles/volume] in Serum or Plasma"
        },
        "valueQuantity": {
          "system": "http://unitsofmeasure.org",
          "value": 23.9,
          "unit": "mmol/L",
          "code": "mmol/L"
        },
        "referenceRange": [
          {
            "low": {
              "value": 22,
              "code": "mmol/L",
              "system": "http://unitsofmeasure.org"
            }
          },
          {
            "high": {
              "value": 33,
              "code": "mmol/L",
              "system": "http://unitsofmeasure.org"
            }
          }
        ],
        "text": {
          "status": "generated",
          "div": "<div xmlns=\"http://www.w3.org/1999/xhtml\"><table class=\"hl7__eu__lab__report\"><tr><th>Test</th><th>08-Dec-2017</th><th>Reference&#xA0;Range</th><th>Unit</th></tr><tr><td>Carbon dioxide, total [Moles/volume] in Serum or Plasma</td><td>23.9</td><td>22 - 33</td><td></td><td>mmol/L</td></tr></table></div>"
        },
        "status": "final",
        "subject": {
          "reference": "urn:uuid:b5826c6d-b70d-4e32-9137-bb34ae5778d2",
          "display": "Victor Lagarde"
        },
        "effectiveDateTime": "2017-12-08T04:48:18Z",
        "specimen": {
          "reference": "urn:uuid:3d7c758e-28bd-4674-8ceb-9af8a0ef53a2"
        }
      }
    },
    {
      "fullUrl": "urn:uuid:1bedd512-7c3b-4db9-aa83-9557a2883fab",
      "resource": {
        "resourceType": "Observation",
        "id": "1bedd512-7c3b-4db9-aa83-9557a2883fab",
        "meta": {
          "profile": [
            "http://hl7.eu/fhir/laboratory/StructureDefinition/Observation-resultslab-eu-lab"
          ]
        },
        "performer": [
          {
            "display": "The Central European Lab"
          }
        ],
        "category": [
          {
            "coding": [
              {
                "system": "http://terminology.hl7.org/CodeSystem/observation-category",
                "code": "laboratory"
              }
            ]
          }
        ],
        "code": {
          "coding": [
            {
              "code": "5767-9",
              "system": "http://loinc.org",
              "display": "Appearance of Urine"
            }
          ],
          "text": "Appearance of Urine"
        },
        "text": {
          "status": "generated",
          "div": "<div xmlns=\"http://www.w3.org/1999/xhtml\"><table class=\"hl7__eu__lab__report\"><tr><th>Test</th><th>08-Dec-2017</th><th>Reference&#xA0;Range</th><th>Unit</th></tr><tr><td>Appearance of Urine</td></tr></table></div>"
        },
        "status": "final",
        "subject": {
          "reference": "urn:uuid:b5826c6d-b70d-4e32-9137-bb34ae5778d2",
          "display": "Victor Lagarde"
        },
        "effectiveDateTime": "2017-12-08T04:48:18Z",
        "specimen": {
          "reference": "urn:uuid:63f97105-445c-43c6-8943-28d3e4b239ac"
        }
      }
    },
    {
      "fullUrl": "urn:uuid:a58d29ef-0b46-401b-a50e-3479169b3a80",
      "resource": {
        "resourceType": "Observation",
        "id": "a58d29ef-0b46-401b-a50e-3479169b3a80",
        "meta": {
          "profile": [
            "http://hl7.eu/fhir/laboratory/StructureDefinition/Observation-resultslab-eu-lab"
          ]
        },
        "performer": [
          {
            "display": "The Central European Lab"
          }
        ],
        "category": [
          {
            "coding": [
              {
                "system": "http://terminology.hl7.org/CodeSystem/observation-category",
                "code": "laboratory"
              }
            ]
          }
        ],
        "code": {
          "coding": [
            {
              "code": "34533-0",
              "system": "http://loinc.org",
              "display": "Odor of Urine"
            }
          ],
          "text": "Odor of Urine"
        },
        "text": {
          "status": "generated",
          "div": "<div xmlns=\"http://www.w3.org/1999/xhtml\"><table class=\"hl7__eu__lab__report\"><tr><th>Test</th><th>08-Dec-2017</th><th>Reference&#xA0;Range</th><th>Unit</th></tr><tr><td>Odor of Urine</td></tr></table></div>"
        },
        "status": "final",
        "subject": {
          "reference": "urn:uuid:b5826c6d-b70d-4e32-9137-bb34ae5778d2",
          "display": "Victor Lagarde"
        },
        "effectiveDateTime": "2017-12-08T04:48:18Z",
        "specimen": {
          "reference": "urn:uuid:63f97105-445c-43c6-8943-28d3e4b239ac"
        }
      }
    },
    {
      "fullUrl": "urn:uuid:5520b9b6-a3fc-45b5-b050-1151100f41b0",
      "resource": {
        "resourceType": "Observation",
        "id": "5520b9b6-a3fc-45b5-b050-1151100f41b0",
        "meta": {
          "profile": [
            "http://hl7.eu/fhir/laboratory/StructureDefinition/Observation-resultslab-eu-lab"
          ]
        },
        "performer": [
          {
            "display": "The Central European Lab"
          }
        ],
        "category": [
          {
            "coding": [
              {
                "system": "http://terminology.hl7.org/CodeSystem/observation-category",
                "code": "laboratory"
              }
            ]
          }
        ],
        "code": {
          "coding": [
            {
              "code": "32167-9",
              "system": "http://loinc.org",
              "display": "Clarity of Urine"
            }
          ],
          "text": "Clarity of Urine"
        },
        "text": {
          "status": "generated",
          "div": "<div xmlns=\"http://www.w3.org/1999/xhtml\"><table class=\"hl7__eu__lab__report\"><tr><th>Test</th><th>08-Dec-2017</th><th>Reference&#xA0;Range</th><th>Unit</th></tr><tr><td>Clarity of Urine</td></tr></table></div>"
        },
        "status": "final",
        "subject": {
          "reference": "urn:uuid:b5826c6d-b70d-4e32-9137-bb34ae5778d2",
          "display": "Victor Lagarde"
        },
        "effectiveDateTime": "2017-12-08T04:48:18Z",
        "specimen": {
          "reference": "urn:uuid:63f97105-445c-43c6-8943-28d3e4b239ac"
        }
      }
    },
    {
      "fullUrl": "urn:uuid:6754085b-6124-425d-bf85-91ca0bb853be",
      "resource": {
        "resourceType": "Observation",
        "id": "6754085b-6124-425d-bf85-91ca0bb853be",
        "meta": {
          "profile": [
            "http://hl7.eu/fhir/laboratory/StructureDefinition/Observation-resultslab-eu-lab"
          ]
        },
        "performer": [
          {
            "display": "The Central European Lab"
          }
        ],
        "category": [
          {
            "coding": [
              {
                "system": "http://terminology.hl7.org/CodeSystem/observation-category",
                "code": "laboratory"
              }
            ]
          }
        ],
        "code": {
          "coding": [
            {
              "code": "5778-6",
              "system": "http://loinc.org",
              "display": "Color of Urine"
            }
          ],
          "text": "Color of Urine"
        },
        "text": {
          "status": "generated",
          "div": "<div xmlns=\"http://www.w3.org/1999/xhtml\"><table class=\"hl7__eu__lab__report\"><tr><th>Test</th><th>08-Dec-2017</th><th>Reference&#xA0;Range</th><th>Unit</th></tr><tr><td>Color of Urine</td></tr></table></div>"
        },
        "status": "final",
        "subject": {
          "reference": "urn:uuid:b5826c6d-b70d-4e32-9137-bb34ae5778d2",
          "display": "Victor Lagarde"
        },
        "effectiveDateTime": "2017-12-08T04:48:18Z",
        "specimen": {
          "reference": "urn:uuid:63f97105-445c-43c6-8943-28d3e4b239ac"
        }
      }
    },
    {
      "fullUrl": "urn:uuid:0e8fa4c3-107b-48fd-8cd6-68e38d6b7899",
      "resource": {
        "resourceType": "Observation",
        "id": "0e8fa4c3-107b-48fd-8cd6-68e38d6b7899",
        "meta": {
          "profile": [
            "http://hl7.eu/fhir/laboratory/StructureDefinition/Observation-resultslab-eu-lab"
          ]
        },
        "performer": [
          {
            "display": "The Central European Lab"
          }
        ],
        "category": [
          {
            "coding": [
              {
                "system": "http://terminology.hl7.org/CodeSystem/observation-category",
                "code": "laboratory"
              }
            ]
          }
        ],
        "code": {
          "coding": [
            {
              "code": "5792-7",
              "system": "http://loinc.org",
              "display": "Glucose [Mass/volume] in Urine by Test strip"
            }
          ],
          "text": "Glucose [Mass/volume] in Urine by Test strip"
        },
        "valueQuantity": {
          "system": "http://unitsofmeasure.org",
          "value": 1.2,
          "unit": "mg/dL",
          "code": "mg/dL"
        },
        "referenceRange": [
          {
            "low": {
              "value": 0,
              "code": "mg/dL",
              "system": "http://unitsofmeasure.org"
            }
          },
          {
            "high": {
              "value": 0.8,
              "code": "mg/dL",
              "system": "http://unitsofmeasure.org"
            }
          }
        ],
        "interpretation": [
          {
            "coding": [
              {
                "code": "H",
                "system": "http://terminology.hl7.org/CodeSystem/v3-ObservationInterpretation",
                "display": "High"
              }
            ]
          }
        ],
        "text": {
          "status": "generated",
          "div": "<div xmlns=\"http://www.w3.org/1999/xhtml\"><table class=\"hl7__eu__lab__report\"><tr><th>Test</th><th>08-Dec-2017</th><th>Reference&#xA0;Range</th><th>Unit</th></tr><tr><td>Glucose [Mass/volume] in Urine by Test strip</td><td>1.2</td><td>0 - 0.8</td><td>H</td><td>mg/dL</td></tr></table></div>"
        },
        "status": "final",
        "subject": {
          "reference": "urn:uuid:b5826c6d-b70d-4e32-9137-bb34ae5778d2",
          "display": "Victor Lagarde"
        },
        "effectiveDateTime": "2017-12-08T04:48:18Z",
        "specimen": {
          "reference": "urn:uuid:63f97105-445c-43c6-8943-28d3e4b239ac"
        }
      }
    },
    {
      "fullUrl": "urn:uuid:e0186419-4d00-4b90-9a6a-64e617855d17",
      "resource": {
        "resourceType": "Observation",
        "id": "e0186419-4d00-4b90-9a6a-64e617855d17",
        "meta": {
          "profile": [
            "http://hl7.eu/fhir/laboratory/StructureDefinition/Observation-resultslab-eu-lab"
          ]
        },
        "performer": [
          {
            "display": "The Central European Lab"
          }
        ],
        "category": [
          {
            "coding": [
              {
                "system": "http://terminology.hl7.org/CodeSystem/observation-category",
                "code": "laboratory"
              }
            ]
          }
        ],
        "code": {
          "coding": [
            {
              "code": "25428-4",
              "system": "http://loinc.org",
              "display": "Glucose [Presence] in Urine by Test strip"
            }
          ],
          "text": "Glucose [Presence] in Urine by Test strip"
        },
        "text": {
          "status": "generated",
          "div": "<div xmlns=\"http://www.w3.org/1999/xhtml\"><table class=\"hl7__eu__lab__report\"><tr><th>Test</th><th>08-Dec-2017</th><th>Reference&#xA0;Range</th><th>Unit</th></tr><tr><td>Glucose [Presence] in Urine by Test strip</td></tr></table></div>"
        },
        "status": "final",
        "subject": {
          "reference": "urn:uuid:b5826c6d-b70d-4e32-9137-bb34ae5778d2",
          "display": "Victor Lagarde"
        },
        "effectiveDateTime": "2017-12-08T04:48:18Z",
        "specimen": {
          "reference": "urn:uuid:63f97105-445c-43c6-8943-28d3e4b239ac"
        }
      }
    },
    {
      "fullUrl": "urn:uuid:a8e1d131-7677-4cff-9d52-923b450e2096",
      "resource": {
        "resourceType": "Observation",
        "id": "a8e1d131-7677-4cff-9d52-923b450e2096",
        "meta": {
          "profile": [
            "http://hl7.eu/fhir/laboratory/StructureDefinition/Observation-resultslab-eu-lab"
          ]
        },
        "performer": [
          {
            "display": "The Central European Lab"
          }
        ],
        "category": [
          {
            "coding": [
              {
                "system": "http://terminology.hl7.org/CodeSystem/observation-category",
                "code": "laboratory"
              }
            ]
          }
        ],
        "code": {
          "coding": [
            {
              "code": "20505-4",
              "system": "http://loinc.org",
              "display": "Bilirubin.total [Mass/volume] in Urine by Test strip"
            }
          ],
          "text": "Bilirubin.total [Mass/volume] in Urine by Test strip"
        },
        "valueQuantity": {
          "system": "http://unitsofmeasure.org",
          "value": 0.3,
          "unit": "mg/dL",
          "code": "mg/dL"
        },
        "referenceRange": [
          {
            "low": {
              "value": 0,
              "code": "mg/dL",
              "system": "http://unitsofmeasure.org"
            }
          },
          {
            "high": {
              "value": 1.9,
              "code": "mg/dL",
              "system": "http://unitsofmeasure.org"
            }
          }
        ],
        "text": {
          "status": "generated",
          "div": "<div xmlns=\"http://www.w3.org/1999/xhtml\"><table class=\"hl7__eu__lab__report\"><tr><th>Test</th><th>08-Dec-2017</th><th>Reference&#xA0;Range</th><th>Unit</th></tr><tr><td>Bilirubin.total [Mass/volume] in Urine by Test strip</td><td>0.3</td><td>0 - 1.9</td><td></td><td>mg/dL</td></tr></table></div>"
        },
        "status": "final",
        "subject": {
          "reference": "urn:uuid:b5826c6d-b70d-4e32-9137-bb34ae5778d2",
          "display": "Victor Lagarde"
        },
        "effectiveDateTime": "2017-12-08T04:48:18Z",
        "specimen": {
          "reference": "urn:uuid:63f97105-445c-43c6-8943-28d3e4b239ac"
        }
      }
    },
    {
      "fullUrl": "urn:uuid:0c61d663-07d9-4ceb-b1ed-db44fa13d3bc",
      "resource": {
        "resourceType": "Observation",
        "id": "0c61d663-07d9-4ceb-b1ed-db44fa13d3bc",
        "meta": {
          "profile": [
            "http://hl7.eu/fhir/laboratory/StructureDefinition/Observation-resultslab-eu-lab"
          ]
        },
        "performer": [
          {
            "display": "The Central European Lab"
          }
        ],
        "category": [
          {
            "coding": [
              {
                "system": "http://terminology.hl7.org/CodeSystem/observation-category",
                "code": "laboratory"
              }
            ]
          }
        ],
        "code": {
          "coding": [
            {
              "code": "5770-3",
              "system": "http://loinc.org",
              "display": "Bilirubin.total [Presence] in Urine by Test strip"
            }
          ],
          "text": "Bilirubin.total [Presence] in Urine by Test strip"
        },
        "text": {
          "status": "generated",
          "div": "<div xmlns=\"http://www.w3.org/1999/xhtml\"><table class=\"hl7__eu__lab__report\"><tr><th>Test</th><th>08-Dec-2017</th><th>Reference&#xA0;Range</th><th>Unit</th></tr><tr><td>Bilirubin.total [Presence] in Urine by Test strip</td></tr></table></div>"
        },
        "status": "final",
        "subject": {
          "reference": "urn:uuid:b5826c6d-b70d-4e32-9137-bb34ae5778d2",
          "display": "Victor Lagarde"
        },
        "effectiveDateTime": "2017-12-08T04:48:18Z",
        "specimen": {
          "reference": "urn:uuid:63f97105-445c-43c6-8943-28d3e4b239ac"
        }
      }
    },
    {
      "fullUrl": "urn:uuid:78484f9f-2ca5-48c0-8826-2fb862a6f513",
      "resource": {
        "resourceType": "Observation",
        "id": "78484f9f-2ca5-48c0-8826-2fb862a6f513",
        "meta": {
          "profile": [
            "http://hl7.eu/fhir/laboratory/StructureDefinition/Observation-resultslab-eu-lab"
          ]
        },
        "performer": [
          {
            "display": "The Central European Lab"
          }
        ],
        "category": [
          {
            "coding": [
              {
                "system": "http://terminology.hl7.org/CodeSystem/observation-category",
                "code": "laboratory"
              }
            ]
          }
        ],
        "code": {
          "coding": [
            {
              "code": "5797-6",
              "system": "http://loinc.org",
              "display": "Ketones [Mass/volume] in Urine by Test strip"
            }
          ],
          "text": "Ketones [Mass/volume] in Urine by Test strip"
        },
        "valueQuantity": {
          "system": "http://unitsofmeasure.org",
          "value": 16,
          "unit": "mg/dL",
          "code": "mg/dL"
        },
        "referenceRange": [
          {
            "low": {
              "value": 0,
              "code": "mg/dL",
              "system": "http://unitsofmeasure.org"
            }
          },
          {
            "high": {
              "value": 3,
              "code": "mg/dL",
              "system": "http://unitsofmeasure.org"
            }
          }
        ],
        "interpretation": [
          {
            "coding": [
              {
                "code": "H",
                "system": "http://terminology.hl7.org/CodeSystem/v3-ObservationInterpretation",
                "display": "High"
              }
            ]
          }
        ],
        "text": {
          "status": "generated",
          "div": "<div xmlns=\"http://www.w3.org/1999/xhtml\"><table class=\"hl7__eu__lab__report\"><tr><th>Test</th><th>08-Dec-2017</th><th>Reference&#xA0;Range</th><th>Unit</th></tr><tr><td>Ketones [Mass/volume] in Urine by Test strip</td><td>16.0</td><td>0 - 3</td><td>H</td><td>mg/dL</td></tr></table></div>"
        },
        "status": "final",
        "subject": {
          "reference": "urn:uuid:b5826c6d-b70d-4e32-9137-bb34ae5778d2",
          "display": "Victor Lagarde"
        },
        "effectiveDateTime": "2017-12-08T04:48:18Z",
        "specimen": {
          "reference": "urn:uuid:63f97105-445c-43c6-8943-28d3e4b239ac"
        }
      }
    },
    {
      "fullUrl": "urn:uuid:010904a6-e9c5-4841-b0a8-2cce5333f00d",
      "resource": {
        "resourceType": "Observation",
        "id": "010904a6-e9c5-4841-b0a8-2cce5333f00d",
        "meta": {
          "profile": [
            "http://hl7.eu/fhir/laboratory/StructureDefinition/Observation-resultslab-eu-lab"
          ]
        },
        "performer": [
          {
            "display": "The Central European Lab"
          }
        ],
        "category": [
          {
            "coding": [
              {
                "system": "http://terminology.hl7.org/CodeSystem/observation-category",
                "code": "laboratory"
              }
            ]
          }
        ],
        "code": {
          "coding": [
            {
              "code": "2514-8",
              "system": "http://loinc.org",
              "display": "Ketones [Presence] in Urine by Test strip"
            }
          ],
          "text": "Ketones [Presence] in Urine by Test strip"
        },
        "text": {
          "status": "generated",
          "div": "<div xmlns=\"http://www.w3.org/1999/xhtml\"><table class=\"hl7__eu__lab__report\"><tr><th>Test</th><th>08-Dec-2017</th><th>Reference&#xA0;Range</th><th>Unit</th></tr><tr><td>Ketones [Presence] in Urine by Test strip</td></tr></table></div>"
        },
        "status": "final",
        "subject": {
          "reference": "urn:uuid:b5826c6d-b70d-4e32-9137-bb34ae5778d2",
          "display": "Victor Lagarde"
        },
        "effectiveDateTime": "2017-12-08T04:48:18Z",
        "specimen": {
          "reference": "urn:uuid:63f97105-445c-43c6-8943-28d3e4b239ac"
        }
      }
    },
    {
      "fullUrl": "urn:uuid:8eff31a9-b75a-46ea-a37a-865761946659",
      "resource": {
        "resourceType": "Observation",
        "id": "8eff31a9-b75a-46ea-a37a-865761946659",
        "meta": {
          "profile": [
            "http://hl7.eu/fhir/laboratory/StructureDefinition/Observation-resultslab-eu-lab"
          ]
        },
        "performer": [
          {
            "display": "The Central European Lab"
          }
        ],
        "category": [
          {
            "coding": [
              {
                "system": "http://terminology.hl7.org/CodeSystem/observation-category",
                "code": "laboratory"
              }
            ]
          }
        ],
        "code": {
          "coding": [
            {
              "code": "5811-5",
              "system": "http://loinc.org",
              "display": "Specific gravity of Urine by Test strip"
            }
          ],
          "text": "Specific gravity of Urine by Test strip"
        },
        "valueQuantity": {
          "system": "http://unitsofmeasure.org",
          "value": 1,
          "unit": "{nominal}",
          "code": "{nominal}"
        },
        "referenceRange": [
          {
            "low": {
              "value": 1.01,
              "code": "g/mL",
              "system": "http://unitsofmeasure.org"
            }
          },
          {
            "high": {
              "value": 1.03,
              "code": "g/mL",
              "system": "http://unitsofmeasure.org"
            }
          }
        ],
        "interpretation": [
          {
            "coding": [
              {
                "code": "L",
                "system": "http://terminology.hl7.org/CodeSystem/v3-ObservationInterpretation",
                "display": "Low"
              }
            ]
          }
        ],
        "text": {
          "status": "generated",
          "div": "<div xmlns=\"http://www.w3.org/1999/xhtml\"><table class=\"hl7__eu__lab__report\"><tr><th>Test</th><th>08-Dec-2017</th><th>Reference&#xA0;Range</th><th>Unit</th></tr><tr><td>Specific gravity of Urine by Test strip</td><td>1.0</td><td>1.01 - 1.03</td><td>L</td><td>{nominal}</td></tr></table></div>"
        },
        "status": "final",
        "subject": {
          "reference": "urn:uuid:b5826c6d-b70d-4e32-9137-bb34ae5778d2",
          "display": "Victor Lagarde"
        },
        "effectiveDateTime": "2017-12-08T04:48:18Z",
        "specimen": {
          "reference": "urn:uuid:63f97105-445c-43c6-8943-28d3e4b239ac"
        }
      }
    },
    {
      "fullUrl": "urn:uuid:24895ae4-f5dd-41e2-b799-fbdbcb0b22e7",
      "resource": {
        "resourceType": "Observation",
        "id": "24895ae4-f5dd-41e2-b799-fbdbcb0b22e7",
        "meta": {
          "profile": [
            "http://hl7.eu/fhir/laboratory/StructureDefinition/Observation-resultslab-eu-lab"
          ]
        },
        "performer": [
          {
            "display": "The Central European Lab"
          }
        ],
        "category": [
          {
            "coding": [
              {
                "system": "http://terminology.hl7.org/CodeSystem/observation-category",
                "code": "laboratory"
              }
            ]
          }
        ],
        "code": {
          "coding": [
            {
              "code": "5803-2",
              "system": "http://loinc.org",
              "display": "pH of Urine by Test strip"
            }
          ],
          "text": "pH of Urine by Test strip"
        },
        "valueQuantity": {
          "system": "http://unitsofmeasure.org",
          "value": 5.5,
          "unit": "pH",
          "code": "pH"
        },
        "referenceRange": [
          {
            "low": {
              "value": 4.5,
              "code": "pH",
              "system": "http://unitsofmeasure.org"
            }
          },
          {
            "high": {
              "value": 7.5,
              "code": "pH",
              "system": "http://unitsofmeasure.org"
            }
          }
        ],
        "text": {
          "status": "generated",
          "div": "<div xmlns=\"http://www.w3.org/1999/xhtml\"><table class=\"hl7__eu__lab__report\"><tr><th>Test</th><th>08-Dec-2017</th><th>Reference&#xA0;Range</th><th>Unit</th></tr><tr><td>pH of Urine by Test strip</td><td>5.5</td><td>4.5 - 7.5</td><td></td><td>pH</td></tr></table></div>"
        },
        "status": "final",
        "subject": {
          "reference": "urn:uuid:b5826c6d-b70d-4e32-9137-bb34ae5778d2",
          "display": "Victor Lagarde"
        },
        "effectiveDateTime": "2017-12-08T04:48:18Z",
        "specimen": {
          "reference": "urn:uuid:63f97105-445c-43c6-8943-28d3e4b239ac"
        }
      }
    },
    {
      "fullUrl": "urn:uuid:34e0511d-2890-44a6-96aa-8e19cde2e35b",
      "resource": {
        "resourceType": "Observation",
        "id": "34e0511d-2890-44a6-96aa-8e19cde2e35b",
        "meta": {
          "profile": [
            "http://hl7.eu/fhir/laboratory/StructureDefinition/Observation-resultslab-eu-lab"
          ]
        },
        "performer": [
          {
            "display": "The Central European Lab"
          }
        ],
        "category": [
          {
            "coding": [
              {
                "system": "http://terminology.hl7.org/CodeSystem/observation-category",
                "code": "laboratory"
              }
            ]
          }
        ],
        "code": {
          "coding": [
            {
              "code": "5804-0",
              "system": "http://loinc.org",
              "display": "Protein [Mass/volume] in Urine by Test strip"
            }
          ],
          "text": "Protein [Mass/volume] in Urine by Test strip"
        },
        "valueQuantity": {
          "system": "http://unitsofmeasure.org",
          "value": 296.7,
          "unit": "mg/dL",
          "code": "mg/dL"
        },
        "referenceRange": [
          {
            "low": {
              "value": 0,
              "code": "mg/dL",
              "system": "http://unitsofmeasure.org"
            }
          },
          {
            "high": {
              "value": 149,
              "code": "mg/dL",
              "system": "http://unitsofmeasure.org"
            }
          }
        ],
        "interpretation": [
          {
            "coding": [
              {
                "code": "H",
                "system": "http://terminology.hl7.org/CodeSystem/v3-ObservationInterpretation",
                "display": "High"
              }
            ]
          }
        ],
        "text": {
          "status": "generated",
          "div": "<div xmlns=\"http://www.w3.org/1999/xhtml\"><table class=\"hl7__eu__lab__report\"><tr><th>Test</th><th>08-Dec-2017</th><th>Reference&#xA0;Range</th><th>Unit</th></tr><tr><td>Protein [Mass/volume] in Urine by Test strip</td><td>296.7</td><td>0 - 149</td><td>H</td><td>mg/dL</td></tr></table></div>"
        },
        "status": "final",
        "subject": {
          "reference": "urn:uuid:b5826c6d-b70d-4e32-9137-bb34ae5778d2",
          "display": "Victor Lagarde"
        },
        "effectiveDateTime": "2017-12-08T04:48:18Z",
        "specimen": {
          "reference": "urn:uuid:63f97105-445c-43c6-8943-28d3e4b239ac"
        }
      }
    },
    {
      "fullUrl": "urn:uuid:60d91167-d1a7-4e3f-bace-2cc582873350",
      "resource": {
        "resourceType": "Observation",
        "id": "60d91167-d1a7-4e3f-bace-2cc582873350",
        "meta": {
          "profile": [
            "http://hl7.eu/fhir/laboratory/StructureDefinition/Observation-resultslab-eu-lab"
          ]
        },
        "performer": [
          {
            "display": "The Central European Lab"
          }
        ],
        "category": [
          {
            "coding": [
              {
                "system": "http://terminology.hl7.org/CodeSystem/observation-category",
                "code": "laboratory"
              }
            ]
          }
        ],
        "code": {
          "coding": [
            {
              "code": "20454-5",
              "system": "http://loinc.org",
              "display": "Protein [Presence] in Urine by Test strip"
            }
          ],
          "text": "Protein [Presence] in Urine by Test strip"
        },
        "text": {
          "status": "generated",
          "div": "<div xmlns=\"http://www.w3.org/1999/xhtml\"><table class=\"hl7__eu__lab__report\"><tr><th>Test</th><th>08-Dec-2017</th><th>Reference&#xA0;Range</th><th>Unit</th></tr><tr><td>Protein [Presence] in Urine by Test strip</td></tr></table></div>"
        },
        "status": "final",
        "subject": {
          "reference": "urn:uuid:b5826c6d-b70d-4e32-9137-bb34ae5778d2",
          "display": "Victor Lagarde"
        },
        "effectiveDateTime": "2017-12-08T04:48:18Z",
        "specimen": {
          "reference": "urn:uuid:63f97105-445c-43c6-8943-28d3e4b239ac"
        }
      }
    },
    {
      "fullUrl": "urn:uuid:ae475860-c291-4d15-8205-8cb0fff2f231",
      "resource": {
        "resourceType": "Observation",
        "id": "ae475860-c291-4d15-8205-8cb0fff2f231",
        "meta": {
          "profile": [
            "http://hl7.eu/fhir/laboratory/StructureDefinition/Observation-resultslab-eu-lab"
          ]
        },
        "performer": [
          {
            "display": "The Central European Lab"
          }
        ],
        "category": [
          {
            "coding": [
              {
                "system": "http://terminology.hl7.org/CodeSystem/observation-category",
                "code": "laboratory"
              }
            ]
          }
        ],
        "code": {
          "coding": [
            {
              "code": "5802-4",
              "system": "http://loinc.org",
              "display": "Nitrite [Presence] in Urine by Test strip"
            }
          ],
          "text": "Nitrite [Presence] in Urine by Test strip"
        },
        "text": {
          "status": "generated",
          "div": "<div xmlns=\"http://www.w3.org/1999/xhtml\"><table class=\"hl7__eu__lab__report\"><tr><th>Test</th><th>08-Dec-2017</th><th>Reference&#xA0;Range</th><th>Unit</th></tr><tr><td>Nitrite [Presence] in Urine by Test strip</td></tr></table></div>"
        },
        "status": "final",
        "subject": {
          "reference": "urn:uuid:b5826c6d-b70d-4e32-9137-bb34ae5778d2",
          "display": "Victor Lagarde"
        },
        "effectiveDateTime": "2017-12-08T04:48:18Z",
        "specimen": {
          "reference": "urn:uuid:63f97105-445c-43c6-8943-28d3e4b239ac"
        }
      }
    },
    {
      "fullUrl": "urn:uuid:8088f888-76b2-4e2b-861b-db08ced15cf7",
      "resource": {
        "resourceType": "Observation",
        "id": "8088f888-76b2-4e2b-861b-db08ced15cf7",
        "meta": {
          "profile": [
            "http://hl7.eu/fhir/laboratory/StructureDefinition/Observation-resultslab-eu-lab"
          ]
        },
        "performer": [
          {
            "display": "The Central European Lab"
          }
        ],
        "category": [
          {
            "coding": [
              {
                "system": "http://terminology.hl7.org/CodeSystem/observation-category",
                "code": "laboratory"
              }
            ]
          }
        ],
        "code": {
          "coding": [
            {
              "code": "5794-3",
              "system": "http://loinc.org",
              "display": "Hemoglobin [Presence] in Urine by Test strip"
            }
          ],
          "text": "Hemoglobin [Presence] in Urine by Test strip"
        },
        "text": {
          "status": "generated",
          "div": "<div xmlns=\"http://www.w3.org/1999/xhtml\"><table class=\"hl7__eu__lab__report\"><tr><th>Test</th><th>08-Dec-2017</th><th>Reference&#xA0;Range</th><th>Unit</th></tr><tr><td>Hemoglobin [Presence] in Urine by Test strip</td></tr></table></div>"
        },
        "status": "final",
        "subject": {
          "reference": "urn:uuid:b5826c6d-b70d-4e32-9137-bb34ae5778d2",
          "display": "Victor Lagarde"
        },
        "effectiveDateTime": "2017-12-08T04:48:18Z",
        "specimen": {
          "reference": "urn:uuid:63f97105-445c-43c6-8943-28d3e4b239ac"
        }
      }
    },
    {
      "fullUrl": "urn:uuid:fae747ea-9e87-4766-b38d-87c51e87f86d",
      "resource": {
        "resourceType": "Observation",
        "id": "fae747ea-9e87-4766-b38d-87c51e87f86d",
        "meta": {
          "profile": [
            "http://hl7.eu/fhir/laboratory/StructureDefinition/Observation-resultslab-eu-lab"
          ]
        },
        "performer": [
          {
            "display": "The Central European Lab"
          }
        ],
        "category": [
          {
            "coding": [
              {
                "system": "http://terminology.hl7.org/CodeSystem/observation-category",
                "code": "laboratory"
              }
            ]
          }
        ],
        "code": {
          "coding": [
            {
              "code": "5799-2",
              "system": "http://loinc.org",
              "display": "Leukocyte esterase [Presence] in Urine by Test strip"
            }
          ],
          "text": "Leukocyte esterase [Presence] in Urine by Test strip"
        },
        "text": {
          "status": "generated",
          "div": "<div xmlns=\"http://www.w3.org/1999/xhtml\"><table class=\"hl7__eu__lab__report\"><tr><th>Test</th><th>08-Dec-2017</th><th>Reference&#xA0;Range</th><th>Unit</th></tr><tr><td>Leukocyte esterase [Presence] in Urine by Test strip</td></tr></table></div>"
        },
        "status": "final",
        "subject": {
          "reference": "urn:uuid:b5826c6d-b70d-4e32-9137-bb34ae5778d2",
          "display": "Victor Lagarde"
        },
        "effectiveDateTime": "2017-12-08T04:48:18Z",
        "specimen": {
          "reference": "urn:uuid:63f97105-445c-43c6-8943-28d3e4b239ac"
        }
      }
    },
    {
      "fullUrl": "urn:uuid:56d79818-1e19-4691-8f97-95e41d8ddf69",
      "resource": {
        "resourceType": "Observation",
        "id": "56d79818-1e19-4691-8f97-95e41d8ddf69",
        "meta": {
          "profile": [
            "http://hl7.eu/fhir/laboratory/StructureDefinition/Observation-resultslab-eu-lab"
          ]
        },
        "performer": [
          {
            "display": "The Central European Lab"
          }
        ],
        "category": [
          {
            "coding": [
              {
                "system": "http://terminology.hl7.org/CodeSystem/observation-category",
                "code": "laboratory"
              }
            ]
          }
        ],
        "code": {
          "coding": [
            {
              "code": "4548-4",
              "system": "http://loinc.org",
              "display": "Hemoglobin A1c/Hemoglobin.total in Blood"
            }
          ],
          "text": "Hemoglobin A1c/Hemoglobin.total in Blood"
        },
        "valueQuantity": {
          "system": "http://unitsofmeasure.org",
          "value": 2.9,
          "unit": "%",
          "code": "%"
        },
        "referenceRange": [
          {
            "low": {
              "value": 4.3,
              "code": "%",
              "system": "http://unitsofmeasure.org"
            }
          },
          {
            "high": {
              "value": 6,
              "code": "%",
              "system": "http://unitsofmeasure.org"
            }
          }
        ],
        "interpretation": [
          {
            "coding": [
              {
                "code": "L",
                "system": "http://terminology.hl7.org/CodeSystem/v3-ObservationInterpretation",
                "display": "Low"
              }
            ]
          }
        ],
        "text": {
          "status": "generated",
          "div": "<div xmlns=\"http://www.w3.org/1999/xhtml\"><table class=\"hl7__eu__lab__report\"><tr><th>Test</th><th>08-Dec-2017</th><th>Reference&#xA0;Range</th><th>Unit</th></tr><tr><td>Hemoglobin A1c/Hemoglobin.total in Blood</td><td>2.9</td><td>4.3 - 6</td><td>L</td><td>%</td></tr></table></div>"
        },
        "status": "final",
        "subject": {
          "reference": "urn:uuid:b5826c6d-b70d-4e32-9137-bb34ae5778d2",
          "display": "Victor Lagarde"
        },
        "effectiveDateTime": "2017-12-08T04:48:18Z",
        "specimen": {
          "reference": "urn:uuid:bf46f532-6c36-4fc4-bd5b-a79d72bdc0e3"
        }
      }
    },
    {
      "fullUrl": "urn:uuid:b0eb0b9a-c9cf-4a35-b520-5ea0b550e50b",
      "resource": {
        "resourceType": "Observation",
        "id": "b0eb0b9a-c9cf-4a35-b520-5ea0b550e50b",
        "meta": {
          "profile": [
            "http://hl7.eu/fhir/laboratory/StructureDefinition/Observation-resultslab-eu-lab"
          ]
        },
        "performer": [
          {
            "display": "The Central European Lab"
          }
        ],
        "category": [
          {
            "coding": [
              {
                "system": "http://terminology.hl7.org/CodeSystem/observation-category",
                "code": "laboratory"
              }
            ]
          }
        ],
        "code": {
          "coding": [
            {
              "code": "2339-0",
              "system": "http://loinc.org",
              "display": "Glucose [Mass/volume] in Blood"
            }
          ],
          "text": "Glucose [Mass/volume] in Blood"
        },
        "valueQuantity": {
          "system": "http://unitsofmeasure.org",
          "value": 81.2,
          "unit": "mg/dL",
          "code": "mg/dL"
        },
        "referenceRange": [
          {
            "low": {
              "value": 70,
              "code": "mg/dL",
              "system": "http://unitsofmeasure.org"
            }
          },
          {
            "high": {
              "value": 140,
              "code": "mg/dL",
              "system": "http://unitsofmeasure.org"
            }
          }
        ],
        "text": {
          "status": "generated",
          "div": "<div xmlns=\"http://www.w3.org/1999/xhtml\"><table class=\"hl7__eu__lab__report\"><tr><th>Test</th><th>08-Dec-2017</th><th>Reference&#xA0;Range</th><th>Unit</th></tr><tr><td>Glucose [Mass/volume] in Blood</td><td>81.2</td><td>70 - 140</td><td></td><td>mg/dL</td></tr></table></div>"
        },
        "status": "final",
        "subject": {
          "reference": "urn:uuid:b5826c6d-b70d-4e32-9137-bb34ae5778d2",
          "display": "Victor Lagarde"
        },
        "effectiveDateTime": "2017-12-08T04:48:18Z",
        "specimen": {
          "reference": "urn:uuid:bf46f532-6c36-4fc4-bd5b-a79d72bdc0e3"
        }
      }
    },
    {
      "fullUrl": "urn:uuid:22352ff0-ad34-492f-b878-18f91e1c7dbb",
      "resource": {
        "resourceType": "Observation",
        "id": "22352ff0-ad34-492f-b878-18f91e1c7dbb",
        "meta": {
          "profile": [
            "http://hl7.eu/fhir/laboratory/StructureDefinition/Observation-resultslab-eu-lab"
          ]
        },
        "performer": [
          {
            "display": "The Central European Lab"
          }
        ],
        "category": [
          {
            "coding": [
              {
                "system": "http://terminology.hl7.org/CodeSystem/observation-category",
                "code": "laboratory"
              }
            ]
          }
        ],
        "code": {
          "coding": [
            {
              "code": "6299-2",
              "system": "http://loinc.org",
              "display": "Urea nitrogen [Mass/volume] in Blood"
            }
          ],
          "text": "Urea nitrogen [Mass/volume] in Blood"
        },
        "valueQuantity": {
          "system": "http://unitsofmeasure.org",
          "value": 15.6,
          "unit": "mg/dL",
          "code": "mg/dL"
        },
        "referenceRange": [
          {
            "low": {
              "value": 7,
              "code": "mg/dL",
              "system": "http://unitsofmeasure.org"
            }
          },
          {
            "high": {
              "value": 20,
              "code": "mg/dL",
              "system": "http://unitsofmeasure.org"
            }
          }
        ],
        "text": {
          "status": "generated",
          "div": "<div xmlns=\"http://www.w3.org/1999/xhtml\"><table class=\"hl7__eu__lab__report\"><tr><th>Test</th><th>08-Dec-2017</th><th>Reference&#xA0;Range</th><th>Unit</th></tr><tr><td>Urea nitrogen [Mass/volume] in Blood</td><td>15.6</td><td>7 - 20</td><td></td><td>mg/dL</td></tr></table></div>"
        },
        "status": "final",
        "subject": {
          "reference": "urn:uuid:b5826c6d-b70d-4e32-9137-bb34ae5778d2",
          "display": "Victor Lagarde"
        },
        "effectiveDateTime": "2017-12-08T04:48:18Z",
        "specimen": {
          "reference": "urn:uuid:bf46f532-6c36-4fc4-bd5b-a79d72bdc0e3"
        }
      }
    },
    {
      "fullUrl": "urn:uuid:46801403-010c-404f-9c5a-768b8704c57d",
      "resource": {
        "resourceType": "Observation",
        "id": "46801403-010c-404f-9c5a-768b8704c57d",
        "meta": {
          "profile": [
            "http://hl7.eu/fhir/laboratory/StructureDefinition/Observation-resultslab-eu-lab"
          ]
        },
        "performer": [
          {
            "display": "The Central European Lab"
          }
        ],
        "category": [
          {
            "coding": [
              {
                "system": "http://terminology.hl7.org/CodeSystem/observation-category",
                "code": "laboratory"
              }
            ]
          }
        ],
        "code": {
          "coding": [
            {
              "code": "38483-4",
              "system": "http://loinc.org",
              "display": "Creatinine [Mass/volume] in Blood"
            }
          ],
          "text": "Creatinine [Mass/volume] in Blood"
        },
        "valueQuantity": {
          "system": "http://unitsofmeasure.org",
          "value": 2.6,
          "unit": "mg/dL",
          "code": "mg/dL"
        },
        "referenceRange": [
          {
            "low": {
              "value": 0.9,
              "code": "mg/dL",
              "system": "http://unitsofmeasure.org"
            }
          },
          {
            "high": {
              "value": 1.3,
              "code": "mg/dL",
              "system": "http://unitsofmeasure.org"
            }
          }
        ],
        "interpretation": [
          {
            "coding": [
              {
                "code": "H",
                "system": "http://terminology.hl7.org/CodeSystem/v3-ObservationInterpretation",
                "display": "High"
              }
            ]
          }
        ],
        "text": {
          "status": "generated",
          "div": "<div xmlns=\"http://www.w3.org/1999/xhtml\"><table class=\"hl7__eu__lab__report\"><tr><th>Test</th><th>08-Dec-2017</th><th>Reference&#xA0;Range</th><th>Unit</th></tr><tr><td>Creatinine [Mass/volume] in Blood</td><td>2.6</td><td>0.9 - 1.3</td><td>H</td><td>mg/dL</td></tr></table></div>"
        },
        "status": "final",
        "subject": {
          "reference": "urn:uuid:b5826c6d-b70d-4e32-9137-bb34ae5778d2",
          "display": "Victor Lagarde"
        },
        "effectiveDateTime": "2017-12-08T04:48:18Z",
        "specimen": {
          "reference": "urn:uuid:bf46f532-6c36-4fc4-bd5b-a79d72bdc0e3"
        }
      }
    },
    {
      "fullUrl": "urn:uuid:22902979-f129-46c5-9329-c499b1653457",
      "resource": {
        "resourceType": "Observation",
        "id": "22902979-f129-46c5-9329-c499b1653457",
        "meta": {
          "profile": [
            "http://hl7.eu/fhir/laboratory/StructureDefinition/Observation-resultslab-eu-lab"
          ]
        },
        "performer": [
          {
            "display": "The Central European Lab"
          }
        ],
        "category": [
          {
            "coding": [
              {
                "system": "http://terminology.hl7.org/CodeSystem/observation-category",
                "code": "laboratory"
              }
            ]
          }
        ],
        "code": {
          "coding": [
            {
              "code": "49765-1",
              "system": "http://loinc.org",
              "display": "Calcium [Mass/volume] in Blood"
            }
          ],
          "text": "Calcium [Mass/volume] in Blood"
        },
        "valueQuantity": {
          "system": "http://unitsofmeasure.org",
          "value": 8.6,
          "unit": "mg/dL",
          "code": "mg/dL"
        },
        "referenceRange": [
          {
            "low": {
              "value": 8.5,
              "code": "mg/dL",
              "system": "http://unitsofmeasure.org"
            }
          },
          {
            "high": {
              "value": 10.5,
              "code": "mg/dL",
              "system": "http://unitsofmeasure.org"
            }
          }
        ],
        "text": {
          "status": "generated",
          "div": "<div xmlns=\"http://www.w3.org/1999/xhtml\"><table class=\"hl7__eu__lab__report\"><tr><th>Test</th><th>08-Dec-2017</th><th>Reference&#xA0;Range</th><th>Unit</th></tr><tr><td>Calcium [Mass/volume] in Blood</td><td>8.6</td><td>8.5 - 10.5</td><td></td><td>mg/dL</td></tr></table></div>"
        },
        "status": "final",
        "subject": {
          "reference": "urn:uuid:b5826c6d-b70d-4e32-9137-bb34ae5778d2",
          "display": "Victor Lagarde"
        },
        "effectiveDateTime": "2017-12-08T04:48:18Z",
        "specimen": {
          "reference": "urn:uuid:bf46f532-6c36-4fc4-bd5b-a79d72bdc0e3"
        }
      }
    },
    {
      "fullUrl": "urn:uuid:065b971c-7d02-4a17-b69b-3b07f432b07e",
      "resource": {
        "resourceType": "Observation",
        "id": "065b971c-7d02-4a17-b69b-3b07f432b07e",
        "meta": {
          "profile": [
            "http://hl7.eu/fhir/laboratory/StructureDefinition/Observation-resultslab-eu-lab"
          ]
        },
        "performer": [
          {
            "display": "The Central European Lab"
          }
        ],
        "category": [
          {
            "coding": [
              {
                "system": "http://terminology.hl7.org/CodeSystem/observation-category",
                "code": "laboratory"
              }
            ]
          }
        ],
        "code": {
          "coding": [
            {
              "code": "2947-0",
              "system": "http://loinc.org",
              "display": "Sodium [Moles/volume] in Blood"
            }
          ],
          "text": "Sodium [Moles/volume] in Blood"
        },
        "valueQuantity": {
          "system": "http://unitsofmeasure.org",
          "value": 140.5,
          "unit": "mmol/L",
          "code": "mmol/L"
        },
        "referenceRange": [
          {
            "low": {
              "value": 135,
              "code": "mmol/L",
              "system": "http://unitsofmeasure.org"
            }
          },
          {
            "high": {
              "value": 145,
              "code": "mmol/L",
              "system": "http://unitsofmeasure.org"
            }
          }
        ],
        "text": {
          "status": "generated",
          "div": "<div xmlns=\"http://www.w3.org/1999/xhtml\"><table class=\"hl7__eu__lab__report\"><tr><th>Test</th><th>08-Dec-2017</th><th>Reference&#xA0;Range</th><th>Unit</th></tr><tr><td>Sodium [Moles/volume] in Blood</td><td>140.5</td><td>135 - 145</td><td></td><td>mmol/L</td></tr></table></div>"
        },
        "status": "final",
        "subject": {
          "reference": "urn:uuid:b5826c6d-b70d-4e32-9137-bb34ae5778d2",
          "display": "Victor Lagarde"
        },
        "effectiveDateTime": "2017-12-08T04:48:18Z",
        "specimen": {
          "reference": "urn:uuid:bf46f532-6c36-4fc4-bd5b-a79d72bdc0e3"
        }
      }
    },
    {
      "fullUrl": "urn:uuid:6fee83cd-79d3-4803-ab7e-106afcc626ff",
      "resource": {
        "resourceType": "Observation",
        "id": "6fee83cd-79d3-4803-ab7e-106afcc626ff",
        "meta": {
          "profile": [
            "http://hl7.eu/fhir/laboratory/StructureDefinition/Observation-resultslab-eu-lab"
          ]
        },
        "performer": [
          {
            "display": "The Central European Lab"
          }
        ],
        "category": [
          {
            "coding": [
              {
                "system": "http://terminology.hl7.org/CodeSystem/observation-category",
                "code": "laboratory"
              }
            ]
          }
        ],
        "code": {
          "coding": [
            {
              "code": "6298-4",
              "system": "http://loinc.org",
              "display": "Potassium [Moles/volume] in Blood"
            }
          ],
          "text": "Potassium [Moles/volume] in Blood"
        },
        "valueQuantity": {
          "system": "http://unitsofmeasure.org",
          "value": 5.1,
          "unit": "mmol/L",
          "code": "mmol/L"
        },
        "referenceRange": [
          {
            "low": {
              "value": 3.5,
              "code": "mmol/L",
              "system": "http://unitsofmeasure.org"
            }
          },
          {
            "high": {
              "value": 5.1,
              "code": "mmol/L",
              "system": "http://unitsofmeasure.org"
            }
          }
        ],
        "text": {
          "status": "generated",
          "div": "<div xmlns=\"http://www.w3.org/1999/xhtml\"><table class=\"hl7__eu__lab__report\"><tr><th>Test</th><th>08-Dec-2017</th><th>Reference&#xA0;Range</th><th>Unit</th></tr><tr><td>Potassium [Moles/volume] in Blood</td><td>5.1</td><td>3.5 - 5.1</td><td></td><td>mmol/L</td></tr></table></div>"
        },
        "status": "final",
        "subject": {
          "reference": "urn:uuid:b5826c6d-b70d-4e32-9137-bb34ae5778d2",
          "display": "Victor Lagarde"
        },
        "effectiveDateTime": "2017-12-08T04:48:18Z",
        "specimen": {
          "reference": "urn:uuid:bf46f532-6c36-4fc4-bd5b-a79d72bdc0e3"
        }
      }
    },
    {
      "fullUrl": "urn:uuid:b8d307f9-243a-4233-bf59-a46da28d0277",
      "resource": {
        "resourceType": "Observation",
        "id": "b8d307f9-243a-4233-bf59-a46da28d0277",
        "meta": {
          "profile": [
            "http://hl7.eu/fhir/laboratory/StructureDefinition/Observation-resultslab-eu-lab"
          ]
        },
        "performer": [
          {
            "display": "The Central European Lab"
          }
        ],
        "category": [
          {
            "coding": [
              {
                "system": "http://terminology.hl7.org/CodeSystem/observation-category",
                "code": "laboratory"
              }
            ]
          }
        ],
        "code": {
          "coding": [
            {
              "code": "2069-3",
              "system": "http://loinc.org",
              "display": "Chloride [Moles/volume] in Blood"
            }
          ],
          "text": "Chloride [Moles/volume] in Blood"
        },
        "valueQuantity": {
          "system": "http://unitsofmeasure.org",
          "value": 109.7,
          "unit": "mmol/L",
          "code": "mmol/L"
        },
        "referenceRange": [
          {
            "low": {
              "value": 98,
              "code": "mmol/L",
              "system": "http://unitsofmeasure.org"
            }
          },
          {
            "high": {
              "value": 108,
              "code": "mmol/L",
              "system": "http://unitsofmeasure.org"
            }
          }
        ],
        "interpretation": [
          {
            "coding": [
              {
                "code": "H",
                "system": "http://terminology.hl7.org/CodeSystem/v3-ObservationInterpretation",
                "display": "High"
              }
            ]
          }
        ],
        "text": {
          "status": "generated",
          "div": "<div xmlns=\"http://www.w3.org/1999/xhtml\"><table class=\"hl7__eu__lab__report\"><tr><th>Test</th><th>08-Dec-2017</th><th>Reference&#xA0;Range</th><th>Unit</th></tr><tr><td>Chloride [Moles/volume] in Blood</td><td>109.7</td><td>98 - 108</td><td>H</td><td>mmol/L</td></tr></table></div>"
        },
        "status": "final",
        "subject": {
          "reference": "urn:uuid:b5826c6d-b70d-4e32-9137-bb34ae5778d2",
          "display": "Victor Lagarde"
        },
        "effectiveDateTime": "2017-12-08T04:48:18Z",
        "specimen": {
          "reference": "urn:uuid:bf46f532-6c36-4fc4-bd5b-a79d72bdc0e3"
        }
      }
    },
    {
      "fullUrl": "urn:uuid:4dd7f251-e3c9-4cf9-a620-f9cd21671f5f",
      "resource": {
        "resourceType": "Observation",
        "id": "4dd7f251-e3c9-4cf9-a620-f9cd21671f5f",
        "meta": {
          "profile": [
            "http://hl7.eu/fhir/laboratory/StructureDefinition/Observation-resultslab-eu-lab"
          ]
        },
        "performer": [
          {
            "display": "The Central European Lab"
          }
        ],
        "category": [
          {
            "coding": [
              {
                "system": "http://terminology.hl7.org/CodeSystem/observation-category",
                "code": "laboratory"
              }
            ]
          }
        ],
        "code": {
          "coding": [
            {
              "code": "20565-8",
              "system": "http://loinc.org",
              "display": "Carbon dioxide, total [Moles/volume] in Blood"
            }
          ],
          "text": "Carbon dioxide, total [Moles/volume] in Blood"
        },
        "valueQuantity": {
          "system": "http://unitsofmeasure.org",
          "value": 23.9,
          "unit": "mmol/L",
          "code": "mmol/L"
        },
        "referenceRange": [
          {
            "low": {
              "value": 22,
              "code": "mmol/L",
              "system": "http://unitsofmeasure.org"
            }
          },
          {
            "high": {
              "value": 29,
              "code": "mmol/L",
              "system": "http://unitsofmeasure.org"
            }
          }
        ],
        "text": {
          "status": "generated",
          "div": "<div xmlns=\"http://www.w3.org/1999/xhtml\"><table class=\"hl7__eu__lab__report\"><tr><th>Test</th><th>08-Dec-2017</th><th>Reference&#xA0;Range</th><th>Unit</th></tr><tr><td>Carbon dioxide, total [Moles/volume] in Blood</td><td>23.9</td><td>22 - 29</td><td></td><td>mmol/L</td></tr></table></div>"
        },
        "status": "final",
        "subject": {
          "reference": "urn:uuid:b5826c6d-b70d-4e32-9137-bb34ae5778d2",
          "display": "Victor Lagarde"
        },
        "effectiveDateTime": "2017-12-08T04:48:18Z",
        "specimen": {
          "reference": "urn:uuid:bf46f532-6c36-4fc4-bd5b-a79d72bdc0e3"
        }
      }
    },
    {
      "fullUrl": "urn:uuid:ecb09e5e-0c51-4e54-bee0-91e4f5d518f7",
      "resource": {
        "resourceType": "Device",
        "id": "ecb09e5e-0c51-4e54-bee0-91e4f5d518f7",
        "deviceName": [
          {
            "name": "SYNDERAI Synthetic Generator",
            "type": "manufacturer-name"
          }
        ],
        "version": [
          {
            "value": "5.0"
          }
        ],
        "text": {
          "status": "generated",
          "div": "<div xmlns=\"http://www.w3.org/1999/xhtml\">SYNDERAI Synthetic Generator v5.0</div>"
        },
        "status": "active\"",
        "distinctIdentifier": "synderai-generator-50",
        "manufacturer": "SYNDERAI Project"
      }
    },
    {
      "fullUrl": "urn:uuid:7d493d3c-800e-4eb8-81bd-1348a0666c76",
      "resource": {
        "resourceType": "Provenance",
        "id": "7d493d3c-800e-4eb8-81bd-1348a0666c76",
        "target": [
          {
            "reference": "Patient/b5826c6d-b70d-4e32-9137-bb34ae5778d2"
          },
          {
            "reference": "Bundle/55142e5c-dcf2-4419-8ff0-7f8185b7510d"
          },
          {
            "reference": "Composition/03c74692-b9f0-40aa-ad4b-9a6b12ffe6e5"
          },
          {
            "reference": "PractitionerRole/93e728e0-ca1f-40d4-a4fd-43c7f545a812"
          },
          {
            "reference": "Practitioner/61176c6d-4f8b-4182-81a2-9f918b5bf667"
          },
          {
            "reference": "PractitionerRole/424dee72-bfba-4918-888f-690b65bde909"
          },
          {
            "reference": "Organization/06911158-38d1-4d44-8231-14ea6116754a"
          }
        ],
        "activity": {
          "text": "Synthetic Example Data Generation"
        },
        "policy": [
          "https://synderai.net/synderai-synthetic-data-policy"
        ],
        "agent": [
          {
            "type": {
              "text": "author"
            },
            "who": {
              "reference": "Device/ecb09e5e-0c51-4e54-bee0-91e4f5d518f7"
            }
          }
        ],
        "reason": [
          {
            "text": "Interoperability Testing and Training (non-clinical use)"
          }
        ],
        "text": {
          "status": "generated",
          "div": "<div xmlns=\"http://www.w3.org/1999/xhtml\">Provenance for SYNDERAI Synthetic Example Data Resource</div>"
        },
        "recorded": "2017-12-08T05:48:18Z"
      }
    },
    {
      "fullUrl": "urn:uuid:93e728e0-ca1f-40d4-a4fd-43c7f545a812",
      "resource": {
        "resourceType": "PractitionerRole",
        "id": "93e728e0-ca1f-40d4-a4fd-43c7f545a812",
        "meta": {
          "profile": [
            "http://hl7.eu/fhir/base/StructureDefinition/practitionerRole-eu"
          ]
        },
        "text": {
          "status": "generated",
          "div": "<div xmlns=\"http://www.w3.org/1999/xhtml\">Laboratory Role Id: 93e728e0-ca1f-40d4-a4fd-43c7f545a812</div>"
        },
        "practitioner": {
          "reference": "urn:uuid:61176c6d-4f8b-4182-81a2-9f918b5bf667"
        }
      }
    },
    {
      "fullUrl": "urn:uuid:61176c6d-4f8b-4182-81a2-9f918b5bf667",
      "resource": {
        "resourceType": "Practitioner",
        "id": "61176c6d-4f8b-4182-81a2-9f918b5bf667",
        "meta": {
          "profile": [
            "http://hl7.eu/fhir/base/StructureDefinition/practitioner-eu"
          ]
        },
        "identifier": [
          {
            "assigner": {
              "display": "HL7 Europe"
            },
            "system": "urn:oid:2.16.840.1.113883.2.51.999",
            "value": "e80a5b6a-d9e1-43ae-90b7-76cb171617d9"
          }
        ],
        "name": [
          {
            "prefix": [
              "dr"
            ],
            "given": [
              "Ex"
            ],
            "family": "Ample"
          }
        ],
        "address": [
          {
            "line": [
              "Laboratoire Central Europenne",
              "Boulevard du Jardin Botanique 32"
            ],
            "postalCode": "1000",
            "city": "Brussels",
            "country": "Belgium"
          }
        ],
        "text": {
          "status": "generated",
          "div": "<div xmlns=\"http://www.w3.org/1999/xhtml\">Laboratory: Laboratoire Central Europenne, 1000 Brussels, Belgium</div>"
        }
      }
    }
  ],
  "type": "document",
  "timestamp": "2017-12-08T05:48:18Z"
}
