<Bundle xmlns="http://hl7.org/fhir">
   <id value="260efb53-76e9-4e11-8459-23d0dcc909ec"/>
   <meta>
      <profile value="http://hl7.eu/fhir/laboratory/StructureDefinition/Bundle-eu-lab"/>
   </meta>
   <identifier>
      <system value="urn:oid:2.16.840.1.113883.2.51.999"/>
      <value value="dee429d1-ad51-4466-acee-c348bf545663"/>
      <assigner>
         <display value="HL7 Europe"/>
      </assigner>
   </identifier>
   <type value="document"/>
   <timestamp value="2020-06-03T23:57:11Z"/>
   <entry>
      <fullUrl value="urn:uuid:b5b7412b-c413-485b-b7fd-4d703962e9e0"/>
      <resource>
         <Composition>
            <id value="b5b7412b-c413-485b-b7fd-4d703962e9e0"/>
            <meta>
               <profile value="http://hl7.eu/fhir/laboratory/StructureDefinition/Composition-eu-lab"/>
            </meta>
            <identifier>
               <system value="urn:oid:2.16.840.1.113883.2.51.999"/>
               <value value="60442b39-428d-4091-9979-a130cf454a51"/>
               <assigner>
                  <display value="HL7 Europe"/>
               </assigner>
            </identifier>
            <status value="final"/>
            <type>
               <coding>
                  <system value="http://loinc.org"/>
                  <code value="11502-2"/>
                  <display value="Laboratory report"/>
               </coding>
               <text value="Laboratory Report"/>
            </type>
            <category>
               <coding>
                  <system value="http://loinc.org"/>
                  <code value="26436-6"/>
                  <display value="Laboratory studies (set)"/>
               </coding>
            </category>
            <subject>
               <reference value="urn:uuid:bab7e817-63b7-44e9-9331-0785d83af208"/>
               <display value="Martine Couturier"/>
            </subject>
            <date value="2020-06-03T23:57:11Z"/>
            <author>
               <reference value="urn:uuid:3cd8d9b5-ac06-472b-bf1c-4ef5b23aae03"/>
            </author>
            <title value="Laboratory Report"/>
            <confidentiality value="N"/>
            <section>
               <title value="Laboratory Report"/>
               <code>
                  <coding>
                     <system value="http://loinc.org"/>
                     <code value="26436-6"/>
                     <display value="Laboratory studies (set)"/>
                  </coding>
                  <text value="Laboratory studies"/>
               </code>
               <section>
                  <title value="Chemistry"/>
                  <code>
                     <coding>
                        <system value="http://loinc.org"/>
                        <code value="$18719-5"/>
                        <display value="Chemistry studies (set)"/>
                     </coding>
                     <text value="Chemistry"/>
                  </code>
                  <text>
                     <status value="generated"/>
                     <div xmlns="http://www.w3.org/1999/xhtml">
                        <h3>Chemistry</h3>
                        <table class="hl7__eu__lab__report">
                           <thead>
                              <tr>
                                 <th>Test</th>
                                 <th>03-JUN-2020</th>
                                 <th>Reference Range</th>
                                 <th>Unit</th>
                              </tr>
                           </thead>
                           <tbody>
                              <tr>
                                 <td>Hemoglobin.gastrointestinal.lower [Presence] in Stool by Immunoassay --1st specimen</td>
                                 <td>
                                    <strong>22.3 H</strong>
                                 </td>
                                 <td>0 - 0</td>
                                 <td>ng/mL</td>
                              </tr>
                           </tbody>
                        </table>
                     </div>
                  </text>
                  <entry>
                     <reference value="urn:uuid:3fcb989f-4518-46be-a121-f41050c9a2dd"/>
                  </entry>
               </section>
               <section>
                  <title value="Cancer pathology panel"/>
                  <code>
                     <coding>
                        <system value="http://loinc.org"/>
                        <code value="$LP207911-1"/>
                        <display value="Cancer pathology panel"/>
                     </coding>
                     <text value="Cancer pathology panel"/>
                  </code>
                  <text>
                     <status value="generated"/>
                     <div xmlns="http://www.w3.org/1999/xhtml">
                        <h3>Cancer pathology panel</h3>
                        <table class="hl7__eu__lab__report">
                           <thead>
                              <tr>
                                 <th>Test</th>
                                 <th>03-JUN-2020</th>
                                 <th>Reference Range</th>
                                 <th>Unit</th>
                              </tr>
                           </thead>
                           <tbody>
                              <tr>
                                 <td>Polyp size greatest dimension</td>
                                 <td>3.4</td>
                                 <td>0 - 20</td>
                                 <td>mm</td>
                              </tr>
                           </tbody>
                        </table>
                     </div>
                  </text>
                  <entry>
                     <reference value="urn:uuid:055f6c92-d200-4e6b-9570-ba038ee39f36"/>
                  </entry>
               </section>
            </section>
            <section>
               <title value="Annotation comment"/>
               <code>
                  <coding>
                     <system value="http://loinc.org"/>
                     <code value="48767-8"/>
                     <display value="Annotation comment"/>
                  </coding>
               </code>
               <text>
                  <status value="generated"/>
                  <div xmlns="http://www.w3.org/1999/xhtml">
                     <h3>Annotation</h3>
                     <table class="hl7__eu__lab__report">
                        <tr>
                           <th>Conclusion and Recommendations based on this report and previous findings known to us</th>
                        </tr>
                        <tr>
                           <td>The patient"s stool immunoassay is positive for hemoglobin, indicating gastrointestinal bleeding. The detected polyp is small (3.4 mm), but the presence of blood warrants further clinical evaluation to rule out significant gastrointestinal pathology. Correlation with clinical findings and possible endoscopic assessment is recommended.</td>
                        </tr>
                     </table>
                  </div>
               </text>
            </section>
         </Composition>
      </resource>
   </entry>
   <entry>
      <fullUrl value="urn:uuid:f683f011-66a5-452b-bbc7-e9fbdd8029b6"/>
      <resource>
         <DiagnosticReport>
            <id value="f683f011-66a5-452b-bbc7-e9fbdd8029b6"/>
            <meta>
               <profile value="http://hl7.eu/fhir/laboratory/StructureDefinition/DiagnosticReport-eu-lab"/>
            </meta>
            <extension url="http://hl7.org/fhir/5.0/StructureDefinition/extension-DiagnosticReport.composition">
               <valueReference>
                  <reference value="urn:uuid:60442b39-428d-4091-9979-a130cf454a51"/>
               </valueReference>
            </extension>
            <identifier>
               <system value="urn:oid:2.16.840.1.113883.2.51.999"/>
               <value value="c704b8fc-9eb8-4945-bd48-68079f742726"/>
               <assigner>
                  <display value="HL7 Europe"/>
               </assigner>
            </identifier>
            <status value="registered"/>
            <category>
               <coding>
                  <system value="http://loinc.org"/>
                  <code value="26436-6"/>
                  <display value="Laboratory studies (set)"/>
               </coding>
            </category>
            <code>
               <coding>
                  <system value="http://loinc.org"/>
                  <code value="11502-2"/>
                  <display value="Laboratory report"/>
               </coding>
            </code>
            <subject>
               <reference value="urn:uuid:bab7e817-63b7-44e9-9331-0785d83af208"/>
               <display value="Martine Couturier"/>
            </subject>
            <specimen>
               <reference value="urn:uuid:5b200a37-f820-44b3-a321-4efe7962544b"/>
            </specimen>
            <specimen>
               <reference value="urn:uuid:f8124be4-b51c-4d46-93ae-2da8226b140a"/>
            </specimen>
            <result>
               <reference value="urn:uuid:055f6c92-d200-4e6b-9570-ba038ee39f36"/>
            </result>
            <result>
               <reference value="urn:uuid:3fcb989f-4518-46be-a121-f41050c9a2dd"/>
            </result>
         </DiagnosticReport>
      </resource>
   </entry>
   <entry>
      <fullUrl value="urn:uuid:bab7e817-63b7-44e9-9331-0785d83af208"/>
      <resource>
         <Patient>
            <id value="bab7e817-63b7-44e9-9331-0785d83af208"/>
            <meta>
               <profile value="http://hl7.eu/fhir/base/StructureDefinition/patient-eu-core"/>
               <security>
                  <system value="http://terminology.hl7.org/CodeSystem/v3-ActReason"/>
                  <code value="HTEST"/>
               </security>
               <security>
                  <system value="http://terminology.hl7.org/CodeSystem/v3-ActReason"/>
                  <code value="TRAIN"/>
               </security>
               <tag>
                  <system value="https://synderai.net/fhir/CodeSystem/tags"/>
                  <code value="synthetic"/>
                  <display value="SYNDERAI Synthetic data"/>
               </tag>
            </meta>
            <text>
               <status value="generated"/>
               <div xmlns="http://www.w3.org/1999/xhtml">
                  <table class="hl7__ips">
                     <tr>
                        <td>Martine Couturier</td>
                        <td>female</td>
                        <td>13-Nov-1961</td>
                     </tr>
                  </table>
               </div>
            </text>
            <extension url="http://hl7.org/fhir/StructureDefinition/patient-nationality">
               <valueCodeableConcept>
                  <coding>
                     <system value="http://hl7.org/fhir/ValueSet/country"/>
                     <code value="FR"/>
                  </coding>
               </valueCodeableConcept>
            </extension>
            <identifier>
               <type>
                  <coding>
                     <system value="http://terminology.hl7.org/CodeSystem/v2-0203"/>
                     <code value="PT"/>
                  </coding>
               </type>
               <system value="http://ec.europa.eu/identifier/eci"/>
               <value value="6614-983327-0"/>
            </identifier>
            <identifier>
               <type>
                  <coding>
                     <system value="http://terminology.hl7.org/CodeSystem/v2-0203"/>
                     <code value="MR"/>
                  </coding>
               </type>
               <system value="http://local.setting.eu/identifier"/>
               <value value="decdc04d-a1c8-929f-4aad-63136dd70efd"/>
            </identifier>
            <name>
               <family value="Couturier"/>
            </name>
            <name>
               <given value="Martine"/>
            </name>
            <name>
               <text value="Martine Couturier"/>
            </name>
            <telecom>
               <system value="phone"/>
               <value value="+33 4 11 66 35 81"/>
            </telecom>
            <gender value="female"/>
            <birthDate value="1961-11-13"/>
            <address>
               <use value="home"/>
               <type value="physical"/>
               <line value="458, rue de Bègue"/>
               <city value="Boutin"/>
               <postalCode value="03110"/>
               <country value="France"/>
            </address>
         </Patient>
      </resource>
   </entry>
   <entry>
      <fullUrl value="urn:uuid:8df212b4-483b-4903-8db7-035a86cecdd8"/>
      <resource>
         <ServiceRequest>
            <id value="8df212b4-483b-4903-8db7-035a86cecdd8"/>
            <meta>
               <profile value="http://hl7.eu/fhir/laboratory/StructureDefinition/ServiceRequest-eu-lab"/>
            </meta>
            <identifier>
               <system value="http://example.org"/>
               <value value="97973e5e-a7b5-4282-bec3-67bc8d04a218"/>
            </identifier>
            <status value="active"/>
            <intent value="order"/>
            <code>
               <coding>
                  <system value="http://snomed.info/sct"/>
                  <code value="108252007"/>
                  <display value="Laboratory procedure"/>
               </coding>
            </code>
            <subject>
               <reference value="urn:uuid:bab7e817-63b7-44e9-9331-0785d83af208"/>
               <display value="Martine Couturier"/>
            </subject>
            <requester>
               <reference value="urn:uuid:8c55ca12-9515-4b4c-9483-2bbad925bc21"/>
            </requester>
            <reasonCode>
               <coding>
                  <system value="http://snomed.info/sct"/>
                  <code value="368581000119106"/>
                  <display value="Neuropathy due to type 2 diabetes mellitus"/>
               </coding>
            </reasonCode>
            <reasonCode>
               <coding>
                  <system value="http://snomed.info/sct"/>
                  <code value="302870006"/>
                  <display value="Hypertriglyceridemia"/>
               </coding>
            </reasonCode>
            <reasonCode>
               <coding>
                  <system value="http://snomed.info/sct"/>
                  <code value="44054006"/>
                  <display value="Type 2 diabetes mellitus"/>
               </coding>
            </reasonCode>
            <reasonCode>
               <coding>
                  <system value="http://snomed.info/sct"/>
                  <code value="237602007"/>
                  <display value="Metabolic syndrome X"/>
               </coding>
            </reasonCode>
            <reasonCode>
               <coding>
                  <system value="http://snomed.info/sct"/>
                  <code value="271737000"/>
                  <display value="Anemia"/>
               </coding>
            </reasonCode>
            <reasonCode>
               <coding>
                  <system value="http://snomed.info/sct"/>
                  <code value="15777000"/>
                  <display value="Prediabetes"/>
               </coding>
            </reasonCode>
            <specimen>
               <reference value="urn:uuid:5b200a37-f820-44b3-a321-4efe7962544b"/>
            </specimen>
            <specimen>
               <reference value="urn:uuid:f8124be4-b51c-4d46-93ae-2da8226b140a"/>
            </specimen>
         </ServiceRequest>
      </resource>
   </entry>
   <entry>
      <fullUrl value="urn:uuid:8c55ca12-9515-4b4c-9483-2bbad925bc21"/>
      <resource>
         <PractitionerRole>
            <id value="8c55ca12-9515-4b4c-9483-2bbad925bc21"/>
            <meta>
               <profile value="http://hl7.eu/fhir/base/StructureDefinition/practitionerRole-eu"/>
            </meta>
            <text>
               <status value="generated"/>
               <div xmlns="http://www.w3.org/1999/xhtml">Provider Role Id: 8c55ca12-9515-4b4c-9483-2bbad925bc21</div>
            </text>
            <organization>
               <reference value="urn:uuid:ff92b038-8cbb-4bf2-b328-ceec435daaa3"/>
            </organization>
         </PractitionerRole>
      </resource>
   </entry>
   <entry>
      <fullUrl value="urn:uuid:ff92b038-8cbb-4bf2-b328-ceec435daaa3"/>
      <resource>
         <Organization>
            <id value="ff92b038-8cbb-4bf2-b328-ceec435daaa3"/>
            <meta>
               <profile value="http://hl7.eu/fhir/base/StructureDefinition/organization-eu"/>
            </meta>
            <text>
               <status value="generated"/>
               <div xmlns="http://www.w3.org/1999/xhtml">Provider Organization: Centre hospitalier Jacques Lacarin</div>
            </text>
            <identifier>
               <system value="urn:oid:2.16.840.1.113883.2.51.999"/>
               <value value="93fbea6a-a0c8-4f54-b158-9f2090b63bb7"/>
               <assigner>
                  <display value="HL7 Europe"/>
               </assigner>
            </identifier>
            <name value="Centre hospitalier Jacques Lacarin"/>
            <address>
               <line value="Boulevard Denière 1"/>
               <city value="Vichy"/>
               <postalCode value="03200"/>
               <country value="France"/>
            </address>
         </Organization>
      </resource>
   </entry>
   <entry>
      <fullUrl value="urn:uuid:5b200a37-f820-44b3-a321-4efe7962544b"/>
      <resource>
         <Specimen>
            <id value="5b200a37-f820-44b3-a321-4efe7962544b"/>
            <meta>
               <profile value="http://hl7.eu/fhir/laboratory/StructureDefinition/Specimen-eu-lab"/>
            </meta>
            <text>
               <status value="generated"/>
               <div xmlns="http://www.w3.org/1999/xhtml">
                  <table class="hl7__eu__lab__report">
                     <tr>
                        <th>Specimen</th>
                        <th>Collection Date</th>
                     </tr>
                     <tr>
                        <td>Specimen (specimen)</td>
                        <td>
                           <span class="nb">03-Jun-2020</span>
                        </td>
                     </tr>
                  </table>
               </div>
            </text>
            <type>
               <coding>
                  <system value="http://snomed.info/sct"/>
                  <code value="123038009"/>
                  <display value="Specimen (specimen)"/>
               </coding>
            </type>
            <collection>
               <collectedDateTime value="2020-06-03"/>
            </collection>
         </Specimen>
      </resource>
   </entry>
   <entry>
      <fullUrl value="urn:uuid:f8124be4-b51c-4d46-93ae-2da8226b140a"/>
      <resource>
         <Specimen>
            <id value="f8124be4-b51c-4d46-93ae-2da8226b140a"/>
            <meta>
               <profile value="http://hl7.eu/fhir/laboratory/StructureDefinition/Specimen-eu-lab"/>
            </meta>
            <text>
               <status value="generated"/>
               <div xmlns="http://www.w3.org/1999/xhtml">
                  <table class="hl7__eu__lab__report">
                     <tr>
                        <th>Specimen</th>
                        <th>Collection Date</th>
                     </tr>
                     <tr>
                        <td>Feces specimen</td>
                        <td>
                           <span class="nb">03-Jun-2020</span>
                        </td>
                     </tr>
                  </table>
               </div>
            </text>
            <type>
               <coding>
                  <system value="http://snomed.info/sct"/>
                  <code value="119339001"/>
                  <display value="Feces specimen"/>
               </coding>
            </type>
            <collection>
               <collectedDateTime value="2020-06-03"/>
            </collection>
         </Specimen>
      </resource>
   </entry>
   <entry>
      <fullUrl value="urn:uuid:055f6c92-d200-4e6b-9570-ba038ee39f36"/>
      <resource>
         <Observation>
            <id value="055f6c92-d200-4e6b-9570-ba038ee39f36"/>
            <meta>
               <profile value="http://hl7.eu/fhir/laboratory/StructureDefinition/Observation-resultslab-eu-lab"/>
            </meta>
            <text>
               <status value="generated"/>
               <div xmlns="http://www.w3.org/1999/xhtml">
                  <table class="hl7__eu__lab__report">
                     <tr>
                        <th>Test</th>
                        <th>03-Jun-2020</th>
                        <th>Reference Range</th>
                        <th>Unit</th>
                     </tr>
                     <tr>
                        <td>Polyp size greatest dimension</td>
                        <td>3.4</td>
                        <td>0 - 20</td>
                        <td/>
                        <td>mm</td>
                     </tr>
                  </table>
               </div>
            </text>
            <status value="final"/>
            <category>
               <coding>
                  <system value="http://terminology.hl7.org/CodeSystem/observation-category"/>
                  <code value="laboratory"/>
               </coding>
            </category>
            <code>
               <coding>
                  <system value="http://loinc.org"/>
                  <code value="33756-8"/>
                  <display value="Polyp size greatest dimension"/>
               </coding>
               <text value="Polyp size greatest dimension"/>
            </code>
            <subject>
               <reference value="urn:uuid:bab7e817-63b7-44e9-9331-0785d83af208"/>
               <display value="Martine Couturier"/>
            </subject>
            <effectiveDateTime value="2020-06-03T21:57:11Z"/>
            <performer>
               <display value="The Central European Lab"/>
            </performer>
            <valueQuantity>
               <value value="3.4"/>
               <unit value="mm"/>
               <system value="http://unitsofmeasure.org"/>
               <code value="mm"/>
            </valueQuantity>
            <specimen>
               <reference value="urn:uuid:5b200a37-f820-44b3-a321-4efe7962544b"/>
            </specimen>
            <referenceRange>
               <low>
                  <value value="0"/>
                  <system value="http://unitsofmeasure.org"/>
                  <code value="mm"/>
               </low>
            </referenceRange>
            <referenceRange>
               <high>
                  <value value="20"/>
                  <system value="http://unitsofmeasure.org"/>
                  <code value="mm"/>
               </high>
            </referenceRange>
         </Observation>
      </resource>
   </entry>
   <entry>
      <fullUrl value="urn:uuid:3fcb989f-4518-46be-a121-f41050c9a2dd"/>
      <resource>
         <Observation>
            <id value="3fcb989f-4518-46be-a121-f41050c9a2dd"/>
            <meta>
               <profile value="http://hl7.eu/fhir/laboratory/StructureDefinition/Observation-resultslab-eu-lab"/>
            </meta>
            <text>
               <status value="generated"/>
               <div xmlns="http://www.w3.org/1999/xhtml">
                  <table class="hl7__eu__lab__report">
                     <tr>
                        <th>Test</th>
                        <th>03-Jun-2020</th>
                        <th>Reference Range</th>
                        <th>Unit</th>
                     </tr>
                     <tr>
                        <td>Hemoglobin.gastrointestinal.lower [Presence] in Stool by Immunoassay --1st specimen</td>
                        <td>22.3</td>
                        <td>0 - 0</td>
                        <td>H</td>
                        <td>ng/mL</td>
                     </tr>
                  </table>
               </div>
            </text>
            <status value="final"/>
            <category>
               <coding>
                  <system value="http://terminology.hl7.org/CodeSystem/observation-category"/>
                  <code value="laboratory"/>
               </coding>
            </category>
            <code>
               <coding>
                  <system value="http://loinc.org"/>
                  <code value="57905-2"/>
                  <display value="Hemoglobin.gastrointestinal.lower [Presence] in Stool by Immunoassay --1st specimen"/>
               </coding>
               <text value="Hemoglobin.gastrointestinal.lower [Presence] in Stool by Immunoassay --1st specimen"/>
            </code>
            <subject>
               <reference value="urn:uuid:bab7e817-63b7-44e9-9331-0785d83af208"/>
               <display value="Martine Couturier"/>
            </subject>
            <effectiveDateTime value="2020-06-03T21:57:11Z"/>
            <performer>
               <display value="The Central European Lab"/>
            </performer>
            <valueQuantity>
               <value value="22.3"/>
               <unit value="ng/mL"/>
               <system value="http://unitsofmeasure.org"/>
               <code value="ng/mL"/>
            </valueQuantity>
            <interpretation>
               <coding>
                  <system value="http://terminology.hl7.org/CodeSystem/v3-ObservationInterpretation"/>
                  <code value="H"/>
                  <display value="High"/>
               </coding>
            </interpretation>
            <specimen>
               <reference value="urn:uuid:f8124be4-b51c-4d46-93ae-2da8226b140a"/>
            </specimen>
            <referenceRange>
               <low>
                  <value value="0"/>
                  <system value="http://unitsofmeasure.org"/>
                  <code value="ng/mL"/>
               </low>
            </referenceRange>
            <referenceRange>
               <high>
                  <value value="0"/>
                  <system value="http://unitsofmeasure.org"/>
                  <code value="ng/mL"/>
               </high>
            </referenceRange>
         </Observation>
      </resource>
   </entry>
   <entry>
      <fullUrl value="urn:uuid:a0eedf9e-58c0-449f-851e-9cfdff306baa"/>
      <resource>
         <Device>
            <id value="a0eedf9e-58c0-449f-851e-9cfdff306baa"/>
            <text>
               <status value="generated"/>
               <div xmlns="http://www.w3.org/1999/xhtml">SYNDERAI Synthetic Generator v5.0</div>
            </text>
            <status value="active&#34;"/>
            <distinctIdentifier value="synderai-generator-50"/>
            <manufacturer value="SYNDERAI Project"/>
            <deviceName>
               <name value="SYNDERAI Synthetic Generator"/>
               <type value="manufacturer-name"/>
            </deviceName>
            <version>
               <value value="5.0"/>
            </version>
         </Device>
      </resource>
   </entry>
   <entry>
      <fullUrl value="urn:uuid:b6a902dd-3382-413c-b928-1bde1bfc236a"/>
      <resource>
         <Provenance>
            <id value="b6a902dd-3382-413c-b928-1bde1bfc236a"/>
            <text>
               <status value="generated"/>
               <div xmlns="http://www.w3.org/1999/xhtml">Provenance for SYNDERAI Synthetic Example Data Resource</div>
            </text>
            <target>
               <reference value="Patient/bab7e817-63b7-44e9-9331-0785d83af208"/>
            </target>
            <target>
               <reference value="Bundle/260efb53-76e9-4e11-8459-23d0dcc909ec"/>
            </target>
            <target>
               <reference value="Composition/b5b7412b-c413-485b-b7fd-4d703962e9e0"/>
            </target>
            <target>
               <reference value="PractitionerRole/3cd8d9b5-ac06-472b-bf1c-4ef5b23aae03"/>
            </target>
            <target>
               <reference value="Practitioner/d2f8eea7-d31f-4417-9c33-89f48ecbcd46"/>
            </target>
            <target>
               <reference value="PractitionerRole/8c55ca12-9515-4b4c-9483-2bbad925bc21"/>
            </target>
            <target>
               <reference value="Organization/ff92b038-8cbb-4bf2-b328-ceec435daaa3"/>
            </target>
            <recorded value="2020-06-03T23:57:11Z"/>
            <policy value="https://synderai.net/synderai-synthetic-data-policy"/>
            <reason>
               <text value="Interoperability Testing and Training (non-clinical use)"/>
            </reason>
            <activity>
               <text value="Synthetic Example Data Generation"/>
            </activity>
            <agent>
               <type>
                  <text value="author"/>
               </type>
               <who>
                  <reference value="Device/a0eedf9e-58c0-449f-851e-9cfdff306baa"/>
               </who>
            </agent>
         </Provenance>
      </resource>
   </entry>
   <entry>
      <fullUrl value="urn:uuid:3cd8d9b5-ac06-472b-bf1c-4ef5b23aae03"/>
      <resource>
         <PractitionerRole>
            <id value="3cd8d9b5-ac06-472b-bf1c-4ef5b23aae03"/>
            <meta>
               <profile value="http://hl7.eu/fhir/base/StructureDefinition/practitionerRole-eu"/>
            </meta>
            <text>
               <status value="generated"/>
               <div xmlns="http://www.w3.org/1999/xhtml">Laboratory Role Id: 3cd8d9b5-ac06-472b-bf1c-4ef5b23aae03</div>
            </text>
            <practitioner>
               <reference value="urn:uuid:d2f8eea7-d31f-4417-9c33-89f48ecbcd46"/>
            </practitioner>
         </PractitionerRole>
      </resource>
   </entry>
   <entry>
      <fullUrl value="urn:uuid:d2f8eea7-d31f-4417-9c33-89f48ecbcd46"/>
      <resource>
         <Practitioner>
            <id value="d2f8eea7-d31f-4417-9c33-89f48ecbcd46"/>
            <meta>
               <profile value="http://hl7.eu/fhir/base/StructureDefinition/practitioner-eu"/>
            </meta>
            <text>
               <status value="generated"/>
               <div xmlns="http://www.w3.org/1999/xhtml">Laboratory: Laboratoire Central Européenne, 1000 Brussels, Belgium</div>
            </text>
            <identifier>
               <system value="urn:oid:2.16.840.1.113883.2.51.999"/>
               <value value="54cae524-21b4-476e-ad04-00ae64eca1c3"/>
               <assigner>
                  <display value="HL7 Europe"/>
               </assigner>
            </identifier>
            <name>
               <family value="Ample"/>
               <given value="Ex"/>
               <prefix value="dr"/>
            </name>
            <address>
               <line value="Laboratoire Central Européenne"/>
               <line value="Boulevard du Jardin Botanique 32"/>
               <city value="Brussels"/>
               <postalCode value="1000"/>
               <country value="Belgium"/>
            </address>
         </Practitioner>
      </resource>
   </entry>
</Bundle>