{
  "resourceType": "Bundle",
  "id": "cb249325-87a0-4a30-8c99-06658691d229",
  "meta": {
    "profile": [
      "http://hl7.eu/fhir/laboratory/StructureDefinition/Bundle-eu-lab"
    ]
  },
  "identifier": {
    "assigner": {
      "display": "HL7 Europe"
    },
    "system": "urn:oid:2.16.840.1.113883.2.51.999",
    "value": "5df8f182-a063-419e-878a-d0b568c0be3c"
  },
  "entry": [
    {
      "fullUrl": "urn:uuid:f97e5258-923b-46f0-8e9a-5b0f49f4baea",
      "resource": {
        "resourceType": "Composition",
        "id": "f97e5258-923b-46f0-8e9a-5b0f49f4baea",
        "meta": {
          "profile": [
            "http://hl7.eu/fhir/laboratory/StructureDefinition/Composition-eu-lab"
          ]
        },
        "identifier": {
          "assigner": {
            "display": "HL7 Europe"
          },
          "system": "urn:oid:2.16.840.1.113883.2.51.999",
          "value": "507310dc-3543-472d-a9fd-2dcd2f73f2b9"
        },
        "author": [
          {
            "reference": "urn:uuid:9e76ba79-fc92-4e9e-a3bb-dbe1d6761e5e"
          }
        ],
        "category": [
          {
            "coding": [
              {
                "code": "26436-6",
                "system": "http://loinc.org",
                "display": "Laboratory studies (set)"
              }
            ]
          }
        ],
        "type": {
          "coding": [
            {
              "code": "11502-2",
              "system": "http://loinc.org",
              "display": "Laboratory report"
            }
          ],
          "text": "Laboratory Report"
        },
        "section": [
          {
            "code": {
              "coding": [
                {
                  "code": "26436-6",
                  "system": "http://loinc.org",
                  "display": "Laboratory studies (set)"
                }
              ],
              "text": "Laboratory studies"
            },
            "section": [
              {
                "code": {
                  "coding": [
                    {
                      "code": "$18719-5",
                      "system": "http://loinc.org",
                      "display": "Chemistry studies (set)"
                    }
                  ],
                  "text": "Chemistry"
                },
                "entry": [
                  {
                    "reference": "urn:uuid:6b042d8a-5072-4639-93ec-316e5c3dbf3d"
                  },
                  {
                    "reference": "urn:uuid:5e9773cc-daa3-40cc-93f5-c7b15be35702"
                  },
                  {
                    "reference": "urn:uuid:ba82b7af-92bc-407f-93e4-e5f1b42a7300"
                  },
                  {
                    "reference": "urn:uuid:97ccfa87-64f2-4d4d-9a9f-415c341608ca"
                  },
                  {
                    "reference": "urn:uuid:b347030f-4e5a-47bb-83c9-5cd13702635d"
                  },
                  {
                    "reference": "urn:uuid:e706c5a8-5fd8-4681-939a-c78352ce9113"
                  },
                  {
                    "reference": "urn:uuid:b5466b18-38ce-40fb-a54e-9922454f9ae6"
                  },
                  {
                    "reference": "urn:uuid:0c4bab12-6f74-476b-a7e0-7c8a23592868"
                  },
                  {
                    "reference": "urn:uuid:51bbcc38-1739-468a-9e7c-7208178f7585"
                  },
                  {
                    "reference": "urn:uuid:7a55fda1-7bd1-49d8-8f2d-d02d7480785b"
                  },
                  {
                    "reference": "urn:uuid:2193517d-982c-416c-9ac9-0f77fed9e64b"
                  },
                  {
                    "reference": "urn:uuid:767f3eaf-6d55-45cf-8117-220eb0178ab8"
                  },
                  {
                    "reference": "urn:uuid:8cabd315-1e4d-43de-a30a-88e630ec3a24"
                  },
                  {
                    "reference": "urn:uuid:7733fc77-00b0-4043-825d-203c233ddeee"
                  },
                  {
                    "reference": "urn:uuid:21871ffb-f972-4798-814e-f150239abe73"
                  },
                  {
                    "reference": "urn:uuid:d2d6431e-a0f2-4be3-b02b-3097d6a31bd6"
                  },
                  {
                    "reference": "urn:uuid:084507fe-d5c9-43ad-952e-be485bd88ffd"
                  },
                  {
                    "reference": "urn:uuid:2a531a79-4799-43fd-905f-ef1de6ef444a"
                  }
                ],
                "text": {
                  "status": "generated",
                  "div": "<div xmlns=\"http://www.w3.org/1999/xhtml\"><h3>Chemistry</h3><table class=\"hl7__eu__lab__report\"><thead><tr><th>Test</th><th>12-MAY-2021</th><th>Reference&#xA0;Range</th><th>Unit</th></tr></thead><tbody><tr><td>Glucose [Mass/volume] in Serum or Plasma</td><td>93.8</td><td>70 - 140</td><td>mg/dL</td></tr><tr><td>Urea nitrogen [Mass/volume] in Serum or Plasma</td><td>7.4</td><td>7 - 20</td><td>mg/dL</td></tr><tr><td>Creatinine [Mass/volume] in Serum or Plasma</td><td><strong>2.0 H</strong></td><td>0.9 - 1.3</td><td>mg/dL</td></tr><tr><td>Calcium [Mass/volume] in Serum or Plasma</td><td>9.5</td><td>8.5 - 10.5</td><td>mg/dL</td></tr><tr><td>Sodium [Moles/volume] in Serum or Plasma</td><td>143.2</td><td>135 - 145</td><td>mmol/L</td></tr><tr><td>Potassium [Moles/volume] in Serum or Plasma</td><td>3.9</td><td>3.5 - 5</td><td>mmol/L</td></tr><tr><td>Chloride [Moles/volume] in Serum or Plasma</td><td>102.3</td><td>98 - 108</td><td>mmol/L</td></tr><tr><td>Carbon dioxide, total [Moles/volume] in Serum or Plasma</td><td>24.4</td><td>22 - 29</td><td>mmol/L</td></tr><tr><td>Ketones [Presence] in Urine by Test strip</td><td>Urine ketone test = ++</td><td></td><td></td></tr><tr><td>Hemoglobin A1c/Hemoglobin.total in Blood</td><td><strong>2.9 L</strong></td><td>4.3 - 6.4</td><td>%</td></tr><tr><td>Glucose [Mass/volume] in Blood</td><td>93.8</td><td>70 - 140</td><td>mg/dL</td></tr><tr><td>Urea nitrogen [Mass/volume] in Blood</td><td>7.4</td><td>7 - 20</td><td>mg/dL</td></tr><tr><td>Creatinine [Mass/volume] in Blood</td><td><strong>4.7 H</strong></td><td>0.6 - 1.3</td><td>mg/dL</td></tr><tr><td>Calcium [Mass/volume] in Blood</td><td>9.5</td><td>8.5 - 10.5</td><td>mg/dL</td></tr><tr><td>Sodium [Moles/volume] in Blood</td><td>143.2</td><td>135 - 145</td><td>mmol/L</td></tr><tr><td>Potassium [Moles/volume] in Blood</td><td>3.9</td><td>3.5 - 5.3</td><td>mmol/L</td></tr><tr><td>Chloride [Moles/volume] in Blood</td><td>102.3</td><td>98 - 110</td><td>mmol/L</td></tr><tr><td>Carbon dioxide, total [Moles/volume] in Blood</td><td>24.4</td><td>22 - 29</td><td>mmol/L</td></tr></tbody></table></div>"
                },
                "title": "Chemistry"
              },
              {
                "code": {
                  "coding": [
                    {
                      "code": "$18729-4",
                      "system": "http://loinc.org",
                      "display": "Urinalysis studies (set)"
                    }
                  ],
                  "text": "Urinalysis"
                },
                "entry": [
                  {
                    "reference": "urn:uuid:213554a2-2945-4904-86b2-fef6c1c11536"
                  },
                  {
                    "reference": "urn:uuid:1dbd6412-e76f-406b-92e6-affc0d77ac56"
                  },
                  {
                    "reference": "urn:uuid:be6fc9d1-3f4c-4b0c-9de8-196c6c0bd637"
                  },
                  {
                    "reference": "urn:uuid:52945381-95c0-4bfd-a4db-5e8edbf37c25"
                  },
                  {
                    "reference": "urn:uuid:e181ba5f-5f5b-4bf2-a340-b35ba5354b93"
                  },
                  {
                    "reference": "urn:uuid:656e7208-c788-44c5-a25f-15a71e828326"
                  },
                  {
                    "reference": "urn:uuid:24058149-83b4-45bb-9312-0de92868928d"
                  },
                  {
                    "reference": "urn:uuid:57f562a6-7c83-4134-b530-ef7a2c851e3c"
                  },
                  {
                    "reference": "urn:uuid:4e1ddf3d-fe2a-4f47-908a-86f8151b1e18"
                  },
                  {
                    "reference": "urn:uuid:033e8823-3ae3-45fe-8ed0-3dc9748f88d8"
                  },
                  {
                    "reference": "urn:uuid:5d06995f-57db-45ab-9340-8cbeb75fe800"
                  },
                  {
                    "reference": "urn:uuid:4c59399b-efda-4e18-88d2-237b00a0fd23"
                  }
                ],
                "text": {
                  "status": "generated",
                  "div": "<div xmlns=\"http://www.w3.org/1999/xhtml\"><h3>Urinalysis</h3><table class=\"hl7__eu__lab__report\"><thead><tr><th>Test</th><th>12-MAY-2021</th><th>Reference&#xA0;Range</th><th>Unit</th></tr></thead><tbody><tr><td>Glucose [Mass/volume] in Urine by Test strip</td><td><strong>1.9 H</strong></td><td>0 - 0.8</td><td>mg/dL</td></tr><tr><td>Glucose [Presence] in Urine by Test strip</td><td>++</td><td></td><td></td></tr><tr><td>Bilirubin.total [Mass/volume] in Urine by Test strip</td><td><strong>1.3 H</strong></td><td>0.2 - 1</td><td>mg/dL</td></tr><tr><td>Bilirubin.total [Presence] in Urine by Test strip</td><td>Finding of bilirubin in urine</td><td></td><td></td></tr><tr><td>Ketones [Mass/volume] in Urine by Test strip</td><td><strong>15.4 H</strong></td><td>0 - 5</td><td>mg/dL</td></tr><tr><td>Specific gravity of Urine by Test strip</td><td><strong>1.0 L</strong></td><td>1.005 - 1.03</td><td>{nominal}</td></tr><tr><td>pH of Urine by Test strip</td><td>6.6</td><td>4.6 - 7</td><td>pH</td></tr><tr><td>Protein [Mass/volume] in Urine by Test strip</td><td><strong>347.1 H</strong></td><td>0 - 150</td><td>mg/dL</td></tr><tr><td>Protein [Presence] in Urine by Test strip</td><td>Urine protein test = ++</td><td></td><td></td></tr><tr><td>Nitrite [Presence] in Urine by Test strip</td><td>Urine nitrite negative</td><td></td><td></td></tr><tr><td>Hemoglobin [Presence] in Urine by Test strip</td><td>Urine blood test = negative</td><td></td><td></td></tr><tr><td>Leukocyte esterase [Presence] in Urine by Test strip</td><td>Urine leukocyte test negative</td><td></td><td></td></tr></tbody></table></div>"
                },
                "title": "Urinalysis"
              },
              {
                "code": {
                  "coding": [
                    {
                      "code": "$LP7846-1",
                      "system": "http://loinc.org",
                      "display": "Specimen information"
                    }
                  ],
                  "text": "Specimen information"
                },
                "entry": [
                  {
                    "reference": "urn:uuid:e79b5ef9-8dff-4c80-8dc8-4ed820e78650"
                  },
                  {
                    "reference": "urn:uuid:3513f3c3-7ea7-4042-b5c3-3a6879b4848c"
                  },
                  {
                    "reference": "urn:uuid:2f552981-32ab-41e1-98b9-f45a03c26c0a"
                  },
                  {
                    "reference": "urn:uuid:55cb3e81-17f0-4c11-a091-8563785a8fe1"
                  }
                ],
                "text": {
                  "status": "generated",
                  "div": "<div xmlns=\"http://www.w3.org/1999/xhtml\"><h3>Specimen information</h3><table class=\"hl7__eu__lab__report\"><thead><tr><th>Test</th><th>12-MAY-2021</th><th>Specimen</th><th></th></tr></thead><tbody><tr><td>Appearance of Urine</td><td>Cloudy urine</td><td>Urine</td><td></td></tr><tr><td>Odor of Urine</td><td>Urine smell ammoniacal</td><td>Urine</td><td></td></tr><tr><td>Clarity of Urine</td><td>Translucent</td><td>Urine</td><td></td></tr><tr><td>Color of Urine</td><td>Brown color</td><td>Urine</td><td></td></tr></tbody></table></div>"
                },
                "title": "Specimen information"
              }
            ],
            "title": "Laboratory Report"
          },
          {
            "text": {
              "status": "generated",
              "div": "<div xmlns=\"http://www.w3.org/1999/xhtml\"><h3>Annotation</h3><table class=\"hl7__eu__lab__report\"><tr><th>Conclusion and Recommendations based on this report and previous findings known to us</th></tr><tr><td>The patient shows markedly elevated creatinine, proteinuria, glucosuria, ketonuria, and bilirubinuria, with low urine specific gravity and normal blood glucose. These findings suggest significant renal dysfunction, likely with impaired filtration and possible tubular damage. The low HbA1c excludes chronic hyperglycemia. Urine abnormalities (cloudy, brown, ammoniacal) further support renal pathology. Prompt nephrology evaluation is recommended to clarify etiology and guide management.</td></tr></table></div>"
            },
            "code": {
              "coding": [
                {
                  "system": "http://loinc.org",
                  "code": "48767-8",
                  "display": "Annotation comment"
                }
              ]
            },
            "title": "Annotation comment"
          }
        ],
        "status": "final",
        "subject": {
          "reference": "urn:uuid:232303f1-64a4-4fdb-8538-9aedb5fcd519",
          "display": "Θεμιστοκλής Λιναρδάκη"
        },
        "date": "2021-05-12T08:16:00Z",
        "title": "Laboratory Report",
        "confidentiality": "N"
      }
    },
    {
      "fullUrl": "urn:uuid:a85d8af8-4bde-434e-bc9b-a632ac47286e",
      "resource": {
        "resourceType": "DiagnosticReport",
        "id": "a85d8af8-4bde-434e-bc9b-a632ac47286e",
        "meta": {
          "profile": [
            "http://hl7.eu/fhir/laboratory/StructureDefinition/DiagnosticReport-eu-lab"
          ]
        },
        "identifier": [
          {
            "assigner": {
              "display": "HL7 Europe"
            },
            "system": "urn:oid:2.16.840.1.113883.2.51.999",
            "value": "578e8306-0d5c-40c5-b4d3-5cb01bc9659e"
          }
        ],
        "extension": [
          {
            "url": "http://hl7.org/fhir/5.0/StructureDefinition/extension-DiagnosticReport.composition",
            "valueReference": {
              "reference": "urn:uuid:507310dc-3543-472d-a9fd-2dcd2f73f2b9"
            }
          }
        ],
        "category": [
          {
            "coding": [
              {
                "code": "26436-6",
                "system": "http://loinc.org",
                "display": "Laboratory studies (set)"
              }
            ]
          }
        ],
        "specimen": [
          {
            "reference": "urn:uuid:7c50811b-9b41-4fe4-8ea1-c54a15760879"
          },
          {
            "reference": "urn:uuid:17034a5d-0ef7-4df5-9b67-eaed89b346ce"
          },
          {
            "reference": "urn:uuid:626f5d49-8243-4229-adaa-d3ede8227a76"
          }
        ],
        "result": [
          {
            "reference": "urn:uuid:6b042d8a-5072-4639-93ec-316e5c3dbf3d"
          },
          {
            "reference": "urn:uuid:5e9773cc-daa3-40cc-93f5-c7b15be35702"
          },
          {
            "reference": "urn:uuid:ba82b7af-92bc-407f-93e4-e5f1b42a7300"
          },
          {
            "reference": "urn:uuid:97ccfa87-64f2-4d4d-9a9f-415c341608ca"
          },
          {
            "reference": "urn:uuid:b347030f-4e5a-47bb-83c9-5cd13702635d"
          },
          {
            "reference": "urn:uuid:e706c5a8-5fd8-4681-939a-c78352ce9113"
          },
          {
            "reference": "urn:uuid:b5466b18-38ce-40fb-a54e-9922454f9ae6"
          },
          {
            "reference": "urn:uuid:0c4bab12-6f74-476b-a7e0-7c8a23592868"
          },
          {
            "reference": "urn:uuid:e79b5ef9-8dff-4c80-8dc8-4ed820e78650"
          },
          {
            "reference": "urn:uuid:3513f3c3-7ea7-4042-b5c3-3a6879b4848c"
          },
          {
            "reference": "urn:uuid:2f552981-32ab-41e1-98b9-f45a03c26c0a"
          },
          {
            "reference": "urn:uuid:55cb3e81-17f0-4c11-a091-8563785a8fe1"
          },
          {
            "reference": "urn:uuid:213554a2-2945-4904-86b2-fef6c1c11536"
          },
          {
            "reference": "urn:uuid:1dbd6412-e76f-406b-92e6-affc0d77ac56"
          },
          {
            "reference": "urn:uuid:be6fc9d1-3f4c-4b0c-9de8-196c6c0bd637"
          },
          {
            "reference": "urn:uuid:52945381-95c0-4bfd-a4db-5e8edbf37c25"
          },
          {
            "reference": "urn:uuid:e181ba5f-5f5b-4bf2-a340-b35ba5354b93"
          },
          {
            "reference": "urn:uuid:51bbcc38-1739-468a-9e7c-7208178f7585"
          },
          {
            "reference": "urn:uuid:656e7208-c788-44c5-a25f-15a71e828326"
          },
          {
            "reference": "urn:uuid:24058149-83b4-45bb-9312-0de92868928d"
          },
          {
            "reference": "urn:uuid:57f562a6-7c83-4134-b530-ef7a2c851e3c"
          },
          {
            "reference": "urn:uuid:4e1ddf3d-fe2a-4f47-908a-86f8151b1e18"
          },
          {
            "reference": "urn:uuid:033e8823-3ae3-45fe-8ed0-3dc9748f88d8"
          },
          {
            "reference": "urn:uuid:5d06995f-57db-45ab-9340-8cbeb75fe800"
          },
          {
            "reference": "urn:uuid:4c59399b-efda-4e18-88d2-237b00a0fd23"
          },
          {
            "reference": "urn:uuid:7a55fda1-7bd1-49d8-8f2d-d02d7480785b"
          },
          {
            "reference": "urn:uuid:2193517d-982c-416c-9ac9-0f77fed9e64b"
          },
          {
            "reference": "urn:uuid:767f3eaf-6d55-45cf-8117-220eb0178ab8"
          },
          {
            "reference": "urn:uuid:8cabd315-1e4d-43de-a30a-88e630ec3a24"
          },
          {
            "reference": "urn:uuid:7733fc77-00b0-4043-825d-203c233ddeee"
          },
          {
            "reference": "urn:uuid:21871ffb-f972-4798-814e-f150239abe73"
          },
          {
            "reference": "urn:uuid:d2d6431e-a0f2-4be3-b02b-3097d6a31bd6"
          },
          {
            "reference": "urn:uuid:084507fe-d5c9-43ad-952e-be485bd88ffd"
          },
          {
            "reference": "urn:uuid:2a531a79-4799-43fd-905f-ef1de6ef444a"
          }
        ],
        "status": "registered",
        "code": {
          "coding": [
            {
              "code": "11502-2",
              "system": "http://loinc.org",
              "display": "Laboratory report"
            }
          ]
        },
        "subject": {
          "reference": "urn:uuid:232303f1-64a4-4fdb-8538-9aedb5fcd519",
          "display": "Θεμιστοκλής Λιναρδάκη"
        }
      }
    },
    {
      "fullUrl": "urn:uuid:232303f1-64a4-4fdb-8538-9aedb5fcd519",
      "resource": {
        "resourceType": "Patient",
        "id": "232303f1-64a4-4fdb-8538-9aedb5fcd519",
        "meta": {
          "security": [
            {
              "system": "http://terminology.hl7.org/CodeSystem/v3-ActReason",
              "code": "HTEST"
            },
            {
              "system": "http://terminology.hl7.org/CodeSystem/v3-ActReason",
              "code": "TRAIN"
            }
          ],
          "tag": [
            {
              "system": "https://synderai.net/fhir/CodeSystem/tags",
              "code": "synthetic",
              "display": "SYNDERAI Synthetic data"
            }
          ],
          "profile": [
            "http://hl7.eu/fhir/base/StructureDefinition/patient-eu-core"
          ]
        },
        "identifier": [
          {
            "type": {
              "coding": [
                {
                  "code": "PT",
                  "system": "http://terminology.hl7.org/CodeSystem/v2-0203"
                }
              ]
            },
            "system": "http://ec.europa.eu/identifier/eci",
            "value": "5962-476889-7"
          },
          {
            "type": {
              "coding": [
                {
                  "code": "MR",
                  "system": "http://terminology.hl7.org/CodeSystem/v2-0203"
                }
              ]
            },
            "system": "http://local.setting.eu/identifier",
            "value": "925e2603-2ef9-6bdf-1330-2ebf526636c4"
          }
        ],
        "name": [
          {
            "family": "Λιναρδάκη"
          },
          {
            "given": [
              "Θεμιστοκλής"
            ]
          },
          {
            "text": "Θεμιστοκλής Λιναρδάκη"
          }
        ],
        "address": [
          {
            "line": [
              "Αμαρύνθου 54-58"
            ],
            "use": "home",
            "type": "physical",
            "postalCode": "262 21",
            "city": "Πάτρα",
            "country": "Greece"
          }
        ],
        "telecom": [
          {
            "system": "phone",
            "value": "+302226364480"
          }
        ],
        "extension": [
          {
            "url": "http://hl7.org/fhir/StructureDefinition/patient-nationality",
            "valueCodeableConcept": {
              "coding": [
                {
                  "code": "GR",
                  "system": "http://hl7.org/fhir/ValueSet/country"
                }
              ]
            }
          }
        ],
        "text": {
          "status": "generated",
          "div": "<div xmlns=\"http://www.w3.org/1999/xhtml\"><table class=\"hl7__ips\"><tr><td>Θεμιστοκλής Λιναρδάκη</td><td>male</td><td>21-Jan-1974</td></tr></table></div>"
        },
        "gender": "male",
        "birthDate": "1974-01-21"
      }
    },
    {
      "fullUrl": "urn:uuid:d289f144-717c-4d14-a5da-768fb53b8cce",
      "resource": {
        "resourceType": "ServiceRequest",
        "id": "d289f144-717c-4d14-a5da-768fb53b8cce",
        "meta": {
          "profile": [
            "http://hl7.eu/fhir/laboratory/StructureDefinition/ServiceRequest-eu-lab"
          ]
        },
        "identifier": [
          {
            "system": "http://example.org",
            "value": "8a2b25e1-562d-4549-b0c5-72dfaa7e84bf"
          }
        ],
        "specimen": [
          {
            "reference": "urn:uuid:7c50811b-9b41-4fe4-8ea1-c54a15760879"
          },
          {
            "reference": "urn:uuid:17034a5d-0ef7-4df5-9b67-eaed89b346ce"
          },
          {
            "reference": "urn:uuid:626f5d49-8243-4229-adaa-d3ede8227a76"
          }
        ],
        "reasonCode": [
          {
            "coding": [
              {
                "code": "237602007",
                "system": "http://snomed.info/sct",
                "display": "Metabolic syndrome X"
              }
            ]
          },
          {
            "coding": [
              {
                "code": "433144002",
                "system": "http://snomed.info/sct",
                "display": "Chronic kidney disease stage 3"
              }
            ]
          },
          {
            "coding": [
              {
                "code": "157141000119108",
                "system": "http://snomed.info/sct",
                "display": "Proteinuria due to type 2 diabetes mellitus"
              }
            ]
          },
          {
            "coding": [
              {
                "code": "431856006",
                "system": "http://snomed.info/sct",
                "display": "Chronic kidney disease stage 2"
              }
            ]
          },
          {
            "coding": [
              {
                "code": "90781000119102",
                "system": "http://snomed.info/sct",
                "display": "Microalbuminuria due to type 2 diabetes mellitus"
              }
            ]
          },
          {
            "coding": [
              {
                "code": "127013003",
                "system": "http://snomed.info/sct",
                "display": "Disorder of kidney due to diabetes mellitus"
              }
            ]
          },
          {
            "coding": [
              {
                "code": "431855005",
                "system": "http://snomed.info/sct",
                "display": "Chronic kidney disease stage 1"
              }
            ]
          },
          {
            "coding": [
              {
                "code": "59621000",
                "system": "http://snomed.info/sct",
                "display": "Essential hypertension"
              }
            ]
          },
          {
            "coding": [
              {
                "code": "15777000",
                "system": "http://snomed.info/sct",
                "display": "Prediabetes"
              }
            ]
          },
          {
            "coding": [
              {
                "code": "271737000",
                "system": "http://snomed.info/sct",
                "display": "Anemia"
              }
            ]
          }
        ],
        "status": "active",
        "intent": "order",
        "code": {
          "coding": [
            {
              "code": "108252007",
              "system": "http://snomed.info/sct",
              "display": "Laboratory procedure"
            }
          ]
        },
        "subject": {
          "reference": "urn:uuid:232303f1-64a4-4fdb-8538-9aedb5fcd519",
          "display": "Θεμιστοκλής Λιναρδάκη"
        },
        "requester": {
          "reference": "urn:uuid:6ef6b4c5-5cca-4b49-9c6f-c0d6720012f0"
        }
      }
    },
    {
      "fullUrl": "urn:uuid:6ef6b4c5-5cca-4b49-9c6f-c0d6720012f0",
      "resource": {
        "resourceType": "PractitionerRole",
        "id": "6ef6b4c5-5cca-4b49-9c6f-c0d6720012f0",
        "meta": {
          "profile": [
            "http://hl7.eu/fhir/base/StructureDefinition/practitionerRole-eu"
          ]
        },
        "text": {
          "status": "generated",
          "div": "<div xmlns=\"http://www.w3.org/1999/xhtml\">Provider Role Id: 6ef6b4c5-5cca-4b49-9c6f-c0d6720012f0</div>"
        },
        "organization": {
          "reference": "urn:uuid:53bcacdb-7e0e-4d35-9c8f-f1f187f41e04"
        }
      }
    },
    {
      "fullUrl": "urn:uuid:53bcacdb-7e0e-4d35-9c8f-f1f187f41e04",
      "resource": {
        "resourceType": "Organization",
        "id": "53bcacdb-7e0e-4d35-9c8f-f1f187f41e04",
        "meta": {
          "profile": [
            "http://hl7.eu/fhir/base/StructureDefinition/organization-eu"
          ]
        },
        "identifier": [
          {
            "assigner": {
              "display": "HL7 Europe"
            },
            "system": "urn:oid:2.16.840.1.113883.2.51.999",
            "value": "c260532e-3f80-4f60-b5e5-d12cd3df8110"
          }
        ],
        "address": [
          {
            "line": [
              "211 Odós Filellinon"
            ],
            "city": "Patras",
            "postalCode": "262 21",
            "country": "Greece"
          }
        ],
        "text": {
          "status": "generated",
          "div": "<div xmlns=\"http://www.w3.org/1999/xhtml\">Provider Organization: Dr. Dimitris Economou</div>"
        },
        "name": "Dr. Dimitris Economou"
      }
    },
    {
      "fullUrl": "urn:uuid:7c50811b-9b41-4fe4-8ea1-c54a15760879",
      "resource": {
        "resourceType": "Specimen",
        "id": "7c50811b-9b41-4fe4-8ea1-c54a15760879",
        "meta": {
          "profile": [
            "http://hl7.eu/fhir/laboratory/StructureDefinition/Specimen-eu-lab"
          ]
        },
        "collection": {
          "collectedDateTime": "2021-05-12"
        },
        "text": {
          "status": "generated",
          "div": "<div xmlns=\"http://www.w3.org/1999/xhtml\"><table class=\"hl7__eu__lab__report\"><tr><th>Specimen</th><th>Collection Date</th></tr><tr><td>Acellular blood (serum or plasma) specimen</td><td><span class=\"nb\">12-May-2021</span></td></tr></table></div>"
        },
        "type": {
          "coding": [
            {
              "code": "122592007",
              "system": "http://snomed.info/sct",
              "display": "Acellular blood (serum or plasma) specimen"
            }
          ]
        }
      }
    },
    {
      "fullUrl": "urn:uuid:17034a5d-0ef7-4df5-9b67-eaed89b346ce",
      "resource": {
        "resourceType": "Specimen",
        "id": "17034a5d-0ef7-4df5-9b67-eaed89b346ce",
        "meta": {
          "profile": [
            "http://hl7.eu/fhir/laboratory/StructureDefinition/Specimen-eu-lab"
          ]
        },
        "collection": {
          "collectedDateTime": "2021-05-12"
        },
        "text": {
          "status": "generated",
          "div": "<div xmlns=\"http://www.w3.org/1999/xhtml\"><table class=\"hl7__eu__lab__report\"><tr><th>Specimen</th><th>Collection Date</th></tr><tr><td>Urine specimen</td><td><span class=\"nb\">12-May-2021</span></td></tr></table></div>"
        },
        "type": {
          "coding": [
            {
              "code": "122575003",
              "system": "http://snomed.info/sct",
              "display": "Urine specimen"
            }
          ]
        }
      }
    },
    {
      "fullUrl": "urn:uuid:626f5d49-8243-4229-adaa-d3ede8227a76",
      "resource": {
        "resourceType": "Specimen",
        "id": "626f5d49-8243-4229-adaa-d3ede8227a76",
        "meta": {
          "profile": [
            "http://hl7.eu/fhir/laboratory/StructureDefinition/Specimen-eu-lab"
          ]
        },
        "collection": {
          "collectedDateTime": "2021-05-12"
        },
        "text": {
          "status": "generated",
          "div": "<div xmlns=\"http://www.w3.org/1999/xhtml\"><table class=\"hl7__eu__lab__report\"><tr><th>Specimen</th><th>Collection Date</th></tr><tr><td>Whole blood specimen (specimen)</td><td><span class=\"nb\">12-May-2021</span></td></tr></table></div>"
        },
        "type": {
          "coding": [
            {
              "code": "258580003",
              "system": "http://snomed.info/sct",
              "display": "Whole blood specimen (specimen)"
            }
          ]
        }
      }
    },
    {
      "fullUrl": "urn:uuid:6b042d8a-5072-4639-93ec-316e5c3dbf3d",
      "resource": {
        "resourceType": "Observation",
        "id": "6b042d8a-5072-4639-93ec-316e5c3dbf3d",
        "meta": {
          "profile": [
            "http://hl7.eu/fhir/laboratory/StructureDefinition/Observation-resultslab-eu-lab"
          ]
        },
        "performer": [
          {
            "display": "The Central European Lab"
          }
        ],
        "category": [
          {
            "coding": [
              {
                "system": "http://terminology.hl7.org/CodeSystem/observation-category",
                "code": "laboratory"
              }
            ]
          }
        ],
        "code": {
          "coding": [
            {
              "code": "2345-7",
              "system": "http://loinc.org",
              "display": "Glucose [Mass/volume] in Serum or Plasma"
            }
          ],
          "text": "Glucose [Mass/volume] in Serum or Plasma"
        },
        "valueQuantity": {
          "system": "http://unitsofmeasure.org",
          "value": 93.8,
          "unit": "mg/dL",
          "code": "mg/dL"
        },
        "referenceRange": [
          {
            "low": {
              "value": 70,
              "code": "mg/dL",
              "system": "http://unitsofmeasure.org"
            }
          },
          {
            "high": {
              "value": 140,
              "code": "mg/dL",
              "system": "http://unitsofmeasure.org"
            }
          }
        ],
        "text": {
          "status": "generated",
          "div": "<div xmlns=\"http://www.w3.org/1999/xhtml\"><table class=\"hl7__eu__lab__report\"><tr><th>Test</th><th>12-May-2021</th><th>Reference&#xA0;Range</th><th>Unit</th></tr><tr><td>Glucose [Mass/volume] in Serum or Plasma</td><td>93.8</td><td>70 - 140</td><td></td><td>mg/dL</td></tr></table></div>"
        },
        "status": "final",
        "subject": {
          "reference": "urn:uuid:232303f1-64a4-4fdb-8538-9aedb5fcd519",
          "display": "Θεμιστοκλής Λιναρδάκη"
        },
        "effectiveDateTime": "2021-05-12T06:16:00Z",
        "specimen": {
          "reference": "urn:uuid:7c50811b-9b41-4fe4-8ea1-c54a15760879"
        }
      }
    },
    {
      "fullUrl": "urn:uuid:5e9773cc-daa3-40cc-93f5-c7b15be35702",
      "resource": {
        "resourceType": "Observation",
        "id": "5e9773cc-daa3-40cc-93f5-c7b15be35702",
        "meta": {
          "profile": [
            "http://hl7.eu/fhir/laboratory/StructureDefinition/Observation-resultslab-eu-lab"
          ]
        },
        "performer": [
          {
            "display": "The Central European Lab"
          }
        ],
        "category": [
          {
            "coding": [
              {
                "system": "http://terminology.hl7.org/CodeSystem/observation-category",
                "code": "laboratory"
              }
            ]
          }
        ],
        "code": {
          "coding": [
            {
              "code": "3094-0",
              "system": "http://loinc.org",
              "display": "Urea nitrogen [Mass/volume] in Serum or Plasma"
            }
          ],
          "text": "Urea nitrogen [Mass/volume] in Serum or Plasma"
        },
        "valueQuantity": {
          "system": "http://unitsofmeasure.org",
          "value": 7.4,
          "unit": "mg/dL",
          "code": "mg/dL"
        },
        "referenceRange": [
          {
            "low": {
              "value": 7,
              "code": "mg/dL",
              "system": "http://unitsofmeasure.org"
            }
          },
          {
            "high": {
              "value": 20,
              "code": "mg/dL",
              "system": "http://unitsofmeasure.org"
            }
          }
        ],
        "text": {
          "status": "generated",
          "div": "<div xmlns=\"http://www.w3.org/1999/xhtml\"><table class=\"hl7__eu__lab__report\"><tr><th>Test</th><th>12-May-2021</th><th>Reference&#xA0;Range</th><th>Unit</th></tr><tr><td>Urea nitrogen [Mass/volume] in Serum or Plasma</td><td>7.4</td><td>7 - 20</td><td></td><td>mg/dL</td></tr></table></div>"
        },
        "status": "final",
        "subject": {
          "reference": "urn:uuid:232303f1-64a4-4fdb-8538-9aedb5fcd519",
          "display": "Θεμιστοκλής Λιναρδάκη"
        },
        "effectiveDateTime": "2021-05-12T06:16:00Z",
        "specimen": {
          "reference": "urn:uuid:7c50811b-9b41-4fe4-8ea1-c54a15760879"
        }
      }
    },
    {
      "fullUrl": "urn:uuid:ba82b7af-92bc-407f-93e4-e5f1b42a7300",
      "resource": {
        "resourceType": "Observation",
        "id": "ba82b7af-92bc-407f-93e4-e5f1b42a7300",
        "meta": {
          "profile": [
            "http://hl7.eu/fhir/laboratory/StructureDefinition/Observation-resultslab-eu-lab"
          ]
        },
        "performer": [
          {
            "display": "The Central European Lab"
          }
        ],
        "category": [
          {
            "coding": [
              {
                "system": "http://terminology.hl7.org/CodeSystem/observation-category",
                "code": "laboratory"
              }
            ]
          }
        ],
        "code": {
          "coding": [
            {
              "code": "2160-0",
              "system": "http://loinc.org",
              "display": "Creatinine [Mass/volume] in Serum or Plasma"
            }
          ],
          "text": "Creatinine [Mass/volume] in Serum or Plasma"
        },
        "valueQuantity": {
          "system": "http://unitsofmeasure.org",
          "value": 2,
          "unit": "mg/dL",
          "code": "mg/dL"
        },
        "referenceRange": [
          {
            "low": {
              "value": 0.9,
              "code": "mg/dL",
              "system": "http://unitsofmeasure.org"
            }
          },
          {
            "high": {
              "value": 1.3,
              "code": "mg/dL",
              "system": "http://unitsofmeasure.org"
            }
          }
        ],
        "interpretation": [
          {
            "coding": [
              {
                "code": "H",
                "system": "http://terminology.hl7.org/CodeSystem/v3-ObservationInterpretation",
                "display": "High"
              }
            ]
          }
        ],
        "text": {
          "status": "generated",
          "div": "<div xmlns=\"http://www.w3.org/1999/xhtml\"><table class=\"hl7__eu__lab__report\"><tr><th>Test</th><th>12-May-2021</th><th>Reference&#xA0;Range</th><th>Unit</th></tr><tr><td>Creatinine [Mass/volume] in Serum or Plasma</td><td>2.0</td><td>0.9 - 1.3</td><td>H</td><td>mg/dL</td></tr></table></div>"
        },
        "status": "final",
        "subject": {
          "reference": "urn:uuid:232303f1-64a4-4fdb-8538-9aedb5fcd519",
          "display": "Θεμιστοκλής Λιναρδάκη"
        },
        "effectiveDateTime": "2021-05-12T06:16:00Z",
        "specimen": {
          "reference": "urn:uuid:7c50811b-9b41-4fe4-8ea1-c54a15760879"
        }
      }
    },
    {
      "fullUrl": "urn:uuid:97ccfa87-64f2-4d4d-9a9f-415c341608ca",
      "resource": {
        "resourceType": "Observation",
        "id": "97ccfa87-64f2-4d4d-9a9f-415c341608ca",
        "meta": {
          "profile": [
            "http://hl7.eu/fhir/laboratory/StructureDefinition/Observation-resultslab-eu-lab"
          ]
        },
        "performer": [
          {
            "display": "The Central European Lab"
          }
        ],
        "category": [
          {
            "coding": [
              {
                "system": "http://terminology.hl7.org/CodeSystem/observation-category",
                "code": "laboratory"
              }
            ]
          }
        ],
        "code": {
          "coding": [
            {
              "code": "17861-6",
              "system": "http://loinc.org",
              "display": "Calcium [Mass/volume] in Serum or Plasma"
            }
          ],
          "text": "Calcium [Mass/volume] in Serum or Plasma"
        },
        "valueQuantity": {
          "system": "http://unitsofmeasure.org",
          "value": 9.5,
          "unit": "mg/dL",
          "code": "mg/dL"
        },
        "referenceRange": [
          {
            "low": {
              "value": 8.5,
              "code": "mg/dL",
              "system": "http://unitsofmeasure.org"
            }
          },
          {
            "high": {
              "value": 10.5,
              "code": "mg/dL",
              "system": "http://unitsofmeasure.org"
            }
          }
        ],
        "text": {
          "status": "generated",
          "div": "<div xmlns=\"http://www.w3.org/1999/xhtml\"><table class=\"hl7__eu__lab__report\"><tr><th>Test</th><th>12-May-2021</th><th>Reference&#xA0;Range</th><th>Unit</th></tr><tr><td>Calcium [Mass/volume] in Serum or Plasma</td><td>9.5</td><td>8.5 - 10.5</td><td></td><td>mg/dL</td></tr></table></div>"
        },
        "status": "final",
        "subject": {
          "reference": "urn:uuid:232303f1-64a4-4fdb-8538-9aedb5fcd519",
          "display": "Θεμιστοκλής Λιναρδάκη"
        },
        "effectiveDateTime": "2021-05-12T06:16:00Z",
        "specimen": {
          "reference": "urn:uuid:7c50811b-9b41-4fe4-8ea1-c54a15760879"
        }
      }
    },
    {
      "fullUrl": "urn:uuid:b347030f-4e5a-47bb-83c9-5cd13702635d",
      "resource": {
        "resourceType": "Observation",
        "id": "b347030f-4e5a-47bb-83c9-5cd13702635d",
        "meta": {
          "profile": [
            "http://hl7.eu/fhir/laboratory/StructureDefinition/Observation-resultslab-eu-lab"
          ]
        },
        "performer": [
          {
            "display": "The Central European Lab"
          }
        ],
        "category": [
          {
            "coding": [
              {
                "system": "http://terminology.hl7.org/CodeSystem/observation-category",
                "code": "laboratory"
              }
            ]
          }
        ],
        "code": {
          "coding": [
            {
              "code": "2951-2",
              "system": "http://loinc.org",
              "display": "Sodium [Moles/volume] in Serum or Plasma"
            }
          ],
          "text": "Sodium [Moles/volume] in Serum or Plasma"
        },
        "valueQuantity": {
          "system": "http://unitsofmeasure.org",
          "value": 143.2,
          "unit": "mmol/L",
          "code": "mmol/L"
        },
        "referenceRange": [
          {
            "low": {
              "value": 135,
              "code": "mmol/L",
              "system": "http://unitsofmeasure.org"
            }
          },
          {
            "high": {
              "value": 145,
              "code": "mmol/L",
              "system": "http://unitsofmeasure.org"
            }
          }
        ],
        "text": {
          "status": "generated",
          "div": "<div xmlns=\"http://www.w3.org/1999/xhtml\"><table class=\"hl7__eu__lab__report\"><tr><th>Test</th><th>12-May-2021</th><th>Reference&#xA0;Range</th><th>Unit</th></tr><tr><td>Sodium [Moles/volume] in Serum or Plasma</td><td>143.2</td><td>135 - 145</td><td></td><td>mmol/L</td></tr></table></div>"
        },
        "status": "final",
        "subject": {
          "reference": "urn:uuid:232303f1-64a4-4fdb-8538-9aedb5fcd519",
          "display": "Θεμιστοκλής Λιναρδάκη"
        },
        "effectiveDateTime": "2021-05-12T06:16:00Z",
        "specimen": {
          "reference": "urn:uuid:7c50811b-9b41-4fe4-8ea1-c54a15760879"
        }
      }
    },
    {
      "fullUrl": "urn:uuid:e706c5a8-5fd8-4681-939a-c78352ce9113",
      "resource": {
        "resourceType": "Observation",
        "id": "e706c5a8-5fd8-4681-939a-c78352ce9113",
        "meta": {
          "profile": [
            "http://hl7.eu/fhir/laboratory/StructureDefinition/Observation-resultslab-eu-lab"
          ]
        },
        "performer": [
          {
            "display": "The Central European Lab"
          }
        ],
        "category": [
          {
            "coding": [
              {
                "system": "http://terminology.hl7.org/CodeSystem/observation-category",
                "code": "laboratory"
              }
            ]
          }
        ],
        "code": {
          "coding": [
            {
              "code": "2823-3",
              "system": "http://loinc.org",
              "display": "Potassium [Moles/volume] in Serum or Plasma"
            }
          ],
          "text": "Potassium [Moles/volume] in Serum or Plasma"
        },
        "valueQuantity": {
          "system": "http://unitsofmeasure.org",
          "value": 3.9,
          "unit": "mmol/L",
          "code": "mmol/L"
        },
        "referenceRange": [
          {
            "low": {
              "value": 3.5,
              "code": "mmol/L",
              "system": "http://unitsofmeasure.org"
            }
          },
          {
            "high": {
              "value": 5,
              "code": "mmol/L",
              "system": "http://unitsofmeasure.org"
            }
          }
        ],
        "text": {
          "status": "generated",
          "div": "<div xmlns=\"http://www.w3.org/1999/xhtml\"><table class=\"hl7__eu__lab__report\"><tr><th>Test</th><th>12-May-2021</th><th>Reference&#xA0;Range</th><th>Unit</th></tr><tr><td>Potassium [Moles/volume] in Serum or Plasma</td><td>3.9</td><td>3.5 - 5</td><td></td><td>mmol/L</td></tr></table></div>"
        },
        "status": "final",
        "subject": {
          "reference": "urn:uuid:232303f1-64a4-4fdb-8538-9aedb5fcd519",
          "display": "Θεμιστοκλής Λιναρδάκη"
        },
        "effectiveDateTime": "2021-05-12T06:16:00Z",
        "specimen": {
          "reference": "urn:uuid:7c50811b-9b41-4fe4-8ea1-c54a15760879"
        }
      }
    },
    {
      "fullUrl": "urn:uuid:b5466b18-38ce-40fb-a54e-9922454f9ae6",
      "resource": {
        "resourceType": "Observation",
        "id": "b5466b18-38ce-40fb-a54e-9922454f9ae6",
        "meta": {
          "profile": [
            "http://hl7.eu/fhir/laboratory/StructureDefinition/Observation-resultslab-eu-lab"
          ]
        },
        "performer": [
          {
            "display": "The Central European Lab"
          }
        ],
        "category": [
          {
            "coding": [
              {
                "system": "http://terminology.hl7.org/CodeSystem/observation-category",
                "code": "laboratory"
              }
            ]
          }
        ],
        "code": {
          "coding": [
            {
              "code": "2075-0",
              "system": "http://loinc.org",
              "display": "Chloride [Moles/volume] in Serum or Plasma"
            }
          ],
          "text": "Chloride [Moles/volume] in Serum or Plasma"
        },
        "valueQuantity": {
          "system": "http://unitsofmeasure.org",
          "value": 102.3,
          "unit": "mmol/L",
          "code": "mmol/L"
        },
        "referenceRange": [
          {
            "low": {
              "value": 98,
              "code": "mmol/L",
              "system": "http://unitsofmeasure.org"
            }
          },
          {
            "high": {
              "value": 108,
              "code": "mmol/L",
              "system": "http://unitsofmeasure.org"
            }
          }
        ],
        "text": {
          "status": "generated",
          "div": "<div xmlns=\"http://www.w3.org/1999/xhtml\"><table class=\"hl7__eu__lab__report\"><tr><th>Test</th><th>12-May-2021</th><th>Reference&#xA0;Range</th><th>Unit</th></tr><tr><td>Chloride [Moles/volume] in Serum or Plasma</td><td>102.3</td><td>98 - 108</td><td></td><td>mmol/L</td></tr></table></div>"
        },
        "status": "final",
        "subject": {
          "reference": "urn:uuid:232303f1-64a4-4fdb-8538-9aedb5fcd519",
          "display": "Θεμιστοκλής Λιναρδάκη"
        },
        "effectiveDateTime": "2021-05-12T06:16:00Z",
        "specimen": {
          "reference": "urn:uuid:7c50811b-9b41-4fe4-8ea1-c54a15760879"
        }
      }
    },
    {
      "fullUrl": "urn:uuid:0c4bab12-6f74-476b-a7e0-7c8a23592868",
      "resource": {
        "resourceType": "Observation",
        "id": "0c4bab12-6f74-476b-a7e0-7c8a23592868",
        "meta": {
          "profile": [
            "http://hl7.eu/fhir/laboratory/StructureDefinition/Observation-resultslab-eu-lab"
          ]
        },
        "performer": [
          {
            "display": "The Central European Lab"
          }
        ],
        "category": [
          {
            "coding": [
              {
                "system": "http://terminology.hl7.org/CodeSystem/observation-category",
                "code": "laboratory"
              }
            ]
          }
        ],
        "code": {
          "coding": [
            {
              "code": "2028-9",
              "system": "http://loinc.org",
              "display": "Carbon dioxide, total [Moles/volume] in Serum or Plasma"
            }
          ],
          "text": "Carbon dioxide, total [Moles/volume] in Serum or Plasma"
        },
        "valueQuantity": {
          "system": "http://unitsofmeasure.org",
          "value": 24.4,
          "unit": "mmol/L",
          "code": "mmol/L"
        },
        "referenceRange": [
          {
            "low": {
              "value": 22,
              "code": "mmol/L",
              "system": "http://unitsofmeasure.org"
            }
          },
          {
            "high": {
              "value": 29,
              "code": "mmol/L",
              "system": "http://unitsofmeasure.org"
            }
          }
        ],
        "text": {
          "status": "generated",
          "div": "<div xmlns=\"http://www.w3.org/1999/xhtml\"><table class=\"hl7__eu__lab__report\"><tr><th>Test</th><th>12-May-2021</th><th>Reference&#xA0;Range</th><th>Unit</th></tr><tr><td>Carbon dioxide, total [Moles/volume] in Serum or Plasma</td><td>24.4</td><td>22 - 29</td><td></td><td>mmol/L</td></tr></table></div>"
        },
        "status": "final",
        "subject": {
          "reference": "urn:uuid:232303f1-64a4-4fdb-8538-9aedb5fcd519",
          "display": "Θεμιστοκλής Λιναρδάκη"
        },
        "effectiveDateTime": "2021-05-12T06:16:00Z",
        "specimen": {
          "reference": "urn:uuid:7c50811b-9b41-4fe4-8ea1-c54a15760879"
        }
      }
    },
    {
      "fullUrl": "urn:uuid:e79b5ef9-8dff-4c80-8dc8-4ed820e78650",
      "resource": {
        "resourceType": "Observation",
        "id": "e79b5ef9-8dff-4c80-8dc8-4ed820e78650",
        "meta": {
          "profile": [
            "http://hl7.eu/fhir/laboratory/StructureDefinition/Observation-resultslab-eu-lab"
          ]
        },
        "performer": [
          {
            "display": "The Central European Lab"
          }
        ],
        "category": [
          {
            "coding": [
              {
                "system": "http://terminology.hl7.org/CodeSystem/observation-category",
                "code": "laboratory"
              }
            ]
          }
        ],
        "code": {
          "coding": [
            {
              "code": "5767-9",
              "system": "http://loinc.org",
              "display": "Appearance of Urine"
            }
          ],
          "text": "Appearance of Urine"
        },
        "text": {
          "status": "generated",
          "div": "<div xmlns=\"http://www.w3.org/1999/xhtml\"><table class=\"hl7__eu__lab__report\"><tr><th>Test</th><th>12-May-2021</th><th>Reference&#xA0;Range</th><th>Unit</th></tr><tr><td>Appearance of Urine</td></tr></table></div>"
        },
        "status": "final",
        "subject": {
          "reference": "urn:uuid:232303f1-64a4-4fdb-8538-9aedb5fcd519",
          "display": "Θεμιστοκλής Λιναρδάκη"
        },
        "effectiveDateTime": "2021-05-12T06:16:00Z",
        "specimen": {
          "reference": "urn:uuid:17034a5d-0ef7-4df5-9b67-eaed89b346ce"
        }
      }
    },
    {
      "fullUrl": "urn:uuid:3513f3c3-7ea7-4042-b5c3-3a6879b4848c",
      "resource": {
        "resourceType": "Observation",
        "id": "3513f3c3-7ea7-4042-b5c3-3a6879b4848c",
        "meta": {
          "profile": [
            "http://hl7.eu/fhir/laboratory/StructureDefinition/Observation-resultslab-eu-lab"
          ]
        },
        "performer": [
          {
            "display": "The Central European Lab"
          }
        ],
        "category": [
          {
            "coding": [
              {
                "system": "http://terminology.hl7.org/CodeSystem/observation-category",
                "code": "laboratory"
              }
            ]
          }
        ],
        "code": {
          "coding": [
            {
              "code": "34533-0",
              "system": "http://loinc.org",
              "display": "Odor of Urine"
            }
          ],
          "text": "Odor of Urine"
        },
        "text": {
          "status": "generated",
          "div": "<div xmlns=\"http://www.w3.org/1999/xhtml\"><table class=\"hl7__eu__lab__report\"><tr><th>Test</th><th>12-May-2021</th><th>Reference&#xA0;Range</th><th>Unit</th></tr><tr><td>Odor of Urine</td></tr></table></div>"
        },
        "status": "final",
        "subject": {
          "reference": "urn:uuid:232303f1-64a4-4fdb-8538-9aedb5fcd519",
          "display": "Θεμιστοκλής Λιναρδάκη"
        },
        "effectiveDateTime": "2021-05-12T06:16:00Z",
        "specimen": {
          "reference": "urn:uuid:17034a5d-0ef7-4df5-9b67-eaed89b346ce"
        }
      }
    },
    {
      "fullUrl": "urn:uuid:2f552981-32ab-41e1-98b9-f45a03c26c0a",
      "resource": {
        "resourceType": "Observation",
        "id": "2f552981-32ab-41e1-98b9-f45a03c26c0a",
        "meta": {
          "profile": [
            "http://hl7.eu/fhir/laboratory/StructureDefinition/Observation-resultslab-eu-lab"
          ]
        },
        "performer": [
          {
            "display": "The Central European Lab"
          }
        ],
        "category": [
          {
            "coding": [
              {
                "system": "http://terminology.hl7.org/CodeSystem/observation-category",
                "code": "laboratory"
              }
            ]
          }
        ],
        "code": {
          "coding": [
            {
              "code": "32167-9",
              "system": "http://loinc.org",
              "display": "Clarity of Urine"
            }
          ],
          "text": "Clarity of Urine"
        },
        "text": {
          "status": "generated",
          "div": "<div xmlns=\"http://www.w3.org/1999/xhtml\"><table class=\"hl7__eu__lab__report\"><tr><th>Test</th><th>12-May-2021</th><th>Reference&#xA0;Range</th><th>Unit</th></tr><tr><td>Clarity of Urine</td></tr></table></div>"
        },
        "status": "final",
        "subject": {
          "reference": "urn:uuid:232303f1-64a4-4fdb-8538-9aedb5fcd519",
          "display": "Θεμιστοκλής Λιναρδάκη"
        },
        "effectiveDateTime": "2021-05-12T06:16:00Z",
        "specimen": {
          "reference": "urn:uuid:17034a5d-0ef7-4df5-9b67-eaed89b346ce"
        }
      }
    },
    {
      "fullUrl": "urn:uuid:55cb3e81-17f0-4c11-a091-8563785a8fe1",
      "resource": {
        "resourceType": "Observation",
        "id": "55cb3e81-17f0-4c11-a091-8563785a8fe1",
        "meta": {
          "profile": [
            "http://hl7.eu/fhir/laboratory/StructureDefinition/Observation-resultslab-eu-lab"
          ]
        },
        "performer": [
          {
            "display": "The Central European Lab"
          }
        ],
        "category": [
          {
            "coding": [
              {
                "system": "http://terminology.hl7.org/CodeSystem/observation-category",
                "code": "laboratory"
              }
            ]
          }
        ],
        "code": {
          "coding": [
            {
              "code": "5778-6",
              "system": "http://loinc.org",
              "display": "Color of Urine"
            }
          ],
          "text": "Color of Urine"
        },
        "text": {
          "status": "generated",
          "div": "<div xmlns=\"http://www.w3.org/1999/xhtml\"><table class=\"hl7__eu__lab__report\"><tr><th>Test</th><th>12-May-2021</th><th>Reference&#xA0;Range</th><th>Unit</th></tr><tr><td>Color of Urine</td></tr></table></div>"
        },
        "status": "final",
        "subject": {
          "reference": "urn:uuid:232303f1-64a4-4fdb-8538-9aedb5fcd519",
          "display": "Θεμιστοκλής Λιναρδάκη"
        },
        "effectiveDateTime": "2021-05-12T06:16:00Z",
        "specimen": {
          "reference": "urn:uuid:17034a5d-0ef7-4df5-9b67-eaed89b346ce"
        }
      }
    },
    {
      "fullUrl": "urn:uuid:213554a2-2945-4904-86b2-fef6c1c11536",
      "resource": {
        "resourceType": "Observation",
        "id": "213554a2-2945-4904-86b2-fef6c1c11536",
        "meta": {
          "profile": [
            "http://hl7.eu/fhir/laboratory/StructureDefinition/Observation-resultslab-eu-lab"
          ]
        },
        "performer": [
          {
            "display": "The Central European Lab"
          }
        ],
        "category": [
          {
            "coding": [
              {
                "system": "http://terminology.hl7.org/CodeSystem/observation-category",
                "code": "laboratory"
              }
            ]
          }
        ],
        "code": {
          "coding": [
            {
              "code": "5792-7",
              "system": "http://loinc.org",
              "display": "Glucose [Mass/volume] in Urine by Test strip"
            }
          ],
          "text": "Glucose [Mass/volume] in Urine by Test strip"
        },
        "valueQuantity": {
          "system": "http://unitsofmeasure.org",
          "value": 1.9,
          "unit": "mg/dL",
          "code": "mg/dL"
        },
        "referenceRange": [
          {
            "low": {
              "value": 0,
              "code": "mg/dL",
              "system": "http://unitsofmeasure.org"
            }
          },
          {
            "high": {
              "value": 0.8,
              "code": "mg/dL",
              "system": "http://unitsofmeasure.org"
            }
          }
        ],
        "interpretation": [
          {
            "coding": [
              {
                "code": "H",
                "system": "http://terminology.hl7.org/CodeSystem/v3-ObservationInterpretation",
                "display": "High"
              }
            ]
          }
        ],
        "text": {
          "status": "generated",
          "div": "<div xmlns=\"http://www.w3.org/1999/xhtml\"><table class=\"hl7__eu__lab__report\"><tr><th>Test</th><th>12-May-2021</th><th>Reference&#xA0;Range</th><th>Unit</th></tr><tr><td>Glucose [Mass/volume] in Urine by Test strip</td><td>1.9</td><td>0 - 0.8</td><td>H</td><td>mg/dL</td></tr></table></div>"
        },
        "status": "final",
        "subject": {
          "reference": "urn:uuid:232303f1-64a4-4fdb-8538-9aedb5fcd519",
          "display": "Θεμιστοκλής Λιναρδάκη"
        },
        "effectiveDateTime": "2021-05-12T06:16:00Z",
        "specimen": {
          "reference": "urn:uuid:17034a5d-0ef7-4df5-9b67-eaed89b346ce"
        }
      }
    },
    {
      "fullUrl": "urn:uuid:1dbd6412-e76f-406b-92e6-affc0d77ac56",
      "resource": {
        "resourceType": "Observation",
        "id": "1dbd6412-e76f-406b-92e6-affc0d77ac56",
        "meta": {
          "profile": [
            "http://hl7.eu/fhir/laboratory/StructureDefinition/Observation-resultslab-eu-lab"
          ]
        },
        "performer": [
          {
            "display": "The Central European Lab"
          }
        ],
        "category": [
          {
            "coding": [
              {
                "system": "http://terminology.hl7.org/CodeSystem/observation-category",
                "code": "laboratory"
              }
            ]
          }
        ],
        "code": {
          "coding": [
            {
              "code": "25428-4",
              "system": "http://loinc.org",
              "display": "Glucose [Presence] in Urine by Test strip"
            }
          ],
          "text": "Glucose [Presence] in Urine by Test strip"
        },
        "text": {
          "status": "generated",
          "div": "<div xmlns=\"http://www.w3.org/1999/xhtml\"><table class=\"hl7__eu__lab__report\"><tr><th>Test</th><th>12-May-2021</th><th>Reference&#xA0;Range</th><th>Unit</th></tr><tr><td>Glucose [Presence] in Urine by Test strip</td></tr></table></div>"
        },
        "status": "final",
        "subject": {
          "reference": "urn:uuid:232303f1-64a4-4fdb-8538-9aedb5fcd519",
          "display": "Θεμιστοκλής Λιναρδάκη"
        },
        "effectiveDateTime": "2021-05-12T06:16:00Z",
        "specimen": {
          "reference": "urn:uuid:17034a5d-0ef7-4df5-9b67-eaed89b346ce"
        }
      }
    },
    {
      "fullUrl": "urn:uuid:be6fc9d1-3f4c-4b0c-9de8-196c6c0bd637",
      "resource": {
        "resourceType": "Observation",
        "id": "be6fc9d1-3f4c-4b0c-9de8-196c6c0bd637",
        "meta": {
          "profile": [
            "http://hl7.eu/fhir/laboratory/StructureDefinition/Observation-resultslab-eu-lab"
          ]
        },
        "performer": [
          {
            "display": "The Central European Lab"
          }
        ],
        "category": [
          {
            "coding": [
              {
                "system": "http://terminology.hl7.org/CodeSystem/observation-category",
                "code": "laboratory"
              }
            ]
          }
        ],
        "code": {
          "coding": [
            {
              "code": "20505-4",
              "system": "http://loinc.org",
              "display": "Bilirubin.total [Mass/volume] in Urine by Test strip"
            }
          ],
          "text": "Bilirubin.total [Mass/volume] in Urine by Test strip"
        },
        "valueQuantity": {
          "system": "http://unitsofmeasure.org",
          "value": 1.3,
          "unit": "mg/dL",
          "code": "mg/dL"
        },
        "referenceRange": [
          {
            "low": {
              "value": 0.2,
              "code": "mg/dL",
              "system": "http://unitsofmeasure.org"
            }
          },
          {
            "high": {
              "value": 1,
              "code": "mg/dL",
              "system": "http://unitsofmeasure.org"
            }
          }
        ],
        "interpretation": [
          {
            "coding": [
              {
                "code": "H",
                "system": "http://terminology.hl7.org/CodeSystem/v3-ObservationInterpretation",
                "display": "High"
              }
            ]
          }
        ],
        "text": {
          "status": "generated",
          "div": "<div xmlns=\"http://www.w3.org/1999/xhtml\"><table class=\"hl7__eu__lab__report\"><tr><th>Test</th><th>12-May-2021</th><th>Reference&#xA0;Range</th><th>Unit</th></tr><tr><td>Bilirubin.total [Mass/volume] in Urine by Test strip</td><td>1.3</td><td>0.2 - 1</td><td>H</td><td>mg/dL</td></tr></table></div>"
        },
        "status": "final",
        "subject": {
          "reference": "urn:uuid:232303f1-64a4-4fdb-8538-9aedb5fcd519",
          "display": "Θεμιστοκλής Λιναρδάκη"
        },
        "effectiveDateTime": "2021-05-12T06:16:00Z",
        "specimen": {
          "reference": "urn:uuid:17034a5d-0ef7-4df5-9b67-eaed89b346ce"
        }
      }
    },
    {
      "fullUrl": "urn:uuid:52945381-95c0-4bfd-a4db-5e8edbf37c25",
      "resource": {
        "resourceType": "Observation",
        "id": "52945381-95c0-4bfd-a4db-5e8edbf37c25",
        "meta": {
          "profile": [
            "http://hl7.eu/fhir/laboratory/StructureDefinition/Observation-resultslab-eu-lab"
          ]
        },
        "performer": [
          {
            "display": "The Central European Lab"
          }
        ],
        "category": [
          {
            "coding": [
              {
                "system": "http://terminology.hl7.org/CodeSystem/observation-category",
                "code": "laboratory"
              }
            ]
          }
        ],
        "code": {
          "coding": [
            {
              "code": "5770-3",
              "system": "http://loinc.org",
              "display": "Bilirubin.total [Presence] in Urine by Test strip"
            }
          ],
          "text": "Bilirubin.total [Presence] in Urine by Test strip"
        },
        "text": {
          "status": "generated",
          "div": "<div xmlns=\"http://www.w3.org/1999/xhtml\"><table class=\"hl7__eu__lab__report\"><tr><th>Test</th><th>12-May-2021</th><th>Reference&#xA0;Range</th><th>Unit</th></tr><tr><td>Bilirubin.total [Presence] in Urine by Test strip</td></tr></table></div>"
        },
        "status": "final",
        "subject": {
          "reference": "urn:uuid:232303f1-64a4-4fdb-8538-9aedb5fcd519",
          "display": "Θεμιστοκλής Λιναρδάκη"
        },
        "effectiveDateTime": "2021-05-12T06:16:00Z",
        "specimen": {
          "reference": "urn:uuid:17034a5d-0ef7-4df5-9b67-eaed89b346ce"
        }
      }
    },
    {
      "fullUrl": "urn:uuid:e181ba5f-5f5b-4bf2-a340-b35ba5354b93",
      "resource": {
        "resourceType": "Observation",
        "id": "e181ba5f-5f5b-4bf2-a340-b35ba5354b93",
        "meta": {
          "profile": [
            "http://hl7.eu/fhir/laboratory/StructureDefinition/Observation-resultslab-eu-lab"
          ]
        },
        "performer": [
          {
            "display": "The Central European Lab"
          }
        ],
        "category": [
          {
            "coding": [
              {
                "system": "http://terminology.hl7.org/CodeSystem/observation-category",
                "code": "laboratory"
              }
            ]
          }
        ],
        "code": {
          "coding": [
            {
              "code": "5797-6",
              "system": "http://loinc.org",
              "display": "Ketones [Mass/volume] in Urine by Test strip"
            }
          ],
          "text": "Ketones [Mass/volume] in Urine by Test strip"
        },
        "valueQuantity": {
          "system": "http://unitsofmeasure.org",
          "value": 15.4,
          "unit": "mg/dL",
          "code": "mg/dL"
        },
        "referenceRange": [
          {
            "low": {
              "value": 0,
              "code": "mg/dL",
              "system": "http://unitsofmeasure.org"
            }
          },
          {
            "high": {
              "value": 5,
              "code": "mg/dL",
              "system": "http://unitsofmeasure.org"
            }
          }
        ],
        "interpretation": [
          {
            "coding": [
              {
                "code": "H",
                "system": "http://terminology.hl7.org/CodeSystem/v3-ObservationInterpretation",
                "display": "High"
              }
            ]
          }
        ],
        "text": {
          "status": "generated",
          "div": "<div xmlns=\"http://www.w3.org/1999/xhtml\"><table class=\"hl7__eu__lab__report\"><tr><th>Test</th><th>12-May-2021</th><th>Reference&#xA0;Range</th><th>Unit</th></tr><tr><td>Ketones [Mass/volume] in Urine by Test strip</td><td>15.4</td><td>0 - 5</td><td>H</td><td>mg/dL</td></tr></table></div>"
        },
        "status": "final",
        "subject": {
          "reference": "urn:uuid:232303f1-64a4-4fdb-8538-9aedb5fcd519",
          "display": "Θεμιστοκλής Λιναρδάκη"
        },
        "effectiveDateTime": "2021-05-12T06:16:00Z",
        "specimen": {
          "reference": "urn:uuid:17034a5d-0ef7-4df5-9b67-eaed89b346ce"
        }
      }
    },
    {
      "fullUrl": "urn:uuid:51bbcc38-1739-468a-9e7c-7208178f7585",
      "resource": {
        "resourceType": "Observation",
        "id": "51bbcc38-1739-468a-9e7c-7208178f7585",
        "meta": {
          "profile": [
            "http://hl7.eu/fhir/laboratory/StructureDefinition/Observation-resultslab-eu-lab"
          ]
        },
        "performer": [
          {
            "display": "The Central European Lab"
          }
        ],
        "category": [
          {
            "coding": [
              {
                "system": "http://terminology.hl7.org/CodeSystem/observation-category",
                "code": "laboratory"
              }
            ]
          }
        ],
        "code": {
          "coding": [
            {
              "code": "2514-8",
              "system": "http://loinc.org",
              "display": "Ketones [Presence] in Urine by Test strip"
            }
          ],
          "text": "Ketones [Presence] in Urine by Test strip"
        },
        "text": {
          "status": "generated",
          "div": "<div xmlns=\"http://www.w3.org/1999/xhtml\"><table class=\"hl7__eu__lab__report\"><tr><th>Test</th><th>12-May-2021</th><th>Reference&#xA0;Range</th><th>Unit</th></tr><tr><td>Ketones [Presence] in Urine by Test strip</td></tr></table></div>"
        },
        "status": "final",
        "subject": {
          "reference": "urn:uuid:232303f1-64a4-4fdb-8538-9aedb5fcd519",
          "display": "Θεμιστοκλής Λιναρδάκη"
        },
        "effectiveDateTime": "2021-05-12T06:16:00Z",
        "specimen": {
          "reference": "urn:uuid:17034a5d-0ef7-4df5-9b67-eaed89b346ce"
        }
      }
    },
    {
      "fullUrl": "urn:uuid:656e7208-c788-44c5-a25f-15a71e828326",
      "resource": {
        "resourceType": "Observation",
        "id": "656e7208-c788-44c5-a25f-15a71e828326",
        "meta": {
          "profile": [
            "http://hl7.eu/fhir/laboratory/StructureDefinition/Observation-resultslab-eu-lab"
          ]
        },
        "performer": [
          {
            "display": "The Central European Lab"
          }
        ],
        "category": [
          {
            "coding": [
              {
                "system": "http://terminology.hl7.org/CodeSystem/observation-category",
                "code": "laboratory"
              }
            ]
          }
        ],
        "code": {
          "coding": [
            {
              "code": "5811-5",
              "system": "http://loinc.org",
              "display": "Specific gravity of Urine by Test strip"
            }
          ],
          "text": "Specific gravity of Urine by Test strip"
        },
        "valueQuantity": {
          "system": "http://unitsofmeasure.org",
          "value": 1,
          "unit": "{nominal}",
          "code": "{nominal}"
        },
        "referenceRange": [
          {
            "low": {
              "value": 1.005,
              "code": "g/mL",
              "system": "http://unitsofmeasure.org"
            }
          },
          {
            "high": {
              "value": 1.03,
              "code": "g/mL",
              "system": "http://unitsofmeasure.org"
            }
          }
        ],
        "interpretation": [
          {
            "coding": [
              {
                "code": "L",
                "system": "http://terminology.hl7.org/CodeSystem/v3-ObservationInterpretation",
                "display": "Low"
              }
            ]
          }
        ],
        "text": {
          "status": "generated",
          "div": "<div xmlns=\"http://www.w3.org/1999/xhtml\"><table class=\"hl7__eu__lab__report\"><tr><th>Test</th><th>12-May-2021</th><th>Reference&#xA0;Range</th><th>Unit</th></tr><tr><td>Specific gravity of Urine by Test strip</td><td>1.0</td><td>1.005 - 1.03</td><td>L</td><td>{nominal}</td></tr></table></div>"
        },
        "status": "final",
        "subject": {
          "reference": "urn:uuid:232303f1-64a4-4fdb-8538-9aedb5fcd519",
          "display": "Θεμιστοκλής Λιναρδάκη"
        },
        "effectiveDateTime": "2021-05-12T06:16:00Z",
        "specimen": {
          "reference": "urn:uuid:17034a5d-0ef7-4df5-9b67-eaed89b346ce"
        }
      }
    },
    {
      "fullUrl": "urn:uuid:24058149-83b4-45bb-9312-0de92868928d",
      "resource": {
        "resourceType": "Observation",
        "id": "24058149-83b4-45bb-9312-0de92868928d",
        "meta": {
          "profile": [
            "http://hl7.eu/fhir/laboratory/StructureDefinition/Observation-resultslab-eu-lab"
          ]
        },
        "performer": [
          {
            "display": "The Central European Lab"
          }
        ],
        "category": [
          {
            "coding": [
              {
                "system": "http://terminology.hl7.org/CodeSystem/observation-category",
                "code": "laboratory"
              }
            ]
          }
        ],
        "code": {
          "coding": [
            {
              "code": "5803-2",
              "system": "http://loinc.org",
              "display": "pH of Urine by Test strip"
            }
          ],
          "text": "pH of Urine by Test strip"
        },
        "valueQuantity": {
          "system": "http://unitsofmeasure.org",
          "value": 6.6,
          "unit": "pH",
          "code": "pH"
        },
        "referenceRange": [
          {
            "low": {
              "value": 4.6,
              "code": "pH",
              "system": "http://unitsofmeasure.org"
            }
          },
          {
            "high": {
              "value": 7,
              "code": "pH",
              "system": "http://unitsofmeasure.org"
            }
          }
        ],
        "text": {
          "status": "generated",
          "div": "<div xmlns=\"http://www.w3.org/1999/xhtml\"><table class=\"hl7__eu__lab__report\"><tr><th>Test</th><th>12-May-2021</th><th>Reference&#xA0;Range</th><th>Unit</th></tr><tr><td>pH of Urine by Test strip</td><td>6.6</td><td>4.6 - 7</td><td></td><td>pH</td></tr></table></div>"
        },
        "status": "final",
        "subject": {
          "reference": "urn:uuid:232303f1-64a4-4fdb-8538-9aedb5fcd519",
          "display": "Θεμιστοκλής Λιναρδάκη"
        },
        "effectiveDateTime": "2021-05-12T06:16:00Z",
        "specimen": {
          "reference": "urn:uuid:17034a5d-0ef7-4df5-9b67-eaed89b346ce"
        }
      }
    },
    {
      "fullUrl": "urn:uuid:57f562a6-7c83-4134-b530-ef7a2c851e3c",
      "resource": {
        "resourceType": "Observation",
        "id": "57f562a6-7c83-4134-b530-ef7a2c851e3c",
        "meta": {
          "profile": [
            "http://hl7.eu/fhir/laboratory/StructureDefinition/Observation-resultslab-eu-lab"
          ]
        },
        "performer": [
          {
            "display": "The Central European Lab"
          }
        ],
        "category": [
          {
            "coding": [
              {
                "system": "http://terminology.hl7.org/CodeSystem/observation-category",
                "code": "laboratory"
              }
            ]
          }
        ],
        "code": {
          "coding": [
            {
              "code": "5804-0",
              "system": "http://loinc.org",
              "display": "Protein [Mass/volume] in Urine by Test strip"
            }
          ],
          "text": "Protein [Mass/volume] in Urine by Test strip"
        },
        "valueQuantity": {
          "system": "http://unitsofmeasure.org",
          "value": 347.1,
          "unit": "mg/dL",
          "code": "mg/dL"
        },
        "referenceRange": [
          {
            "low": {
              "value": 0,
              "code": "mg/dL",
              "system": "http://unitsofmeasure.org"
            }
          },
          {
            "high": {
              "value": 150,
              "code": "mg/dL",
              "system": "http://unitsofmeasure.org"
            }
          }
        ],
        "interpretation": [
          {
            "coding": [
              {
                "code": "H",
                "system": "http://terminology.hl7.org/CodeSystem/v3-ObservationInterpretation",
                "display": "High"
              }
            ]
          }
        ],
        "text": {
          "status": "generated",
          "div": "<div xmlns=\"http://www.w3.org/1999/xhtml\"><table class=\"hl7__eu__lab__report\"><tr><th>Test</th><th>12-May-2021</th><th>Reference&#xA0;Range</th><th>Unit</th></tr><tr><td>Protein [Mass/volume] in Urine by Test strip</td><td>347.1</td><td>0 - 150</td><td>H</td><td>mg/dL</td></tr></table></div>"
        },
        "status": "final",
        "subject": {
          "reference": "urn:uuid:232303f1-64a4-4fdb-8538-9aedb5fcd519",
          "display": "Θεμιστοκλής Λιναρδάκη"
        },
        "effectiveDateTime": "2021-05-12T06:16:00Z",
        "specimen": {
          "reference": "urn:uuid:17034a5d-0ef7-4df5-9b67-eaed89b346ce"
        }
      }
    },
    {
      "fullUrl": "urn:uuid:4e1ddf3d-fe2a-4f47-908a-86f8151b1e18",
      "resource": {
        "resourceType": "Observation",
        "id": "4e1ddf3d-fe2a-4f47-908a-86f8151b1e18",
        "meta": {
          "profile": [
            "http://hl7.eu/fhir/laboratory/StructureDefinition/Observation-resultslab-eu-lab"
          ]
        },
        "performer": [
          {
            "display": "The Central European Lab"
          }
        ],
        "category": [
          {
            "coding": [
              {
                "system": "http://terminology.hl7.org/CodeSystem/observation-category",
                "code": "laboratory"
              }
            ]
          }
        ],
        "code": {
          "coding": [
            {
              "code": "20454-5",
              "system": "http://loinc.org",
              "display": "Protein [Presence] in Urine by Test strip"
            }
          ],
          "text": "Protein [Presence] in Urine by Test strip"
        },
        "text": {
          "status": "generated",
          "div": "<div xmlns=\"http://www.w3.org/1999/xhtml\"><table class=\"hl7__eu__lab__report\"><tr><th>Test</th><th>12-May-2021</th><th>Reference&#xA0;Range</th><th>Unit</th></tr><tr><td>Protein [Presence] in Urine by Test strip</td></tr></table></div>"
        },
        "status": "final",
        "subject": {
          "reference": "urn:uuid:232303f1-64a4-4fdb-8538-9aedb5fcd519",
          "display": "Θεμιστοκλής Λιναρδάκη"
        },
        "effectiveDateTime": "2021-05-12T06:16:00Z",
        "specimen": {
          "reference": "urn:uuid:17034a5d-0ef7-4df5-9b67-eaed89b346ce"
        }
      }
    },
    {
      "fullUrl": "urn:uuid:033e8823-3ae3-45fe-8ed0-3dc9748f88d8",
      "resource": {
        "resourceType": "Observation",
        "id": "033e8823-3ae3-45fe-8ed0-3dc9748f88d8",
        "meta": {
          "profile": [
            "http://hl7.eu/fhir/laboratory/StructureDefinition/Observation-resultslab-eu-lab"
          ]
        },
        "performer": [
          {
            "display": "The Central European Lab"
          }
        ],
        "category": [
          {
            "coding": [
              {
                "system": "http://terminology.hl7.org/CodeSystem/observation-category",
                "code": "laboratory"
              }
            ]
          }
        ],
        "code": {
          "coding": [
            {
              "code": "5802-4",
              "system": "http://loinc.org",
              "display": "Nitrite [Presence] in Urine by Test strip"
            }
          ],
          "text": "Nitrite [Presence] in Urine by Test strip"
        },
        "text": {
          "status": "generated",
          "div": "<div xmlns=\"http://www.w3.org/1999/xhtml\"><table class=\"hl7__eu__lab__report\"><tr><th>Test</th><th>12-May-2021</th><th>Reference&#xA0;Range</th><th>Unit</th></tr><tr><td>Nitrite [Presence] in Urine by Test strip</td></tr></table></div>"
        },
        "status": "final",
        "subject": {
          "reference": "urn:uuid:232303f1-64a4-4fdb-8538-9aedb5fcd519",
          "display": "Θεμιστοκλής Λιναρδάκη"
        },
        "effectiveDateTime": "2021-05-12T06:16:00Z",
        "specimen": {
          "reference": "urn:uuid:17034a5d-0ef7-4df5-9b67-eaed89b346ce"
        }
      }
    },
    {
      "fullUrl": "urn:uuid:5d06995f-57db-45ab-9340-8cbeb75fe800",
      "resource": {
        "resourceType": "Observation",
        "id": "5d06995f-57db-45ab-9340-8cbeb75fe800",
        "meta": {
          "profile": [
            "http://hl7.eu/fhir/laboratory/StructureDefinition/Observation-resultslab-eu-lab"
          ]
        },
        "performer": [
          {
            "display": "The Central European Lab"
          }
        ],
        "category": [
          {
            "coding": [
              {
                "system": "http://terminology.hl7.org/CodeSystem/observation-category",
                "code": "laboratory"
              }
            ]
          }
        ],
        "code": {
          "coding": [
            {
              "code": "5794-3",
              "system": "http://loinc.org",
              "display": "Hemoglobin [Presence] in Urine by Test strip"
            }
          ],
          "text": "Hemoglobin [Presence] in Urine by Test strip"
        },
        "text": {
          "status": "generated",
          "div": "<div xmlns=\"http://www.w3.org/1999/xhtml\"><table class=\"hl7__eu__lab__report\"><tr><th>Test</th><th>12-May-2021</th><th>Reference&#xA0;Range</th><th>Unit</th></tr><tr><td>Hemoglobin [Presence] in Urine by Test strip</td></tr></table></div>"
        },
        "status": "final",
        "subject": {
          "reference": "urn:uuid:232303f1-64a4-4fdb-8538-9aedb5fcd519",
          "display": "Θεμιστοκλής Λιναρδάκη"
        },
        "effectiveDateTime": "2021-05-12T06:16:00Z",
        "specimen": {
          "reference": "urn:uuid:17034a5d-0ef7-4df5-9b67-eaed89b346ce"
        }
      }
    },
    {
      "fullUrl": "urn:uuid:4c59399b-efda-4e18-88d2-237b00a0fd23",
      "resource": {
        "resourceType": "Observation",
        "id": "4c59399b-efda-4e18-88d2-237b00a0fd23",
        "meta": {
          "profile": [
            "http://hl7.eu/fhir/laboratory/StructureDefinition/Observation-resultslab-eu-lab"
          ]
        },
        "performer": [
          {
            "display": "The Central European Lab"
          }
        ],
        "category": [
          {
            "coding": [
              {
                "system": "http://terminology.hl7.org/CodeSystem/observation-category",
                "code": "laboratory"
              }
            ]
          }
        ],
        "code": {
          "coding": [
            {
              "code": "5799-2",
              "system": "http://loinc.org",
              "display": "Leukocyte esterase [Presence] in Urine by Test strip"
            }
          ],
          "text": "Leukocyte esterase [Presence] in Urine by Test strip"
        },
        "text": {
          "status": "generated",
          "div": "<div xmlns=\"http://www.w3.org/1999/xhtml\"><table class=\"hl7__eu__lab__report\"><tr><th>Test</th><th>12-May-2021</th><th>Reference&#xA0;Range</th><th>Unit</th></tr><tr><td>Leukocyte esterase [Presence] in Urine by Test strip</td></tr></table></div>"
        },
        "status": "final",
        "subject": {
          "reference": "urn:uuid:232303f1-64a4-4fdb-8538-9aedb5fcd519",
          "display": "Θεμιστοκλής Λιναρδάκη"
        },
        "effectiveDateTime": "2021-05-12T06:16:00Z",
        "specimen": {
          "reference": "urn:uuid:17034a5d-0ef7-4df5-9b67-eaed89b346ce"
        }
      }
    },
    {
      "fullUrl": "urn:uuid:7a55fda1-7bd1-49d8-8f2d-d02d7480785b",
      "resource": {
        "resourceType": "Observation",
        "id": "7a55fda1-7bd1-49d8-8f2d-d02d7480785b",
        "meta": {
          "profile": [
            "http://hl7.eu/fhir/laboratory/StructureDefinition/Observation-resultslab-eu-lab"
          ]
        },
        "performer": [
          {
            "display": "The Central European Lab"
          }
        ],
        "category": [
          {
            "coding": [
              {
                "system": "http://terminology.hl7.org/CodeSystem/observation-category",
                "code": "laboratory"
              }
            ]
          }
        ],
        "code": {
          "coding": [
            {
              "code": "4548-4",
              "system": "http://loinc.org",
              "display": "Hemoglobin A1c/Hemoglobin.total in Blood"
            }
          ],
          "text": "Hemoglobin A1c/Hemoglobin.total in Blood"
        },
        "valueQuantity": {
          "system": "http://unitsofmeasure.org",
          "value": 2.9,
          "unit": "%",
          "code": "%"
        },
        "referenceRange": [
          {
            "low": {
              "value": 4.3,
              "code": "%",
              "system": "http://unitsofmeasure.org"
            }
          },
          {
            "high": {
              "value": 6.4,
              "code": "%",
              "system": "http://unitsofmeasure.org"
            }
          }
        ],
        "interpretation": [
          {
            "coding": [
              {
                "code": "L",
                "system": "http://terminology.hl7.org/CodeSystem/v3-ObservationInterpretation",
                "display": "Low"
              }
            ]
          }
        ],
        "text": {
          "status": "generated",
          "div": "<div xmlns=\"http://www.w3.org/1999/xhtml\"><table class=\"hl7__eu__lab__report\"><tr><th>Test</th><th>12-May-2021</th><th>Reference&#xA0;Range</th><th>Unit</th></tr><tr><td>Hemoglobin A1c/Hemoglobin.total in Blood</td><td>2.9</td><td>4.3 - 6.4</td><td>L</td><td>%</td></tr></table></div>"
        },
        "status": "final",
        "subject": {
          "reference": "urn:uuid:232303f1-64a4-4fdb-8538-9aedb5fcd519",
          "display": "Θεμιστοκλής Λιναρδάκη"
        },
        "effectiveDateTime": "2021-05-12T06:16:00Z",
        "specimen": {
          "reference": "urn:uuid:626f5d49-8243-4229-adaa-d3ede8227a76"
        }
      }
    },
    {
      "fullUrl": "urn:uuid:2193517d-982c-416c-9ac9-0f77fed9e64b",
      "resource": {
        "resourceType": "Observation",
        "id": "2193517d-982c-416c-9ac9-0f77fed9e64b",
        "meta": {
          "profile": [
            "http://hl7.eu/fhir/laboratory/StructureDefinition/Observation-resultslab-eu-lab"
          ]
        },
        "performer": [
          {
            "display": "The Central European Lab"
          }
        ],
        "category": [
          {
            "coding": [
              {
                "system": "http://terminology.hl7.org/CodeSystem/observation-category",
                "code": "laboratory"
              }
            ]
          }
        ],
        "code": {
          "coding": [
            {
              "code": "2339-0",
              "system": "http://loinc.org",
              "display": "Glucose [Mass/volume] in Blood"
            }
          ],
          "text": "Glucose [Mass/volume] in Blood"
        },
        "valueQuantity": {
          "system": "http://unitsofmeasure.org",
          "value": 93.8,
          "unit": "mg/dL",
          "code": "mg/dL"
        },
        "referenceRange": [
          {
            "low": {
              "value": 70,
              "code": "mg/dL",
              "system": "http://unitsofmeasure.org"
            }
          },
          {
            "high": {
              "value": 140,
              "code": "mg/dL",
              "system": "http://unitsofmeasure.org"
            }
          }
        ],
        "text": {
          "status": "generated",
          "div": "<div xmlns=\"http://www.w3.org/1999/xhtml\"><table class=\"hl7__eu__lab__report\"><tr><th>Test</th><th>12-May-2021</th><th>Reference&#xA0;Range</th><th>Unit</th></tr><tr><td>Glucose [Mass/volume] in Blood</td><td>93.8</td><td>70 - 140</td><td></td><td>mg/dL</td></tr></table></div>"
        },
        "status": "final",
        "subject": {
          "reference": "urn:uuid:232303f1-64a4-4fdb-8538-9aedb5fcd519",
          "display": "Θεμιστοκλής Λιναρδάκη"
        },
        "effectiveDateTime": "2021-05-12T06:16:00Z",
        "specimen": {
          "reference": "urn:uuid:626f5d49-8243-4229-adaa-d3ede8227a76"
        }
      }
    },
    {
      "fullUrl": "urn:uuid:767f3eaf-6d55-45cf-8117-220eb0178ab8",
      "resource": {
        "resourceType": "Observation",
        "id": "767f3eaf-6d55-45cf-8117-220eb0178ab8",
        "meta": {
          "profile": [
            "http://hl7.eu/fhir/laboratory/StructureDefinition/Observation-resultslab-eu-lab"
          ]
        },
        "performer": [
          {
            "display": "The Central European Lab"
          }
        ],
        "category": [
          {
            "coding": [
              {
                "system": "http://terminology.hl7.org/CodeSystem/observation-category",
                "code": "laboratory"
              }
            ]
          }
        ],
        "code": {
          "coding": [
            {
              "code": "6299-2",
              "system": "http://loinc.org",
              "display": "Urea nitrogen [Mass/volume] in Blood"
            }
          ],
          "text": "Urea nitrogen [Mass/volume] in Blood"
        },
        "valueQuantity": {
          "system": "http://unitsofmeasure.org",
          "value": 7.4,
          "unit": "mg/dL",
          "code": "mg/dL"
        },
        "referenceRange": [
          {
            "low": {
              "value": 7,
              "code": "mg/dL",
              "system": "http://unitsofmeasure.org"
            }
          },
          {
            "high": {
              "value": 20,
              "code": "mg/dL",
              "system": "http://unitsofmeasure.org"
            }
          }
        ],
        "text": {
          "status": "generated",
          "div": "<div xmlns=\"http://www.w3.org/1999/xhtml\"><table class=\"hl7__eu__lab__report\"><tr><th>Test</th><th>12-May-2021</th><th>Reference&#xA0;Range</th><th>Unit</th></tr><tr><td>Urea nitrogen [Mass/volume] in Blood</td><td>7.4</td><td>7 - 20</td><td></td><td>mg/dL</td></tr></table></div>"
        },
        "status": "final",
        "subject": {
          "reference": "urn:uuid:232303f1-64a4-4fdb-8538-9aedb5fcd519",
          "display": "Θεμιστοκλής Λιναρδάκη"
        },
        "effectiveDateTime": "2021-05-12T06:16:00Z",
        "specimen": {
          "reference": "urn:uuid:626f5d49-8243-4229-adaa-d3ede8227a76"
        }
      }
    },
    {
      "fullUrl": "urn:uuid:8cabd315-1e4d-43de-a30a-88e630ec3a24",
      "resource": {
        "resourceType": "Observation",
        "id": "8cabd315-1e4d-43de-a30a-88e630ec3a24",
        "meta": {
          "profile": [
            "http://hl7.eu/fhir/laboratory/StructureDefinition/Observation-resultslab-eu-lab"
          ]
        },
        "performer": [
          {
            "display": "The Central European Lab"
          }
        ],
        "category": [
          {
            "coding": [
              {
                "system": "http://terminology.hl7.org/CodeSystem/observation-category",
                "code": "laboratory"
              }
            ]
          }
        ],
        "code": {
          "coding": [
            {
              "code": "38483-4",
              "system": "http://loinc.org",
              "display": "Creatinine [Mass/volume] in Blood"
            }
          ],
          "text": "Creatinine [Mass/volume] in Blood"
        },
        "valueQuantity": {
          "system": "http://unitsofmeasure.org",
          "value": 4.7,
          "unit": "mg/dL",
          "code": "mg/dL"
        },
        "referenceRange": [
          {
            "low": {
              "value": 0.6,
              "code": "mg/dL",
              "system": "http://unitsofmeasure.org"
            }
          },
          {
            "high": {
              "value": 1.3,
              "code": "mg/dL",
              "system": "http://unitsofmeasure.org"
            }
          }
        ],
        "interpretation": [
          {
            "coding": [
              {
                "code": "H",
                "system": "http://terminology.hl7.org/CodeSystem/v3-ObservationInterpretation",
                "display": "High"
              }
            ]
          }
        ],
        "text": {
          "status": "generated",
          "div": "<div xmlns=\"http://www.w3.org/1999/xhtml\"><table class=\"hl7__eu__lab__report\"><tr><th>Test</th><th>12-May-2021</th><th>Reference&#xA0;Range</th><th>Unit</th></tr><tr><td>Creatinine [Mass/volume] in Blood</td><td>4.7</td><td>0.6 - 1.3</td><td>H</td><td>mg/dL</td></tr></table></div>"
        },
        "status": "final",
        "subject": {
          "reference": "urn:uuid:232303f1-64a4-4fdb-8538-9aedb5fcd519",
          "display": "Θεμιστοκλής Λιναρδάκη"
        },
        "effectiveDateTime": "2021-05-12T06:16:00Z",
        "specimen": {
          "reference": "urn:uuid:626f5d49-8243-4229-adaa-d3ede8227a76"
        }
      }
    },
    {
      "fullUrl": "urn:uuid:7733fc77-00b0-4043-825d-203c233ddeee",
      "resource": {
        "resourceType": "Observation",
        "id": "7733fc77-00b0-4043-825d-203c233ddeee",
        "meta": {
          "profile": [
            "http://hl7.eu/fhir/laboratory/StructureDefinition/Observation-resultslab-eu-lab"
          ]
        },
        "performer": [
          {
            "display": "The Central European Lab"
          }
        ],
        "category": [
          {
            "coding": [
              {
                "system": "http://terminology.hl7.org/CodeSystem/observation-category",
                "code": "laboratory"
              }
            ]
          }
        ],
        "code": {
          "coding": [
            {
              "code": "49765-1",
              "system": "http://loinc.org",
              "display": "Calcium [Mass/volume] in Blood"
            }
          ],
          "text": "Calcium [Mass/volume] in Blood"
        },
        "valueQuantity": {
          "system": "http://unitsofmeasure.org",
          "value": 9.5,
          "unit": "mg/dL",
          "code": "mg/dL"
        },
        "referenceRange": [
          {
            "low": {
              "value": 8.5,
              "code": "mg/dL",
              "system": "http://unitsofmeasure.org"
            }
          },
          {
            "high": {
              "value": 10.5,
              "code": "mg/dL",
              "system": "http://unitsofmeasure.org"
            }
          }
        ],
        "text": {
          "status": "generated",
          "div": "<div xmlns=\"http://www.w3.org/1999/xhtml\"><table class=\"hl7__eu__lab__report\"><tr><th>Test</th><th>12-May-2021</th><th>Reference&#xA0;Range</th><th>Unit</th></tr><tr><td>Calcium [Mass/volume] in Blood</td><td>9.5</td><td>8.5 - 10.5</td><td></td><td>mg/dL</td></tr></table></div>"
        },
        "status": "final",
        "subject": {
          "reference": "urn:uuid:232303f1-64a4-4fdb-8538-9aedb5fcd519",
          "display": "Θεμιστοκλής Λιναρδάκη"
        },
        "effectiveDateTime": "2021-05-12T06:16:00Z",
        "specimen": {
          "reference": "urn:uuid:626f5d49-8243-4229-adaa-d3ede8227a76"
        }
      }
    },
    {
      "fullUrl": "urn:uuid:21871ffb-f972-4798-814e-f150239abe73",
      "resource": {
        "resourceType": "Observation",
        "id": "21871ffb-f972-4798-814e-f150239abe73",
        "meta": {
          "profile": [
            "http://hl7.eu/fhir/laboratory/StructureDefinition/Observation-resultslab-eu-lab"
          ]
        },
        "performer": [
          {
            "display": "The Central European Lab"
          }
        ],
        "category": [
          {
            "coding": [
              {
                "system": "http://terminology.hl7.org/CodeSystem/observation-category",
                "code": "laboratory"
              }
            ]
          }
        ],
        "code": {
          "coding": [
            {
              "code": "2947-0",
              "system": "http://loinc.org",
              "display": "Sodium [Moles/volume] in Blood"
            }
          ],
          "text": "Sodium [Moles/volume] in Blood"
        },
        "valueQuantity": {
          "system": "http://unitsofmeasure.org",
          "value": 143.2,
          "unit": "mmol/L",
          "code": "mmol/L"
        },
        "referenceRange": [
          {
            "low": {
              "value": 135,
              "code": "mmol/L",
              "system": "http://unitsofmeasure.org"
            }
          },
          {
            "high": {
              "value": 145,
              "code": "mmol/L",
              "system": "http://unitsofmeasure.org"
            }
          }
        ],
        "text": {
          "status": "generated",
          "div": "<div xmlns=\"http://www.w3.org/1999/xhtml\"><table class=\"hl7__eu__lab__report\"><tr><th>Test</th><th>12-May-2021</th><th>Reference&#xA0;Range</th><th>Unit</th></tr><tr><td>Sodium [Moles/volume] in Blood</td><td>143.2</td><td>135 - 145</td><td></td><td>mmol/L</td></tr></table></div>"
        },
        "status": "final",
        "subject": {
          "reference": "urn:uuid:232303f1-64a4-4fdb-8538-9aedb5fcd519",
          "display": "Θεμιστοκλής Λιναρδάκη"
        },
        "effectiveDateTime": "2021-05-12T06:16:00Z",
        "specimen": {
          "reference": "urn:uuid:626f5d49-8243-4229-adaa-d3ede8227a76"
        }
      }
    },
    {
      "fullUrl": "urn:uuid:d2d6431e-a0f2-4be3-b02b-3097d6a31bd6",
      "resource": {
        "resourceType": "Observation",
        "id": "d2d6431e-a0f2-4be3-b02b-3097d6a31bd6",
        "meta": {
          "profile": [
            "http://hl7.eu/fhir/laboratory/StructureDefinition/Observation-resultslab-eu-lab"
          ]
        },
        "performer": [
          {
            "display": "The Central European Lab"
          }
        ],
        "category": [
          {
            "coding": [
              {
                "system": "http://terminology.hl7.org/CodeSystem/observation-category",
                "code": "laboratory"
              }
            ]
          }
        ],
        "code": {
          "coding": [
            {
              "code": "6298-4",
              "system": "http://loinc.org",
              "display": "Potassium [Moles/volume] in Blood"
            }
          ],
          "text": "Potassium [Moles/volume] in Blood"
        },
        "valueQuantity": {
          "system": "http://unitsofmeasure.org",
          "value": 3.9,
          "unit": "mmol/L",
          "code": "mmol/L"
        },
        "referenceRange": [
          {
            "low": {
              "value": 3.5,
              "code": "mmol/L",
              "system": "http://unitsofmeasure.org"
            }
          },
          {
            "high": {
              "value": 5.3,
              "code": "mmol/L",
              "system": "http://unitsofmeasure.org"
            }
          }
        ],
        "text": {
          "status": "generated",
          "div": "<div xmlns=\"http://www.w3.org/1999/xhtml\"><table class=\"hl7__eu__lab__report\"><tr><th>Test</th><th>12-May-2021</th><th>Reference&#xA0;Range</th><th>Unit</th></tr><tr><td>Potassium [Moles/volume] in Blood</td><td>3.9</td><td>3.5 - 5.3</td><td></td><td>mmol/L</td></tr></table></div>"
        },
        "status": "final",
        "subject": {
          "reference": "urn:uuid:232303f1-64a4-4fdb-8538-9aedb5fcd519",
          "display": "Θεμιστοκλής Λιναρδάκη"
        },
        "effectiveDateTime": "2021-05-12T06:16:00Z",
        "specimen": {
          "reference": "urn:uuid:626f5d49-8243-4229-adaa-d3ede8227a76"
        }
      }
    },
    {
      "fullUrl": "urn:uuid:084507fe-d5c9-43ad-952e-be485bd88ffd",
      "resource": {
        "resourceType": "Observation",
        "id": "084507fe-d5c9-43ad-952e-be485bd88ffd",
        "meta": {
          "profile": [
            "http://hl7.eu/fhir/laboratory/StructureDefinition/Observation-resultslab-eu-lab"
          ]
        },
        "performer": [
          {
            "display": "The Central European Lab"
          }
        ],
        "category": [
          {
            "coding": [
              {
                "system": "http://terminology.hl7.org/CodeSystem/observation-category",
                "code": "laboratory"
              }
            ]
          }
        ],
        "code": {
          "coding": [
            {
              "code": "2069-3",
              "system": "http://loinc.org",
              "display": "Chloride [Moles/volume] in Blood"
            }
          ],
          "text": "Chloride [Moles/volume] in Blood"
        },
        "valueQuantity": {
          "system": "http://unitsofmeasure.org",
          "value": 102.3,
          "unit": "mmol/L",
          "code": "mmol/L"
        },
        "referenceRange": [
          {
            "low": {
              "value": 98,
              "code": "mmol/L",
              "system": "http://unitsofmeasure.org"
            }
          },
          {
            "high": {
              "value": 110,
              "code": "mmol/L",
              "system": "http://unitsofmeasure.org"
            }
          }
        ],
        "text": {
          "status": "generated",
          "div": "<div xmlns=\"http://www.w3.org/1999/xhtml\"><table class=\"hl7__eu__lab__report\"><tr><th>Test</th><th>12-May-2021</th><th>Reference&#xA0;Range</th><th>Unit</th></tr><tr><td>Chloride [Moles/volume] in Blood</td><td>102.3</td><td>98 - 110</td><td></td><td>mmol/L</td></tr></table></div>"
        },
        "status": "final",
        "subject": {
          "reference": "urn:uuid:232303f1-64a4-4fdb-8538-9aedb5fcd519",
          "display": "Θεμιστοκλής Λιναρδάκη"
        },
        "effectiveDateTime": "2021-05-12T06:16:00Z",
        "specimen": {
          "reference": "urn:uuid:626f5d49-8243-4229-adaa-d3ede8227a76"
        }
      }
    },
    {
      "fullUrl": "urn:uuid:2a531a79-4799-43fd-905f-ef1de6ef444a",
      "resource": {
        "resourceType": "Observation",
        "id": "2a531a79-4799-43fd-905f-ef1de6ef444a",
        "meta": {
          "profile": [
            "http://hl7.eu/fhir/laboratory/StructureDefinition/Observation-resultslab-eu-lab"
          ]
        },
        "performer": [
          {
            "display": "The Central European Lab"
          }
        ],
        "category": [
          {
            "coding": [
              {
                "system": "http://terminology.hl7.org/CodeSystem/observation-category",
                "code": "laboratory"
              }
            ]
          }
        ],
        "code": {
          "coding": [
            {
              "code": "20565-8",
              "system": "http://loinc.org",
              "display": "Carbon dioxide, total [Moles/volume] in Blood"
            }
          ],
          "text": "Carbon dioxide, total [Moles/volume] in Blood"
        },
        "valueQuantity": {
          "system": "http://unitsofmeasure.org",
          "value": 24.4,
          "unit": "mmol/L",
          "code": "mmol/L"
        },
        "referenceRange": [
          {
            "low": {
              "value": 22,
              "code": "mmol/L",
              "system": "http://unitsofmeasure.org"
            }
          },
          {
            "high": {
              "value": 29,
              "code": "mmol/L",
              "system": "http://unitsofmeasure.org"
            }
          }
        ],
        "text": {
          "status": "generated",
          "div": "<div xmlns=\"http://www.w3.org/1999/xhtml\"><table class=\"hl7__eu__lab__report\"><tr><th>Test</th><th>12-May-2021</th><th>Reference&#xA0;Range</th><th>Unit</th></tr><tr><td>Carbon dioxide, total [Moles/volume] in Blood</td><td>24.4</td><td>22 - 29</td><td></td><td>mmol/L</td></tr></table></div>"
        },
        "status": "final",
        "subject": {
          "reference": "urn:uuid:232303f1-64a4-4fdb-8538-9aedb5fcd519",
          "display": "Θεμιστοκλής Λιναρδάκη"
        },
        "effectiveDateTime": "2021-05-12T06:16:00Z",
        "specimen": {
          "reference": "urn:uuid:626f5d49-8243-4229-adaa-d3ede8227a76"
        }
      }
    },
    {
      "fullUrl": "urn:uuid:f319c26d-cb38-462d-b9f9-a48cc56b602e",
      "resource": {
        "resourceType": "Device",
        "id": "f319c26d-cb38-462d-b9f9-a48cc56b602e",
        "deviceName": [
          {
            "name": "SYNDERAI Synthetic Generator",
            "type": "manufacturer-name"
          }
        ],
        "version": [
          {
            "value": "5.0"
          }
        ],
        "text": {
          "status": "generated",
          "div": "<div xmlns=\"http://www.w3.org/1999/xhtml\">SYNDERAI Synthetic Generator v5.0</div>"
        },
        "status": "active\"",
        "distinctIdentifier": "synderai-generator-50",
        "manufacturer": "SYNDERAI Project"
      }
    },
    {
      "fullUrl": "urn:uuid:5a9c9026-8bfa-4802-84e6-5f5fde62343d",
      "resource": {
        "resourceType": "Provenance",
        "id": "5a9c9026-8bfa-4802-84e6-5f5fde62343d",
        "target": [
          {
            "reference": "Patient/232303f1-64a4-4fdb-8538-9aedb5fcd519"
          },
          {
            "reference": "Bundle/cb249325-87a0-4a30-8c99-06658691d229"
          },
          {
            "reference": "Composition/f97e5258-923b-46f0-8e9a-5b0f49f4baea"
          },
          {
            "reference": "PractitionerRole/9e76ba79-fc92-4e9e-a3bb-dbe1d6761e5e"
          },
          {
            "reference": "Practitioner/d8470a57-aa65-439f-8cad-081d7f85e562"
          },
          {
            "reference": "PractitionerRole/6ef6b4c5-5cca-4b49-9c6f-c0d6720012f0"
          },
          {
            "reference": "Organization/53bcacdb-7e0e-4d35-9c8f-f1f187f41e04"
          }
        ],
        "activity": {
          "text": "Synthetic Example Data Generation"
        },
        "policy": [
          "https://synderai.net/synderai-synthetic-data-policy"
        ],
        "agent": [
          {
            "type": {
              "text": "author"
            },
            "who": {
              "reference": "Device/f319c26d-cb38-462d-b9f9-a48cc56b602e"
            }
          }
        ],
        "reason": [
          {
            "text": "Interoperability Testing and Training (non-clinical use)"
          }
        ],
        "text": {
          "status": "generated",
          "div": "<div xmlns=\"http://www.w3.org/1999/xhtml\">Provenance for SYNDERAI Synthetic Example Data Resource</div>"
        },
        "recorded": "2021-05-12T08:16:00Z"
      }
    },
    {
      "fullUrl": "urn:uuid:9e76ba79-fc92-4e9e-a3bb-dbe1d6761e5e",
      "resource": {
        "resourceType": "PractitionerRole",
        "id": "9e76ba79-fc92-4e9e-a3bb-dbe1d6761e5e",
        "meta": {
          "profile": [
            "http://hl7.eu/fhir/base/StructureDefinition/practitionerRole-eu"
          ]
        },
        "text": {
          "status": "generated",
          "div": "<div xmlns=\"http://www.w3.org/1999/xhtml\">Laboratory Role Id: 9e76ba79-fc92-4e9e-a3bb-dbe1d6761e5e</div>"
        },
        "practitioner": {
          "reference": "urn:uuid:d8470a57-aa65-439f-8cad-081d7f85e562"
        }
      }
    },
    {
      "fullUrl": "urn:uuid:d8470a57-aa65-439f-8cad-081d7f85e562",
      "resource": {
        "resourceType": "Practitioner",
        "id": "d8470a57-aa65-439f-8cad-081d7f85e562",
        "meta": {
          "profile": [
            "http://hl7.eu/fhir/base/StructureDefinition/practitioner-eu"
          ]
        },
        "identifier": [
          {
            "assigner": {
              "display": "HL7 Europe"
            },
            "system": "urn:oid:2.16.840.1.113883.2.51.999",
            "value": "5ecd4f1f-9eae-4d92-a96b-a41548956bed"
          }
        ],
        "name": [
          {
            "prefix": [
              "dr"
            ],
            "given": [
              "Ex"
            ],
            "family": "Ample"
          }
        ],
        "address": [
          {
            "line": [
              "Laboratoire Central Européenne",
              "Boulevard du Jardin Botanique 32"
            ],
            "postalCode": "1000",
            "city": "Brussels",
            "country": "Belgium"
          }
        ],
        "text": {
          "status": "generated",
          "div": "<div xmlns=\"http://www.w3.org/1999/xhtml\">Laboratory: Laboratoire Central Européenne, 1000 Brussels, Belgium</div>"
        }
      }
    }
  ],
  "type": "document",
  "timestamp": "2021-05-12T08:16:00Z"
}
