{
  "resourceType": "Bundle",
  "id": "f365616d-8a92-42f7-80e5-287bf61be2ae",
  "meta": {
    "profile": [
      "http://hl7.eu/fhir/laboratory/StructureDefinition/Bundle-eu-lab"
    ]
  },
  "identifier": {
    "assigner": {
      "display": "HL7 Europe"
    },
    "system": "urn:oid:2.16.840.1.113883.2.51.999",
    "value": "9d83c2fb-aade-4ce7-9593-64d2e416daba"
  },
  "entry": [
    {
      "fullUrl": "urn:uuid:d61b08c1-37a7-4b74-aec3-e8deb834ee9d",
      "resource": {
        "resourceType": "Composition",
        "id": "d61b08c1-37a7-4b74-aec3-e8deb834ee9d",
        "meta": {
          "profile": [
            "http://hl7.eu/fhir/laboratory/StructureDefinition/Composition-eu-lab"
          ]
        },
        "identifier": {
          "assigner": {
            "display": "HL7 Europe"
          },
          "system": "urn:oid:2.16.840.1.113883.2.51.999",
          "value": "7ef38b6a-8b65-4136-ad5f-a1a089eeb865"
        },
        "author": [
          {
            "reference": "urn:uuid:77139636-e8fa-4d2c-ab3d-c5035a119b51"
          }
        ],
        "category": [
          {
            "coding": [
              {
                "code": "26436-6",
                "system": "http://loinc.org",
                "display": "Laboratory studies (set)"
              }
            ]
          }
        ],
        "type": {
          "coding": [
            {
              "code": "11502-2",
              "system": "http://loinc.org",
              "display": "Laboratory report"
            }
          ],
          "text": "Laboratory Report"
        },
        "section": [
          {
            "code": {
              "coding": [
                {
                  "code": "26436-6",
                  "system": "http://loinc.org",
                  "display": "Laboratory studies (set)"
                }
              ],
              "text": "Laboratory studies"
            },
            "section": [
              {
                "code": {
                  "coding": [
                    {
                      "code": "$18719-5",
                      "system": "http://loinc.org",
                      "display": "Chemistry studies (set)"
                    }
                  ],
                  "text": "Chemistry"
                },
                "entry": [
                  {
                    "reference": "urn:uuid:c34bf635-6d61-4bc8-9445-1423a3060732"
                  },
                  {
                    "reference": "urn:uuid:ee2f2b71-b5fe-4096-b203-fdd17d2da833"
                  },
                  {
                    "reference": "urn:uuid:392b8f95-1dd1-4ae3-b392-6e98a7a3dcd2"
                  },
                  {
                    "reference": "urn:uuid:16a92212-1d80-42fd-8e89-ae7dfbcdeb49"
                  },
                  {
                    "reference": "urn:uuid:843e99a0-e5cc-463d-89b9-2e49625c0d19"
                  },
                  {
                    "reference": "urn:uuid:6bd0e3e7-02f6-44dd-8d8e-abdcc653272f"
                  },
                  {
                    "reference": "urn:uuid:327f9d24-5e3c-487c-9170-b86ab9a48c34"
                  },
                  {
                    "reference": "urn:uuid:830e2fb3-96a3-4d2a-8208-2250f446fda3"
                  },
                  {
                    "reference": "urn:uuid:c7750569-66c6-43aa-84f5-edd1c979e48e"
                  }
                ],
                "text": {
                  "status": "generated",
                  "div": "<div xmlns=\"http://www.w3.org/1999/xhtml\"><h3>Chemistry</h3><table class=\"hl7__eu__lab__report\"><thead><tr><th>Test</th><th>20-FEB-2025</th><th>Reference&#xA0;Range</th><th>Unit</th></tr></thead><tbody><tr><td>Hemoglobin A1c/Hemoglobin.total in Blood</td><td>5.8</td><td>4.5 - 6.4</td><td>%</td></tr><tr><td>Glucose [Mass/volume] in Blood</td><td>95.3</td><td>70 - 99</td><td>mg/dL</td></tr><tr><td>Urea nitrogen [Mass/volume] in Blood</td><td>16.2</td><td>7 - 20</td><td>mg/dL</td></tr><tr><td>Creatinine [Mass/volume] in Blood</td><td>1.3</td><td>0.7 - 1.3</td><td>mg/dL</td></tr><tr><td>Calcium [Mass/volume] in Blood</td><td>9.3</td><td>8.5 - 10.5</td><td>mg/dL</td></tr><tr><td>Sodium [Moles/volume] in Blood</td><td>142.8</td><td>135 - 145</td><td>mmol/L</td></tr><tr><td>Potassium [Moles/volume] in Blood</td><td>4.0</td><td>3.5 - 5.3</td><td>mmol/L</td></tr><tr><td>Chloride [Moles/volume] in Blood</td><td>110.0</td><td>98 - 110</td><td>mmol/L</td></tr><tr><td>Carbon dioxide, total [Moles/volume] in Blood</td><td>25.6</td><td>22 - 29</td><td>mmol/L</td></tr></tbody></table></div>"
                },
                "title": "Chemistry"
              }
            ],
            "title": "Laboratory Report"
          },
          {
            "text": {
              "status": "generated",
              "div": "<div xmlns=\"http://www.w3.org/1999/xhtml\"><h3>Annotation</h3><table class=\"hl7__eu__lab__report\"><tr><th>Conclusion and Recommendations based on this report and previous findings known to us</th></tr><tr><td>All measured parameters are within normal limits, including glucose and HbA1c, indicating good glycemic control. Renal function (urea, creatinine) and electrolytes are normal. No laboratory evidence of metabolic or renal dysfunction at this time. No further action required from a laboratory perspective.</td></tr></table></div>"
            },
            "code": {
              "coding": [
                {
                  "system": "http://loinc.org",
                  "code": "48767-8",
                  "display": "Annotation comment"
                }
              ]
            },
            "title": "Annotation comment"
          }
        ],
        "status": "final",
        "subject": {
          "reference": "urn:uuid:00285644-49a3-46ab-b862-0fc8820a3e1c",
          "display": "Alfred Rémy"
        },
        "date": "2025-02-20T07:54:36Z",
        "title": "Laboratory Report",
        "confidentiality": "N"
      }
    },
    {
      "fullUrl": "urn:uuid:fb88c4e0-811c-4593-8c8c-2a1eb336b743",
      "resource": {
        "resourceType": "DiagnosticReport",
        "id": "fb88c4e0-811c-4593-8c8c-2a1eb336b743",
        "meta": {
          "profile": [
            "http://hl7.eu/fhir/laboratory/StructureDefinition/DiagnosticReport-eu-lab"
          ]
        },
        "identifier": [
          {
            "assigner": {
              "display": "HL7 Europe"
            },
            "system": "urn:oid:2.16.840.1.113883.2.51.999",
            "value": "72aaa83f-f57d-4b72-a63c-28c742eb58eb"
          }
        ],
        "extension": [
          {
            "url": "http://hl7.org/fhir/5.0/StructureDefinition/extension-DiagnosticReport.composition",
            "valueReference": {
              "reference": "urn:uuid:7ef38b6a-8b65-4136-ad5f-a1a089eeb865"
            }
          }
        ],
        "category": [
          {
            "coding": [
              {
                "code": "26436-6",
                "system": "http://loinc.org",
                "display": "Laboratory studies (set)"
              }
            ]
          }
        ],
        "specimen": [
          {
            "reference": "urn:uuid:646ca8bc-4695-495e-a0eb-d652199a8edf"
          }
        ],
        "result": [
          {
            "reference": "urn:uuid:c34bf635-6d61-4bc8-9445-1423a3060732"
          },
          {
            "reference": "urn:uuid:ee2f2b71-b5fe-4096-b203-fdd17d2da833"
          },
          {
            "reference": "urn:uuid:392b8f95-1dd1-4ae3-b392-6e98a7a3dcd2"
          },
          {
            "reference": "urn:uuid:16a92212-1d80-42fd-8e89-ae7dfbcdeb49"
          },
          {
            "reference": "urn:uuid:843e99a0-e5cc-463d-89b9-2e49625c0d19"
          },
          {
            "reference": "urn:uuid:6bd0e3e7-02f6-44dd-8d8e-abdcc653272f"
          },
          {
            "reference": "urn:uuid:327f9d24-5e3c-487c-9170-b86ab9a48c34"
          },
          {
            "reference": "urn:uuid:830e2fb3-96a3-4d2a-8208-2250f446fda3"
          },
          {
            "reference": "urn:uuid:c7750569-66c6-43aa-84f5-edd1c979e48e"
          }
        ],
        "status": "registered",
        "code": {
          "coding": [
            {
              "code": "11502-2",
              "system": "http://loinc.org",
              "display": "Laboratory report"
            }
          ]
        },
        "subject": {
          "reference": "urn:uuid:00285644-49a3-46ab-b862-0fc8820a3e1c",
          "display": "Alfred Rémy"
        }
      }
    },
    {
      "fullUrl": "urn:uuid:00285644-49a3-46ab-b862-0fc8820a3e1c",
      "resource": {
        "resourceType": "Patient",
        "id": "00285644-49a3-46ab-b862-0fc8820a3e1c",
        "meta": {
          "security": [
            {
              "system": "http://terminology.hl7.org/CodeSystem/v3-ActReason",
              "code": "HTEST"
            },
            {
              "system": "http://terminology.hl7.org/CodeSystem/v3-ActReason",
              "code": "TRAIN"
            }
          ],
          "tag": [
            {
              "system": "https://synderai.net/fhir/CodeSystem/tags",
              "code": "synthetic",
              "display": "SYNDERAI Synthetic data"
            }
          ],
          "profile": [
            "http://hl7.eu/fhir/base/StructureDefinition/patient-eu-core"
          ]
        },
        "identifier": [
          {
            "type": {
              "coding": [
                {
                  "code": "PT",
                  "system": "http://terminology.hl7.org/CodeSystem/v2-0203"
                }
              ]
            },
            "system": "http://ec.europa.eu/identifier/eci",
            "value": "9962-084919-2"
          },
          {
            "type": {
              "coding": [
                {
                  "code": "MR",
                  "system": "http://terminology.hl7.org/CodeSystem/v2-0203"
                }
              ]
            },
            "system": "http://local.setting.eu/identifier",
            "value": "cc3b7d7f-bed4-5811-99b9-3468e2f4203c"
          }
        ],
        "name": [
          {
            "family": "Rémy"
          },
          {
            "given": [
              "Alfred"
            ]
          },
          {
            "text": "Alfred Rémy"
          }
        ],
        "address": [
          {
            "line": [
              "88, rue de Jacquot"
            ],
            "use": "home",
            "type": "physical",
            "postalCode": "75018",
            "city": "Paris",
            "country": "France"
          }
        ],
        "telecom": [
          {
            "system": "phone",
            "value": "+33 (0)4 73 74 17 67"
          }
        ],
        "extension": [
          {
            "url": "http://hl7.org/fhir/StructureDefinition/patient-nationality",
            "valueCodeableConcept": {
              "coding": [
                {
                  "code": "FR",
                  "system": "http://hl7.org/fhir/ValueSet/country"
                }
              ]
            }
          }
        ],
        "text": {
          "status": "generated",
          "div": "<div xmlns=\"http://www.w3.org/1999/xhtml\"><table class=\"hl7__ips\"><tr><td>Alfred Rémy</td><td>male</td><td>05-Jul-1967</td></tr></table></div>"
        },
        "gender": "male",
        "birthDate": "1967-07-05"
      }
    },
    {
      "fullUrl": "urn:uuid:942f0ac2-0dd6-416c-86dd-14960388ea6f",
      "resource": {
        "resourceType": "ServiceRequest",
        "id": "942f0ac2-0dd6-416c-86dd-14960388ea6f",
        "meta": {
          "profile": [
            "http://hl7.eu/fhir/laboratory/StructureDefinition/ServiceRequest-eu-lab"
          ]
        },
        "identifier": [
          {
            "system": "http://example.org",
            "value": "26a7905e-7982-4c8e-a9cd-afcc78f71872"
          }
        ],
        "specimen": [
          {
            "reference": "urn:uuid:646ca8bc-4695-495e-a0eb-d652199a8edf"
          }
        ],
        "reasonCode": [
          {
            "coding": [
              {
                "code": "271737000",
                "system": "http://snomed.info/sct",
                "display": "Anemia"
              }
            ]
          },
          {
            "coding": [
              {
                "code": "15777000",
                "system": "http://snomed.info/sct",
                "display": "Prediabetes"
              }
            ]
          }
        ],
        "status": "active",
        "intent": "order",
        "code": {
          "coding": [
            {
              "code": "108252007",
              "system": "http://snomed.info/sct",
              "display": "Laboratory procedure"
            }
          ]
        },
        "subject": {
          "reference": "urn:uuid:00285644-49a3-46ab-b862-0fc8820a3e1c",
          "display": "Alfred Rémy"
        },
        "requester": {
          "reference": "urn:uuid:29c14a49-c155-4fa7-8583-5fe7c07b1222"
        }
      }
    },
    {
      "fullUrl": "urn:uuid:29c14a49-c155-4fa7-8583-5fe7c07b1222",
      "resource": {
        "resourceType": "PractitionerRole",
        "id": "29c14a49-c155-4fa7-8583-5fe7c07b1222",
        "meta": {
          "profile": [
            "http://hl7.eu/fhir/base/StructureDefinition/practitionerRole-eu"
          ]
        },
        "text": {
          "status": "generated",
          "div": "<div xmlns=\"http://www.w3.org/1999/xhtml\">Provider Role Id: 29c14a49-c155-4fa7-8583-5fe7c07b1222</div>"
        },
        "organization": {
          "reference": "urn:uuid:157ca3d8-afb8-4728-b7bd-d29a9b5156ca"
        }
      }
    },
    {
      "fullUrl": "urn:uuid:157ca3d8-afb8-4728-b7bd-d29a9b5156ca",
      "resource": {
        "resourceType": "Organization",
        "id": "157ca3d8-afb8-4728-b7bd-d29a9b5156ca",
        "meta": {
          "profile": [
            "http://hl7.eu/fhir/base/StructureDefinition/organization-eu"
          ]
        },
        "identifier": [
          {
            "assigner": {
              "display": "HL7 Europe"
            },
            "system": "urn:oid:2.16.840.1.113883.2.51.999",
            "value": "6028c9da-fb70-442c-b100-cd4b83aed3f2"
          }
        ],
        "address": [
          {
            "city": "Paris",
            "postalCode": "75005",
            "country": "France"
          }
        ],
        "text": {
          "status": "generated",
          "div": "<div xmlns=\"http://www.w3.org/1999/xhtml\">Provider Organization: Maison des parents Irène Joliot-Curie</div>"
        },
        "name": "Maison des parents Irène Joliot-Curie"
      }
    },
    {
      "fullUrl": "urn:uuid:646ca8bc-4695-495e-a0eb-d652199a8edf",
      "resource": {
        "resourceType": "Specimen",
        "id": "646ca8bc-4695-495e-a0eb-d652199a8edf",
        "meta": {
          "profile": [
            "http://hl7.eu/fhir/laboratory/StructureDefinition/Specimen-eu-lab"
          ]
        },
        "collection": {
          "collectedDateTime": "2025-02-20"
        },
        "text": {
          "status": "generated",
          "div": "<div xmlns=\"http://www.w3.org/1999/xhtml\"><table class=\"hl7__eu__lab__report\"><tr><th>Specimen</th><th>Collection Date</th></tr><tr><td>Whole blood specimen (specimen)</td><td><span class=\"nb\">20-Feb-2025</span></td></tr></table></div>"
        },
        "type": {
          "coding": [
            {
              "code": "258580003",
              "system": "http://snomed.info/sct",
              "display": "Whole blood specimen (specimen)"
            }
          ]
        }
      }
    },
    {
      "fullUrl": "urn:uuid:c34bf635-6d61-4bc8-9445-1423a3060732",
      "resource": {
        "resourceType": "Observation",
        "id": "c34bf635-6d61-4bc8-9445-1423a3060732",
        "meta": {
          "profile": [
            "http://hl7.eu/fhir/laboratory/StructureDefinition/Observation-resultslab-eu-lab"
          ]
        },
        "performer": [
          {
            "display": "The Central European Lab"
          }
        ],
        "category": [
          {
            "coding": [
              {
                "system": "http://terminology.hl7.org/CodeSystem/observation-category",
                "code": "laboratory"
              }
            ]
          }
        ],
        "code": {
          "coding": [
            {
              "code": "4548-4",
              "system": "http://loinc.org",
              "display": "Hemoglobin A1c/Hemoglobin.total in Blood"
            }
          ],
          "text": "Hemoglobin A1c/Hemoglobin.total in Blood"
        },
        "valueQuantity": {
          "system": "http://unitsofmeasure.org",
          "value": 5.8,
          "unit": "%",
          "code": "%"
        },
        "referenceRange": [
          {
            "low": {
              "value": 4.5,
              "code": "%",
              "system": "http://unitsofmeasure.org"
            }
          },
          {
            "high": {
              "value": 6.4,
              "code": "%",
              "system": "http://unitsofmeasure.org"
            }
          }
        ],
        "text": {
          "status": "generated",
          "div": "<div xmlns=\"http://www.w3.org/1999/xhtml\"><table class=\"hl7__eu__lab__report\"><tr><th>Test</th><th>20-Feb-2025</th><th>Reference&#xA0;Range</th><th>Unit</th></tr><tr><td>Hemoglobin A1c/Hemoglobin.total in Blood</td><td>5.8</td><td>4.5 - 6.4</td><td></td><td>%</td></tr></table></div>"
        },
        "status": "final",
        "subject": {
          "reference": "urn:uuid:00285644-49a3-46ab-b862-0fc8820a3e1c",
          "display": "Alfred Rémy"
        },
        "effectiveDateTime": "2025-02-20T06:54:36Z",
        "specimen": {
          "reference": "urn:uuid:646ca8bc-4695-495e-a0eb-d652199a8edf"
        }
      }
    },
    {
      "fullUrl": "urn:uuid:ee2f2b71-b5fe-4096-b203-fdd17d2da833",
      "resource": {
        "resourceType": "Observation",
        "id": "ee2f2b71-b5fe-4096-b203-fdd17d2da833",
        "meta": {
          "profile": [
            "http://hl7.eu/fhir/laboratory/StructureDefinition/Observation-resultslab-eu-lab"
          ]
        },
        "performer": [
          {
            "display": "The Central European Lab"
          }
        ],
        "category": [
          {
            "coding": [
              {
                "system": "http://terminology.hl7.org/CodeSystem/observation-category",
                "code": "laboratory"
              }
            ]
          }
        ],
        "code": {
          "coding": [
            {
              "code": "2339-0",
              "system": "http://loinc.org",
              "display": "Glucose [Mass/volume] in Blood"
            }
          ],
          "text": "Glucose [Mass/volume] in Blood"
        },
        "valueQuantity": {
          "system": "http://unitsofmeasure.org",
          "value": 95.3,
          "unit": "mg/dL",
          "code": "mg/dL"
        },
        "referenceRange": [
          {
            "low": {
              "value": 70,
              "code": "mg/dL",
              "system": "http://unitsofmeasure.org"
            }
          },
          {
            "high": {
              "value": 99,
              "code": "mg/dL",
              "system": "http://unitsofmeasure.org"
            }
          }
        ],
        "text": {
          "status": "generated",
          "div": "<div xmlns=\"http://www.w3.org/1999/xhtml\"><table class=\"hl7__eu__lab__report\"><tr><th>Test</th><th>20-Feb-2025</th><th>Reference&#xA0;Range</th><th>Unit</th></tr><tr><td>Glucose [Mass/volume] in Blood</td><td>95.3</td><td>70 - 99</td><td></td><td>mg/dL</td></tr></table></div>"
        },
        "status": "final",
        "subject": {
          "reference": "urn:uuid:00285644-49a3-46ab-b862-0fc8820a3e1c",
          "display": "Alfred Rémy"
        },
        "effectiveDateTime": "2025-02-20T06:54:36Z",
        "specimen": {
          "reference": "urn:uuid:646ca8bc-4695-495e-a0eb-d652199a8edf"
        }
      }
    },
    {
      "fullUrl": "urn:uuid:392b8f95-1dd1-4ae3-b392-6e98a7a3dcd2",
      "resource": {
        "resourceType": "Observation",
        "id": "392b8f95-1dd1-4ae3-b392-6e98a7a3dcd2",
        "meta": {
          "profile": [
            "http://hl7.eu/fhir/laboratory/StructureDefinition/Observation-resultslab-eu-lab"
          ]
        },
        "performer": [
          {
            "display": "The Central European Lab"
          }
        ],
        "category": [
          {
            "coding": [
              {
                "system": "http://terminology.hl7.org/CodeSystem/observation-category",
                "code": "laboratory"
              }
            ]
          }
        ],
        "code": {
          "coding": [
            {
              "code": "6299-2",
              "system": "http://loinc.org",
              "display": "Urea nitrogen [Mass/volume] in Blood"
            }
          ],
          "text": "Urea nitrogen [Mass/volume] in Blood"
        },
        "valueQuantity": {
          "system": "http://unitsofmeasure.org",
          "value": 16.2,
          "unit": "mg/dL",
          "code": "mg/dL"
        },
        "referenceRange": [
          {
            "low": {
              "value": 7,
              "code": "mg/dL",
              "system": "http://unitsofmeasure.org"
            }
          },
          {
            "high": {
              "value": 20,
              "code": "mg/dL",
              "system": "http://unitsofmeasure.org"
            }
          }
        ],
        "text": {
          "status": "generated",
          "div": "<div xmlns=\"http://www.w3.org/1999/xhtml\"><table class=\"hl7__eu__lab__report\"><tr><th>Test</th><th>20-Feb-2025</th><th>Reference&#xA0;Range</th><th>Unit</th></tr><tr><td>Urea nitrogen [Mass/volume] in Blood</td><td>16.2</td><td>7 - 20</td><td></td><td>mg/dL</td></tr></table></div>"
        },
        "status": "final",
        "subject": {
          "reference": "urn:uuid:00285644-49a3-46ab-b862-0fc8820a3e1c",
          "display": "Alfred Rémy"
        },
        "effectiveDateTime": "2025-02-20T06:54:36Z",
        "specimen": {
          "reference": "urn:uuid:646ca8bc-4695-495e-a0eb-d652199a8edf"
        }
      }
    },
    {
      "fullUrl": "urn:uuid:16a92212-1d80-42fd-8e89-ae7dfbcdeb49",
      "resource": {
        "resourceType": "Observation",
        "id": "16a92212-1d80-42fd-8e89-ae7dfbcdeb49",
        "meta": {
          "profile": [
            "http://hl7.eu/fhir/laboratory/StructureDefinition/Observation-resultslab-eu-lab"
          ]
        },
        "performer": [
          {
            "display": "The Central European Lab"
          }
        ],
        "category": [
          {
            "coding": [
              {
                "system": "http://terminology.hl7.org/CodeSystem/observation-category",
                "code": "laboratory"
              }
            ]
          }
        ],
        "code": {
          "coding": [
            {
              "code": "38483-4",
              "system": "http://loinc.org",
              "display": "Creatinine [Mass/volume] in Blood"
            }
          ],
          "text": "Creatinine [Mass/volume] in Blood"
        },
        "valueQuantity": {
          "system": "http://unitsofmeasure.org",
          "value": 1.3,
          "unit": "mg/dL",
          "code": "mg/dL"
        },
        "referenceRange": [
          {
            "low": {
              "value": 0.7,
              "code": "mg/dL",
              "system": "http://unitsofmeasure.org"
            }
          },
          {
            "high": {
              "value": 1.3,
              "code": "mg/dL",
              "system": "http://unitsofmeasure.org"
            }
          }
        ],
        "text": {
          "status": "generated",
          "div": "<div xmlns=\"http://www.w3.org/1999/xhtml\"><table class=\"hl7__eu__lab__report\"><tr><th>Test</th><th>20-Feb-2025</th><th>Reference&#xA0;Range</th><th>Unit</th></tr><tr><td>Creatinine [Mass/volume] in Blood</td><td>1.3</td><td>0.7 - 1.3</td><td></td><td>mg/dL</td></tr></table></div>"
        },
        "status": "final",
        "subject": {
          "reference": "urn:uuid:00285644-49a3-46ab-b862-0fc8820a3e1c",
          "display": "Alfred Rémy"
        },
        "effectiveDateTime": "2025-02-20T06:54:36Z",
        "specimen": {
          "reference": "urn:uuid:646ca8bc-4695-495e-a0eb-d652199a8edf"
        }
      }
    },
    {
      "fullUrl": "urn:uuid:843e99a0-e5cc-463d-89b9-2e49625c0d19",
      "resource": {
        "resourceType": "Observation",
        "id": "843e99a0-e5cc-463d-89b9-2e49625c0d19",
        "meta": {
          "profile": [
            "http://hl7.eu/fhir/laboratory/StructureDefinition/Observation-resultslab-eu-lab"
          ]
        },
        "performer": [
          {
            "display": "The Central European Lab"
          }
        ],
        "category": [
          {
            "coding": [
              {
                "system": "http://terminology.hl7.org/CodeSystem/observation-category",
                "code": "laboratory"
              }
            ]
          }
        ],
        "code": {
          "coding": [
            {
              "code": "49765-1",
              "system": "http://loinc.org",
              "display": "Calcium [Mass/volume] in Blood"
            }
          ],
          "text": "Calcium [Mass/volume] in Blood"
        },
        "valueQuantity": {
          "system": "http://unitsofmeasure.org",
          "value": 9.3,
          "unit": "mg/dL",
          "code": "mg/dL"
        },
        "referenceRange": [
          {
            "low": {
              "value": 8.5,
              "code": "mg/dL",
              "system": "http://unitsofmeasure.org"
            }
          },
          {
            "high": {
              "value": 10.5,
              "code": "mg/dL",
              "system": "http://unitsofmeasure.org"
            }
          }
        ],
        "text": {
          "status": "generated",
          "div": "<div xmlns=\"http://www.w3.org/1999/xhtml\"><table class=\"hl7__eu__lab__report\"><tr><th>Test</th><th>20-Feb-2025</th><th>Reference&#xA0;Range</th><th>Unit</th></tr><tr><td>Calcium [Mass/volume] in Blood</td><td>9.3</td><td>8.5 - 10.5</td><td></td><td>mg/dL</td></tr></table></div>"
        },
        "status": "final",
        "subject": {
          "reference": "urn:uuid:00285644-49a3-46ab-b862-0fc8820a3e1c",
          "display": "Alfred Rémy"
        },
        "effectiveDateTime": "2025-02-20T06:54:36Z",
        "specimen": {
          "reference": "urn:uuid:646ca8bc-4695-495e-a0eb-d652199a8edf"
        }
      }
    },
    {
      "fullUrl": "urn:uuid:6bd0e3e7-02f6-44dd-8d8e-abdcc653272f",
      "resource": {
        "resourceType": "Observation",
        "id": "6bd0e3e7-02f6-44dd-8d8e-abdcc653272f",
        "meta": {
          "profile": [
            "http://hl7.eu/fhir/laboratory/StructureDefinition/Observation-resultslab-eu-lab"
          ]
        },
        "performer": [
          {
            "display": "The Central European Lab"
          }
        ],
        "category": [
          {
            "coding": [
              {
                "system": "http://terminology.hl7.org/CodeSystem/observation-category",
                "code": "laboratory"
              }
            ]
          }
        ],
        "code": {
          "coding": [
            {
              "code": "2947-0",
              "system": "http://loinc.org",
              "display": "Sodium [Moles/volume] in Blood"
            }
          ],
          "text": "Sodium [Moles/volume] in Blood"
        },
        "valueQuantity": {
          "system": "http://unitsofmeasure.org",
          "value": 142.8,
          "unit": "mmol/L",
          "code": "mmol/L"
        },
        "referenceRange": [
          {
            "low": {
              "value": 135,
              "code": "mmol/L",
              "system": "http://unitsofmeasure.org"
            }
          },
          {
            "high": {
              "value": 145,
              "code": "mmol/L",
              "system": "http://unitsofmeasure.org"
            }
          }
        ],
        "text": {
          "status": "generated",
          "div": "<div xmlns=\"http://www.w3.org/1999/xhtml\"><table class=\"hl7__eu__lab__report\"><tr><th>Test</th><th>20-Feb-2025</th><th>Reference&#xA0;Range</th><th>Unit</th></tr><tr><td>Sodium [Moles/volume] in Blood</td><td>142.8</td><td>135 - 145</td><td></td><td>mmol/L</td></tr></table></div>"
        },
        "status": "final",
        "subject": {
          "reference": "urn:uuid:00285644-49a3-46ab-b862-0fc8820a3e1c",
          "display": "Alfred Rémy"
        },
        "effectiveDateTime": "2025-02-20T06:54:36Z",
        "specimen": {
          "reference": "urn:uuid:646ca8bc-4695-495e-a0eb-d652199a8edf"
        }
      }
    },
    {
      "fullUrl": "urn:uuid:327f9d24-5e3c-487c-9170-b86ab9a48c34",
      "resource": {
        "resourceType": "Observation",
        "id": "327f9d24-5e3c-487c-9170-b86ab9a48c34",
        "meta": {
          "profile": [
            "http://hl7.eu/fhir/laboratory/StructureDefinition/Observation-resultslab-eu-lab"
          ]
        },
        "performer": [
          {
            "display": "The Central European Lab"
          }
        ],
        "category": [
          {
            "coding": [
              {
                "system": "http://terminology.hl7.org/CodeSystem/observation-category",
                "code": "laboratory"
              }
            ]
          }
        ],
        "code": {
          "coding": [
            {
              "code": "6298-4",
              "system": "http://loinc.org",
              "display": "Potassium [Moles/volume] in Blood"
            }
          ],
          "text": "Potassium [Moles/volume] in Blood"
        },
        "valueQuantity": {
          "system": "http://unitsofmeasure.org",
          "value": 4,
          "unit": "mmol/L",
          "code": "mmol/L"
        },
        "referenceRange": [
          {
            "low": {
              "value": 3.5,
              "code": "mmol/L",
              "system": "http://unitsofmeasure.org"
            }
          },
          {
            "high": {
              "value": 5.3,
              "code": "mmol/L",
              "system": "http://unitsofmeasure.org"
            }
          }
        ],
        "text": {
          "status": "generated",
          "div": "<div xmlns=\"http://www.w3.org/1999/xhtml\"><table class=\"hl7__eu__lab__report\"><tr><th>Test</th><th>20-Feb-2025</th><th>Reference&#xA0;Range</th><th>Unit</th></tr><tr><td>Potassium [Moles/volume] in Blood</td><td>4.0</td><td>3.5 - 5.3</td><td></td><td>mmol/L</td></tr></table></div>"
        },
        "status": "final",
        "subject": {
          "reference": "urn:uuid:00285644-49a3-46ab-b862-0fc8820a3e1c",
          "display": "Alfred Rémy"
        },
        "effectiveDateTime": "2025-02-20T06:54:36Z",
        "specimen": {
          "reference": "urn:uuid:646ca8bc-4695-495e-a0eb-d652199a8edf"
        }
      }
    },
    {
      "fullUrl": "urn:uuid:830e2fb3-96a3-4d2a-8208-2250f446fda3",
      "resource": {
        "resourceType": "Observation",
        "id": "830e2fb3-96a3-4d2a-8208-2250f446fda3",
        "meta": {
          "profile": [
            "http://hl7.eu/fhir/laboratory/StructureDefinition/Observation-resultslab-eu-lab"
          ]
        },
        "performer": [
          {
            "display": "The Central European Lab"
          }
        ],
        "category": [
          {
            "coding": [
              {
                "system": "http://terminology.hl7.org/CodeSystem/observation-category",
                "code": "laboratory"
              }
            ]
          }
        ],
        "code": {
          "coding": [
            {
              "code": "2069-3",
              "system": "http://loinc.org",
              "display": "Chloride [Moles/volume] in Blood"
            }
          ],
          "text": "Chloride [Moles/volume] in Blood"
        },
        "valueQuantity": {
          "system": "http://unitsofmeasure.org",
          "value": 110,
          "unit": "mmol/L",
          "code": "mmol/L"
        },
        "referenceRange": [
          {
            "low": {
              "value": 98,
              "code": "mmol/L",
              "system": "http://unitsofmeasure.org"
            }
          },
          {
            "high": {
              "value": 110,
              "code": "mmol/L",
              "system": "http://unitsofmeasure.org"
            }
          }
        ],
        "text": {
          "status": "generated",
          "div": "<div xmlns=\"http://www.w3.org/1999/xhtml\"><table class=\"hl7__eu__lab__report\"><tr><th>Test</th><th>20-Feb-2025</th><th>Reference&#xA0;Range</th><th>Unit</th></tr><tr><td>Chloride [Moles/volume] in Blood</td><td>110.0</td><td>98 - 110</td><td></td><td>mmol/L</td></tr></table></div>"
        },
        "status": "final",
        "subject": {
          "reference": "urn:uuid:00285644-49a3-46ab-b862-0fc8820a3e1c",
          "display": "Alfred Rémy"
        },
        "effectiveDateTime": "2025-02-20T06:54:36Z",
        "specimen": {
          "reference": "urn:uuid:646ca8bc-4695-495e-a0eb-d652199a8edf"
        }
      }
    },
    {
      "fullUrl": "urn:uuid:c7750569-66c6-43aa-84f5-edd1c979e48e",
      "resource": {
        "resourceType": "Observation",
        "id": "c7750569-66c6-43aa-84f5-edd1c979e48e",
        "meta": {
          "profile": [
            "http://hl7.eu/fhir/laboratory/StructureDefinition/Observation-resultslab-eu-lab"
          ]
        },
        "performer": [
          {
            "display": "The Central European Lab"
          }
        ],
        "category": [
          {
            "coding": [
              {
                "system": "http://terminology.hl7.org/CodeSystem/observation-category",
                "code": "laboratory"
              }
            ]
          }
        ],
        "code": {
          "coding": [
            {
              "code": "20565-8",
              "system": "http://loinc.org",
              "display": "Carbon dioxide, total [Moles/volume] in Blood"
            }
          ],
          "text": "Carbon dioxide, total [Moles/volume] in Blood"
        },
        "valueQuantity": {
          "system": "http://unitsofmeasure.org",
          "value": 25.6,
          "unit": "mmol/L",
          "code": "mmol/L"
        },
        "referenceRange": [
          {
            "low": {
              "value": 22,
              "code": "mmol/L",
              "system": "http://unitsofmeasure.org"
            }
          },
          {
            "high": {
              "value": 29,
              "code": "mmol/L",
              "system": "http://unitsofmeasure.org"
            }
          }
        ],
        "text": {
          "status": "generated",
          "div": "<div xmlns=\"http://www.w3.org/1999/xhtml\"><table class=\"hl7__eu__lab__report\"><tr><th>Test</th><th>20-Feb-2025</th><th>Reference&#xA0;Range</th><th>Unit</th></tr><tr><td>Carbon dioxide, total [Moles/volume] in Blood</td><td>25.6</td><td>22 - 29</td><td></td><td>mmol/L</td></tr></table></div>"
        },
        "status": "final",
        "subject": {
          "reference": "urn:uuid:00285644-49a3-46ab-b862-0fc8820a3e1c",
          "display": "Alfred Rémy"
        },
        "effectiveDateTime": "2025-02-20T06:54:36Z",
        "specimen": {
          "reference": "urn:uuid:646ca8bc-4695-495e-a0eb-d652199a8edf"
        }
      }
    },
    {
      "fullUrl": "urn:uuid:a8efdb91-7bb9-41f4-acf3-0909f0d9ed69",
      "resource": {
        "resourceType": "Device",
        "id": "a8efdb91-7bb9-41f4-acf3-0909f0d9ed69",
        "deviceName": [
          {
            "name": "SYNDERAI Synthetic Generator",
            "type": "manufacturer-name"
          }
        ],
        "version": [
          {
            "value": "5.0"
          }
        ],
        "text": {
          "status": "generated",
          "div": "<div xmlns=\"http://www.w3.org/1999/xhtml\">SYNDERAI Synthetic Generator v5.0</div>"
        },
        "status": "active\"",
        "distinctIdentifier": "synderai-generator-50",
        "manufacturer": "SYNDERAI Project"
      }
    },
    {
      "fullUrl": "urn:uuid:bc66f0db-c4a7-4b25-98ac-257f3beba238",
      "resource": {
        "resourceType": "Provenance",
        "id": "bc66f0db-c4a7-4b25-98ac-257f3beba238",
        "target": [
          {
            "reference": "Patient/00285644-49a3-46ab-b862-0fc8820a3e1c"
          },
          {
            "reference": "Bundle/f365616d-8a92-42f7-80e5-287bf61be2ae"
          },
          {
            "reference": "Composition/d61b08c1-37a7-4b74-aec3-e8deb834ee9d"
          },
          {
            "reference": "PractitionerRole/77139636-e8fa-4d2c-ab3d-c5035a119b51"
          },
          {
            "reference": "Practitioner/b3d7e2ea-7fae-43af-8c89-b5beb80362ad"
          },
          {
            "reference": "PractitionerRole/29c14a49-c155-4fa7-8583-5fe7c07b1222"
          },
          {
            "reference": "Organization/157ca3d8-afb8-4728-b7bd-d29a9b5156ca"
          }
        ],
        "activity": {
          "text": "Synthetic Example Data Generation"
        },
        "policy": [
          "https://synderai.net/synderai-synthetic-data-policy"
        ],
        "agent": [
          {
            "type": {
              "text": "author"
            },
            "who": {
              "reference": "Device/a8efdb91-7bb9-41f4-acf3-0909f0d9ed69"
            }
          }
        ],
        "reason": [
          {
            "text": "Interoperability Testing and Training (non-clinical use)"
          }
        ],
        "text": {
          "status": "generated",
          "div": "<div xmlns=\"http://www.w3.org/1999/xhtml\">Provenance for SYNDERAI Synthetic Example Data Resource</div>"
        },
        "recorded": "2025-02-20T07:54:36Z"
      }
    },
    {
      "fullUrl": "urn:uuid:77139636-e8fa-4d2c-ab3d-c5035a119b51",
      "resource": {
        "resourceType": "PractitionerRole",
        "id": "77139636-e8fa-4d2c-ab3d-c5035a119b51",
        "meta": {
          "profile": [
            "http://hl7.eu/fhir/base/StructureDefinition/practitionerRole-eu"
          ]
        },
        "text": {
          "status": "generated",
          "div": "<div xmlns=\"http://www.w3.org/1999/xhtml\">Laboratory Role Id: 77139636-e8fa-4d2c-ab3d-c5035a119b51</div>"
        },
        "practitioner": {
          "reference": "urn:uuid:b3d7e2ea-7fae-43af-8c89-b5beb80362ad"
        }
      }
    },
    {
      "fullUrl": "urn:uuid:b3d7e2ea-7fae-43af-8c89-b5beb80362ad",
      "resource": {
        "resourceType": "Practitioner",
        "id": "b3d7e2ea-7fae-43af-8c89-b5beb80362ad",
        "meta": {
          "profile": [
            "http://hl7.eu/fhir/base/StructureDefinition/practitioner-eu"
          ]
        },
        "identifier": [
          {
            "assigner": {
              "display": "HL7 Europe"
            },
            "system": "urn:oid:2.16.840.1.113883.2.51.999",
            "value": "879f8358-47ea-4ec4-9b57-79f7b3bbbb7f"
          }
        ],
        "name": [
          {
            "prefix": [
              "dr"
            ],
            "given": [
              "Ex"
            ],
            "family": "Ample"
          }
        ],
        "address": [
          {
            "line": [
              "Laboratoire Central Européenne",
              "Boulevard du Jardin Botanique 32"
            ],
            "postalCode": "1000",
            "city": "Brussels",
            "country": "Belgium"
          }
        ],
        "text": {
          "status": "generated",
          "div": "<div xmlns=\"http://www.w3.org/1999/xhtml\">Laboratory: Laboratoire Central Européenne, 1000 Brussels, Belgium</div>"
        }
      }
    }
  ],
  "type": "document",
  "timestamp": "2025-02-20T07:54:36Z"
}
