{
  "resourceType": "Bundle",
  "id": "d23278b1-3805-4ae8-bb7a-41479ce59f03",
  "meta": {
    "profile": [
      "http://hl7.eu/fhir/laboratory/StructureDefinition/Bundle-eu-lab"
    ]
  },
  "identifier": {
    "assigner": {
      "display": "HL7 Europe"
    },
    "system": "urn:oid:2.16.840.1.113883.2.51.999",
    "value": "b132121d-79e7-46a9-afe1-5da1a4f5d7de"
  },
  "entry": [
    {
      "fullUrl": "urn:uuid:db13255f-6b90-4189-950a-daffea754eb2",
      "resource": {
        "resourceType": "Composition",
        "id": "db13255f-6b90-4189-950a-daffea754eb2",
        "meta": {
          "profile": [
            "http://hl7.eu/fhir/laboratory/StructureDefinition/Composition-eu-lab"
          ]
        },
        "identifier": {
          "assigner": {
            "display": "HL7 Europe"
          },
          "system": "urn:oid:2.16.840.1.113883.2.51.999",
          "value": "58ef79d8-0b8c-4d5c-9701-5a8409a6280d"
        },
        "author": [
          {
            "reference": "urn:uuid:10d0bbd8-cb02-482b-910a-f2cb1c628cb7"
          }
        ],
        "category": [
          {
            "coding": [
              {
                "code": "26436-6",
                "system": "http://loinc.org",
                "display": "Laboratory studies (set)"
              }
            ]
          }
        ],
        "type": {
          "coding": [
            {
              "code": "11502-2",
              "system": "http://loinc.org",
              "display": "Laboratory report"
            }
          ],
          "text": "Laboratory Report"
        },
        "section": [
          {
            "code": {
              "coding": [
                {
                  "code": "26436-6",
                  "system": "http://loinc.org",
                  "display": "Laboratory studies (set)"
                }
              ],
              "text": "Laboratory studies"
            },
            "section": [
              {
                "code": {
                  "coding": [
                    {
                      "code": "$18719-5",
                      "system": "http://loinc.org",
                      "display": "Chemistry studies (set)"
                    }
                  ],
                  "text": "Chemistry"
                },
                "entry": [
                  {
                    "reference": "urn:uuid:df2bbe9d-72fa-4e78-8a45-1ea28bfb5502"
                  },
                  {
                    "reference": "urn:uuid:fef10d66-acaf-4311-9fb9-730d90befed0"
                  },
                  {
                    "reference": "urn:uuid:2bf2a71a-2032-42c1-9963-54cc331abc99"
                  },
                  {
                    "reference": "urn:uuid:c40030a9-c458-410e-8078-1d53dd344d46"
                  },
                  {
                    "reference": "urn:uuid:c2478526-c909-48f9-bc77-c1c52c986e92"
                  },
                  {
                    "reference": "urn:uuid:92b9de3b-9417-49d1-9338-efaa3a31ebb3"
                  },
                  {
                    "reference": "urn:uuid:bd59180b-caf2-49e8-baf8-2665ab01984e"
                  },
                  {
                    "reference": "urn:uuid:93283834-313d-4788-a385-b391861d09e7"
                  },
                  {
                    "reference": "urn:uuid:2a1c1b6c-fbd4-43b0-9421-236dd736c216"
                  }
                ],
                "text": {
                  "status": "generated",
                  "div": "<div xmlns=\"http://www.w3.org/1999/xhtml\"><h3>Chemistry</h3><table class=\"hl7__eu__lab__report\"><thead><tr><th>Test</th><th>09-OCT-2016</th><th>Reference&#xA0;Range</th><th>Unit</th></tr></thead><tbody><tr><td>Hemoglobin A1c/Hemoglobin.total in Blood</td><td>5.9</td><td>4.5 - 6.4</td><td>%</td></tr><tr><td>Glucose [Mass/volume] in Blood</td><td>76.0</td><td>70 - 140</td><td>mg/dL</td></tr><tr><td>Urea nitrogen [Mass/volume] in Blood</td><td>18.9</td><td>7 - 25</td><td>mg/dL</td></tr><tr><td>Creatinine [Mass/volume] in Blood</td><td>0.6</td><td>0.6 - 1.1</td><td>mg/dL</td></tr><tr><td>Calcium [Mass/volume] in Blood</td><td>9.4</td><td>8.6 - 10.4</td><td>mg/dL</td></tr><tr><td>Sodium [Moles/volume] in Blood</td><td>136.8</td><td>135 - 145</td><td>mmol/L</td></tr><tr><td>Potassium [Moles/volume] in Blood</td><td>3.8</td><td>3.5 - 5.3</td><td>mmol/L</td></tr><tr><td>Chloride [Moles/volume] in Blood</td><td>103.4</td><td>98 - 108</td><td>mmol/L</td></tr><tr><td>Carbon dioxide, total [Moles/volume] in Blood</td><td>23.7</td><td>22 - 32</td><td>mmol/L</td></tr></tbody></table></div>"
                },
                "title": "Chemistry"
              }
            ],
            "title": "Laboratory Report"
          },
          {
            "text": {
              "status": "generated",
              "div": "<div xmlns=\"http://www.w3.org/1999/xhtml\"><h3>Annotation</h3><table class=\"hl7__eu__lab__report\"><tr><th>Conclusion and Recommendations based on this report and previous findings known to us</th></tr><tr><td>All measured laboratory values are within normal limits for this 85-year-old female patient. No evidence of acute metabolic, renal, or electrolyte disturbances. Glycemic control appears adequate. No laboratory abnormalities detected at this time. Recommend continued routine monitoring as clinically indicated.</td></tr></table></div>"
            },
            "code": {
              "coding": [
                {
                  "system": "http://loinc.org",
                  "code": "48767-8",
                  "display": "Annotation comment"
                }
              ]
            },
            "title": "Annotation comment"
          }
        ],
        "status": "final",
        "subject": {
          "reference": "urn:uuid:35a1557c-17ed-4a99-9144-56b3374c16af",
          "display": "Helene Andresen"
        },
        "date": "2016-10-09T00:53:36Z",
        "title": "Laboratory Report",
        "confidentiality": "N"
      }
    },
    {
      "fullUrl": "urn:uuid:9d2a9b0f-bfe7-497d-b486-d929d87814fb",
      "resource": {
        "resourceType": "DiagnosticReport",
        "id": "9d2a9b0f-bfe7-497d-b486-d929d87814fb",
        "meta": {
          "profile": [
            "http://hl7.eu/fhir/laboratory/StructureDefinition/DiagnosticReport-eu-lab"
          ]
        },
        "identifier": [
          {
            "assigner": {
              "display": "HL7 Europe"
            },
            "system": "urn:oid:2.16.840.1.113883.2.51.999",
            "value": "1d8e16fa-880e-46d7-80cb-d6503ce11e02"
          }
        ],
        "extension": [
          {
            "url": "http://hl7.org/fhir/5.0/StructureDefinition/extension-DiagnosticReport.composition",
            "valueReference": {
              "reference": "urn:uuid:58ef79d8-0b8c-4d5c-9701-5a8409a6280d"
            }
          }
        ],
        "category": [
          {
            "coding": [
              {
                "code": "26436-6",
                "system": "http://loinc.org",
                "display": "Laboratory studies (set)"
              }
            ]
          }
        ],
        "specimen": [
          {
            "reference": "urn:uuid:7bf719ec-5959-4e4c-ad18-17f638496be5"
          }
        ],
        "result": [
          {
            "reference": "urn:uuid:df2bbe9d-72fa-4e78-8a45-1ea28bfb5502"
          },
          {
            "reference": "urn:uuid:fef10d66-acaf-4311-9fb9-730d90befed0"
          },
          {
            "reference": "urn:uuid:2bf2a71a-2032-42c1-9963-54cc331abc99"
          },
          {
            "reference": "urn:uuid:c40030a9-c458-410e-8078-1d53dd344d46"
          },
          {
            "reference": "urn:uuid:c2478526-c909-48f9-bc77-c1c52c986e92"
          },
          {
            "reference": "urn:uuid:92b9de3b-9417-49d1-9338-efaa3a31ebb3"
          },
          {
            "reference": "urn:uuid:bd59180b-caf2-49e8-baf8-2665ab01984e"
          },
          {
            "reference": "urn:uuid:93283834-313d-4788-a385-b391861d09e7"
          },
          {
            "reference": "urn:uuid:2a1c1b6c-fbd4-43b0-9421-236dd736c216"
          }
        ],
        "status": "registered",
        "code": {
          "coding": [
            {
              "code": "11502-2",
              "system": "http://loinc.org",
              "display": "Laboratory report"
            }
          ]
        },
        "subject": {
          "reference": "urn:uuid:35a1557c-17ed-4a99-9144-56b3374c16af",
          "display": "Helene Andresen"
        }
      }
    },
    {
      "fullUrl": "urn:uuid:35a1557c-17ed-4a99-9144-56b3374c16af",
      "resource": {
        "resourceType": "Patient",
        "id": "35a1557c-17ed-4a99-9144-56b3374c16af",
        "meta": {
          "security": [
            {
              "system": "http://terminology.hl7.org/CodeSystem/v3-ActReason",
              "code": "HTEST"
            },
            {
              "system": "http://terminology.hl7.org/CodeSystem/v3-ActReason",
              "code": "TRAIN"
            }
          ],
          "tag": [
            {
              "system": "https://synderai.net/fhir/CodeSystem/tags",
              "code": "synthetic",
              "display": "SYNDERAI Synthetic data"
            }
          ],
          "profile": [
            "http://hl7.eu/fhir/base/StructureDefinition/patient-eu-core"
          ]
        },
        "identifier": [
          {
            "type": {
              "coding": [
                {
                  "code": "PT",
                  "system": "http://terminology.hl7.org/CodeSystem/v2-0203"
                }
              ]
            },
            "system": "http://ec.europa.eu/identifier/eci",
            "value": "3450-170343-2"
          },
          {
            "type": {
              "coding": [
                {
                  "code": "MR",
                  "system": "http://terminology.hl7.org/CodeSystem/v2-0203"
                }
              ]
            },
            "system": "http://local.setting.eu/identifier",
            "value": "72e91c9c-0b01-42b0-a6a0-6dcc70aeec49"
          }
        ],
        "name": [
          {
            "family": "Andresen"
          },
          {
            "given": [
              "Helene"
            ]
          },
          {
            "text": "Helene Andresen"
          }
        ],
        "address": [
          {
            "line": [
              "Kristiansenberget 2"
            ],
            "use": "home",
            "type": "physical",
            "postalCode": "0172",
            "city": "Sørensen",
            "country": "Norway"
          }
        ],
        "telecom": [
          {
            "system": "phone",
            "value": "53 98 86 24"
          }
        ],
        "extension": [
          {
            "url": "http://hl7.org/fhir/StructureDefinition/patient-nationality",
            "valueCodeableConcept": {
              "coding": [
                {
                  "code": "NO",
                  "system": "http://hl7.org/fhir/ValueSet/country"
                }
              ]
            }
          }
        ],
        "text": {
          "status": "generated",
          "div": "<div xmlns=\"http://www.w3.org/1999/xhtml\"><table class=\"hl7__ips\"><tr><td>Helene Andresen</td><td>female</td><td>17-Oct-1939</td></tr></table></div>"
        },
        "gender": "female",
        "birthDate": "1939-10-17"
      }
    },
    {
      "fullUrl": "urn:uuid:19d9fa30-7ed2-4698-9cac-0619fe09d238",
      "resource": {
        "resourceType": "ServiceRequest",
        "id": "19d9fa30-7ed2-4698-9cac-0619fe09d238",
        "meta": {
          "profile": [
            "http://hl7.eu/fhir/laboratory/StructureDefinition/ServiceRequest-eu-lab"
          ]
        },
        "identifier": [
          {
            "system": "http://example.org",
            "value": "e9deeca8-356c-4cb6-bcbb-8ebdb3613914"
          }
        ],
        "specimen": [
          {
            "reference": "urn:uuid:7bf719ec-5959-4e4c-ad18-17f638496be5"
          }
        ],
        "reasonCode": [
          {
            "coding": [
              {
                "code": "64859006",
                "system": "http://snomed.info/sct",
                "display": "Osteoporosis"
              }
            ]
          },
          {
            "coding": [
              {
                "code": "40055000",
                "system": "http://snomed.info/sct",
                "display": "Chronic sinusitis"
              }
            ]
          },
          {
            "coding": [
              {
                "code": "55822004",
                "system": "http://snomed.info/sct",
                "display": "Hyperlipidemia"
              }
            ]
          },
          {
            "coding": [
              {
                "code": "271737000",
                "system": "http://snomed.info/sct",
                "display": "Anemia"
              }
            ]
          },
          {
            "coding": [
              {
                "code": "15777000",
                "system": "http://snomed.info/sct",
                "display": "Prediabetes"
              }
            ]
          },
          {
            "coding": [
              {
                "code": "128613002",
                "system": "http://snomed.info/sct",
                "display": "Seizure disorder"
              }
            ]
          }
        ],
        "status": "active",
        "intent": "order",
        "code": {
          "coding": [
            {
              "code": "108252007",
              "system": "http://snomed.info/sct",
              "display": "Laboratory procedure"
            }
          ]
        },
        "subject": {
          "reference": "urn:uuid:35a1557c-17ed-4a99-9144-56b3374c16af",
          "display": "Helene Andresen"
        },
        "requester": {
          "reference": "urn:uuid:95e66497-e5ef-4525-9bd1-6c295610b86b"
        }
      }
    },
    {
      "fullUrl": "urn:uuid:95e66497-e5ef-4525-9bd1-6c295610b86b",
      "resource": {
        "resourceType": "PractitionerRole",
        "id": "95e66497-e5ef-4525-9bd1-6c295610b86b",
        "meta": {
          "profile": [
            "http://hl7.eu/fhir/base/StructureDefinition/practitionerRole-eu"
          ]
        },
        "text": {
          "status": "generated",
          "div": "<div xmlns=\"http://www.w3.org/1999/xhtml\">Provider Role Id: 95e66497-e5ef-4525-9bd1-6c295610b86b</div>"
        },
        "organization": {
          "reference": "urn:uuid:841e26ee-f4b4-4b85-8d26-432d05ec6843"
        }
      }
    },
    {
      "fullUrl": "urn:uuid:841e26ee-f4b4-4b85-8d26-432d05ec6843",
      "resource": {
        "resourceType": "Organization",
        "id": "841e26ee-f4b4-4b85-8d26-432d05ec6843",
        "meta": {
          "profile": [
            "http://hl7.eu/fhir/base/StructureDefinition/organization-eu"
          ]
        },
        "identifier": [
          {
            "assigner": {
              "display": "HL7 Europe"
            },
            "system": "urn:oid:2.16.840.1.113883.2.51.999",
            "value": "55c9e7ba-9a86-4825-b78c-e197b58b2025"
          }
        ],
        "address": [
          {
            "city": "Oslo",
            "postalCode": "0155",
            "country": "Norway"
          }
        ],
        "text": {
          "status": "generated",
          "div": "<div xmlns=\"http://www.w3.org/1999/xhtml\">Provider Organization: Oslo universitetssykehus (Ullevål)</div>"
        },
        "name": "Oslo universitetssykehus (Ullevål)"
      }
    },
    {
      "fullUrl": "urn:uuid:7bf719ec-5959-4e4c-ad18-17f638496be5",
      "resource": {
        "resourceType": "Specimen",
        "id": "7bf719ec-5959-4e4c-ad18-17f638496be5",
        "meta": {
          "profile": [
            "http://hl7.eu/fhir/laboratory/StructureDefinition/Specimen-eu-lab"
          ]
        },
        "collection": {
          "collectedDateTime": "2016-10-08"
        },
        "text": {
          "status": "generated",
          "div": "<div xmlns=\"http://www.w3.org/1999/xhtml\"><table class=\"hl7__eu__lab__report\"><tr><th>Specimen</th><th>Collection Date</th></tr><tr><td>Whole blood specimen (specimen)</td><td><span class=\"nb\">08-Oct-2016</span></td></tr></table></div>"
        },
        "type": {
          "coding": [
            {
              "code": "258580003",
              "system": "http://snomed.info/sct",
              "display": "Whole blood specimen (specimen)"
            }
          ]
        }
      }
    },
    {
      "fullUrl": "urn:uuid:df2bbe9d-72fa-4e78-8a45-1ea28bfb5502",
      "resource": {
        "resourceType": "Observation",
        "id": "df2bbe9d-72fa-4e78-8a45-1ea28bfb5502",
        "meta": {
          "profile": [
            "http://hl7.eu/fhir/laboratory/StructureDefinition/Observation-resultslab-eu-lab"
          ]
        },
        "performer": [
          {
            "display": "The Central European Lab"
          }
        ],
        "category": [
          {
            "coding": [
              {
                "system": "http://terminology.hl7.org/CodeSystem/observation-category",
                "code": "laboratory"
              }
            ]
          }
        ],
        "code": {
          "coding": [
            {
              "code": "4548-4",
              "system": "http://loinc.org",
              "display": "Hemoglobin A1c/Hemoglobin.total in Blood"
            }
          ],
          "text": "Hemoglobin A1c/Hemoglobin.total in Blood"
        },
        "valueQuantity": {
          "system": "http://unitsofmeasure.org",
          "value": 5.9,
          "unit": "%",
          "code": "%"
        },
        "referenceRange": [
          {
            "low": {
              "value": 4.5,
              "code": "%",
              "system": "http://unitsofmeasure.org"
            }
          },
          {
            "high": {
              "value": 6.4,
              "code": "%",
              "system": "http://unitsofmeasure.org"
            }
          }
        ],
        "text": {
          "status": "generated",
          "div": "<div xmlns=\"http://www.w3.org/1999/xhtml\"><table class=\"hl7__eu__lab__report\"><tr><th>Test</th><th>09-Oct-2016</th><th>Reference&#xA0;Range</th><th>Unit</th></tr><tr><td>Hemoglobin A1c/Hemoglobin.total in Blood</td><td>5.9</td><td>4.5 - 6.4</td><td></td><td>%</td></tr></table></div>"
        },
        "status": "final",
        "subject": {
          "reference": "urn:uuid:35a1557c-17ed-4a99-9144-56b3374c16af",
          "display": "Helene Andresen"
        },
        "effectiveDateTime": "2016-10-08T22:53:36Z",
        "specimen": {
          "reference": "urn:uuid:7bf719ec-5959-4e4c-ad18-17f638496be5"
        }
      }
    },
    {
      "fullUrl": "urn:uuid:fef10d66-acaf-4311-9fb9-730d90befed0",
      "resource": {
        "resourceType": "Observation",
        "id": "fef10d66-acaf-4311-9fb9-730d90befed0",
        "meta": {
          "profile": [
            "http://hl7.eu/fhir/laboratory/StructureDefinition/Observation-resultslab-eu-lab"
          ]
        },
        "performer": [
          {
            "display": "The Central European Lab"
          }
        ],
        "category": [
          {
            "coding": [
              {
                "system": "http://terminology.hl7.org/CodeSystem/observation-category",
                "code": "laboratory"
              }
            ]
          }
        ],
        "code": {
          "coding": [
            {
              "code": "2339-0",
              "system": "http://loinc.org",
              "display": "Glucose [Mass/volume] in Blood"
            }
          ],
          "text": "Glucose [Mass/volume] in Blood"
        },
        "valueQuantity": {
          "system": "http://unitsofmeasure.org",
          "value": 76,
          "unit": "mg/dL",
          "code": "mg/dL"
        },
        "referenceRange": [
          {
            "low": {
              "value": 70,
              "code": "mg/dL",
              "system": "http://unitsofmeasure.org"
            }
          },
          {
            "high": {
              "value": 140,
              "code": "mg/dL",
              "system": "http://unitsofmeasure.org"
            }
          }
        ],
        "text": {
          "status": "generated",
          "div": "<div xmlns=\"http://www.w3.org/1999/xhtml\"><table class=\"hl7__eu__lab__report\"><tr><th>Test</th><th>09-Oct-2016</th><th>Reference&#xA0;Range</th><th>Unit</th></tr><tr><td>Glucose [Mass/volume] in Blood</td><td>76.0</td><td>70 - 140</td><td></td><td>mg/dL</td></tr></table></div>"
        },
        "status": "final",
        "subject": {
          "reference": "urn:uuid:35a1557c-17ed-4a99-9144-56b3374c16af",
          "display": "Helene Andresen"
        },
        "effectiveDateTime": "2016-10-08T22:53:36Z",
        "specimen": {
          "reference": "urn:uuid:7bf719ec-5959-4e4c-ad18-17f638496be5"
        }
      }
    },
    {
      "fullUrl": "urn:uuid:2bf2a71a-2032-42c1-9963-54cc331abc99",
      "resource": {
        "resourceType": "Observation",
        "id": "2bf2a71a-2032-42c1-9963-54cc331abc99",
        "meta": {
          "profile": [
            "http://hl7.eu/fhir/laboratory/StructureDefinition/Observation-resultslab-eu-lab"
          ]
        },
        "performer": [
          {
            "display": "The Central European Lab"
          }
        ],
        "category": [
          {
            "coding": [
              {
                "system": "http://terminology.hl7.org/CodeSystem/observation-category",
                "code": "laboratory"
              }
            ]
          }
        ],
        "code": {
          "coding": [
            {
              "code": "6299-2",
              "system": "http://loinc.org",
              "display": "Urea nitrogen [Mass/volume] in Blood"
            }
          ],
          "text": "Urea nitrogen [Mass/volume] in Blood"
        },
        "valueQuantity": {
          "system": "http://unitsofmeasure.org",
          "value": 18.9,
          "unit": "mg/dL",
          "code": "mg/dL"
        },
        "referenceRange": [
          {
            "low": {
              "value": 7,
              "code": "mg/dL",
              "system": "http://unitsofmeasure.org"
            }
          },
          {
            "high": {
              "value": 25,
              "code": "mg/dL",
              "system": "http://unitsofmeasure.org"
            }
          }
        ],
        "text": {
          "status": "generated",
          "div": "<div xmlns=\"http://www.w3.org/1999/xhtml\"><table class=\"hl7__eu__lab__report\"><tr><th>Test</th><th>09-Oct-2016</th><th>Reference&#xA0;Range</th><th>Unit</th></tr><tr><td>Urea nitrogen [Mass/volume] in Blood</td><td>18.9</td><td>7 - 25</td><td></td><td>mg/dL</td></tr></table></div>"
        },
        "status": "final",
        "subject": {
          "reference": "urn:uuid:35a1557c-17ed-4a99-9144-56b3374c16af",
          "display": "Helene Andresen"
        },
        "effectiveDateTime": "2016-10-08T22:53:36Z",
        "specimen": {
          "reference": "urn:uuid:7bf719ec-5959-4e4c-ad18-17f638496be5"
        }
      }
    },
    {
      "fullUrl": "urn:uuid:c40030a9-c458-410e-8078-1d53dd344d46",
      "resource": {
        "resourceType": "Observation",
        "id": "c40030a9-c458-410e-8078-1d53dd344d46",
        "meta": {
          "profile": [
            "http://hl7.eu/fhir/laboratory/StructureDefinition/Observation-resultslab-eu-lab"
          ]
        },
        "performer": [
          {
            "display": "The Central European Lab"
          }
        ],
        "category": [
          {
            "coding": [
              {
                "system": "http://terminology.hl7.org/CodeSystem/observation-category",
                "code": "laboratory"
              }
            ]
          }
        ],
        "code": {
          "coding": [
            {
              "code": "38483-4",
              "system": "http://loinc.org",
              "display": "Creatinine [Mass/volume] in Blood"
            }
          ],
          "text": "Creatinine [Mass/volume] in Blood"
        },
        "valueQuantity": {
          "system": "http://unitsofmeasure.org",
          "value": 0.6,
          "unit": "mg/dL",
          "code": "mg/dL"
        },
        "referenceRange": [
          {
            "low": {
              "value": 0.6,
              "code": "mg/dL",
              "system": "http://unitsofmeasure.org"
            }
          },
          {
            "high": {
              "value": 1.1,
              "code": "mg/dL",
              "system": "http://unitsofmeasure.org"
            }
          }
        ],
        "text": {
          "status": "generated",
          "div": "<div xmlns=\"http://www.w3.org/1999/xhtml\"><table class=\"hl7__eu__lab__report\"><tr><th>Test</th><th>09-Oct-2016</th><th>Reference&#xA0;Range</th><th>Unit</th></tr><tr><td>Creatinine [Mass/volume] in Blood</td><td>0.6</td><td>0.6 - 1.1</td><td></td><td>mg/dL</td></tr></table></div>"
        },
        "status": "final",
        "subject": {
          "reference": "urn:uuid:35a1557c-17ed-4a99-9144-56b3374c16af",
          "display": "Helene Andresen"
        },
        "effectiveDateTime": "2016-10-08T22:53:36Z",
        "specimen": {
          "reference": "urn:uuid:7bf719ec-5959-4e4c-ad18-17f638496be5"
        }
      }
    },
    {
      "fullUrl": "urn:uuid:c2478526-c909-48f9-bc77-c1c52c986e92",
      "resource": {
        "resourceType": "Observation",
        "id": "c2478526-c909-48f9-bc77-c1c52c986e92",
        "meta": {
          "profile": [
            "http://hl7.eu/fhir/laboratory/StructureDefinition/Observation-resultslab-eu-lab"
          ]
        },
        "performer": [
          {
            "display": "The Central European Lab"
          }
        ],
        "category": [
          {
            "coding": [
              {
                "system": "http://terminology.hl7.org/CodeSystem/observation-category",
                "code": "laboratory"
              }
            ]
          }
        ],
        "code": {
          "coding": [
            {
              "code": "49765-1",
              "system": "http://loinc.org",
              "display": "Calcium [Mass/volume] in Blood"
            }
          ],
          "text": "Calcium [Mass/volume] in Blood"
        },
        "valueQuantity": {
          "system": "http://unitsofmeasure.org",
          "value": 9.4,
          "unit": "mg/dL",
          "code": "mg/dL"
        },
        "referenceRange": [
          {
            "low": {
              "value": 8.6,
              "code": "mg/dL",
              "system": "http://unitsofmeasure.org"
            }
          },
          {
            "high": {
              "value": 10.4,
              "code": "mg/dL",
              "system": "http://unitsofmeasure.org"
            }
          }
        ],
        "text": {
          "status": "generated",
          "div": "<div xmlns=\"http://www.w3.org/1999/xhtml\"><table class=\"hl7__eu__lab__report\"><tr><th>Test</th><th>09-Oct-2016</th><th>Reference&#xA0;Range</th><th>Unit</th></tr><tr><td>Calcium [Mass/volume] in Blood</td><td>9.4</td><td>8.6 - 10.4</td><td></td><td>mg/dL</td></tr></table></div>"
        },
        "status": "final",
        "subject": {
          "reference": "urn:uuid:35a1557c-17ed-4a99-9144-56b3374c16af",
          "display": "Helene Andresen"
        },
        "effectiveDateTime": "2016-10-08T22:53:36Z",
        "specimen": {
          "reference": "urn:uuid:7bf719ec-5959-4e4c-ad18-17f638496be5"
        }
      }
    },
    {
      "fullUrl": "urn:uuid:92b9de3b-9417-49d1-9338-efaa3a31ebb3",
      "resource": {
        "resourceType": "Observation",
        "id": "92b9de3b-9417-49d1-9338-efaa3a31ebb3",
        "meta": {
          "profile": [
            "http://hl7.eu/fhir/laboratory/StructureDefinition/Observation-resultslab-eu-lab"
          ]
        },
        "performer": [
          {
            "display": "The Central European Lab"
          }
        ],
        "category": [
          {
            "coding": [
              {
                "system": "http://terminology.hl7.org/CodeSystem/observation-category",
                "code": "laboratory"
              }
            ]
          }
        ],
        "code": {
          "coding": [
            {
              "code": "2947-0",
              "system": "http://loinc.org",
              "display": "Sodium [Moles/volume] in Blood"
            }
          ],
          "text": "Sodium [Moles/volume] in Blood"
        },
        "valueQuantity": {
          "system": "http://unitsofmeasure.org",
          "value": 136.8,
          "unit": "mmol/L",
          "code": "mmol/L"
        },
        "referenceRange": [
          {
            "low": {
              "value": 135,
              "code": "mmol/L",
              "system": "http://unitsofmeasure.org"
            }
          },
          {
            "high": {
              "value": 145,
              "code": "mmol/L",
              "system": "http://unitsofmeasure.org"
            }
          }
        ],
        "text": {
          "status": "generated",
          "div": "<div xmlns=\"http://www.w3.org/1999/xhtml\"><table class=\"hl7__eu__lab__report\"><tr><th>Test</th><th>09-Oct-2016</th><th>Reference&#xA0;Range</th><th>Unit</th></tr><tr><td>Sodium [Moles/volume] in Blood</td><td>136.8</td><td>135 - 145</td><td></td><td>mmol/L</td></tr></table></div>"
        },
        "status": "final",
        "subject": {
          "reference": "urn:uuid:35a1557c-17ed-4a99-9144-56b3374c16af",
          "display": "Helene Andresen"
        },
        "effectiveDateTime": "2016-10-08T22:53:36Z",
        "specimen": {
          "reference": "urn:uuid:7bf719ec-5959-4e4c-ad18-17f638496be5"
        }
      }
    },
    {
      "fullUrl": "urn:uuid:bd59180b-caf2-49e8-baf8-2665ab01984e",
      "resource": {
        "resourceType": "Observation",
        "id": "bd59180b-caf2-49e8-baf8-2665ab01984e",
        "meta": {
          "profile": [
            "http://hl7.eu/fhir/laboratory/StructureDefinition/Observation-resultslab-eu-lab"
          ]
        },
        "performer": [
          {
            "display": "The Central European Lab"
          }
        ],
        "category": [
          {
            "coding": [
              {
                "system": "http://terminology.hl7.org/CodeSystem/observation-category",
                "code": "laboratory"
              }
            ]
          }
        ],
        "code": {
          "coding": [
            {
              "code": "6298-4",
              "system": "http://loinc.org",
              "display": "Potassium [Moles/volume] in Blood"
            }
          ],
          "text": "Potassium [Moles/volume] in Blood"
        },
        "valueQuantity": {
          "system": "http://unitsofmeasure.org",
          "value": 3.8,
          "unit": "mmol/L",
          "code": "mmol/L"
        },
        "referenceRange": [
          {
            "low": {
              "value": 3.5,
              "code": "mmol/L",
              "system": "http://unitsofmeasure.org"
            }
          },
          {
            "high": {
              "value": 5.3,
              "code": "mmol/L",
              "system": "http://unitsofmeasure.org"
            }
          }
        ],
        "text": {
          "status": "generated",
          "div": "<div xmlns=\"http://www.w3.org/1999/xhtml\"><table class=\"hl7__eu__lab__report\"><tr><th>Test</th><th>09-Oct-2016</th><th>Reference&#xA0;Range</th><th>Unit</th></tr><tr><td>Potassium [Moles/volume] in Blood</td><td>3.8</td><td>3.5 - 5.3</td><td></td><td>mmol/L</td></tr></table></div>"
        },
        "status": "final",
        "subject": {
          "reference": "urn:uuid:35a1557c-17ed-4a99-9144-56b3374c16af",
          "display": "Helene Andresen"
        },
        "effectiveDateTime": "2016-10-08T22:53:36Z",
        "specimen": {
          "reference": "urn:uuid:7bf719ec-5959-4e4c-ad18-17f638496be5"
        }
      }
    },
    {
      "fullUrl": "urn:uuid:93283834-313d-4788-a385-b391861d09e7",
      "resource": {
        "resourceType": "Observation",
        "id": "93283834-313d-4788-a385-b391861d09e7",
        "meta": {
          "profile": [
            "http://hl7.eu/fhir/laboratory/StructureDefinition/Observation-resultslab-eu-lab"
          ]
        },
        "performer": [
          {
            "display": "The Central European Lab"
          }
        ],
        "category": [
          {
            "coding": [
              {
                "system": "http://terminology.hl7.org/CodeSystem/observation-category",
                "code": "laboratory"
              }
            ]
          }
        ],
        "code": {
          "coding": [
            {
              "code": "2069-3",
              "system": "http://loinc.org",
              "display": "Chloride [Moles/volume] in Blood"
            }
          ],
          "text": "Chloride [Moles/volume] in Blood"
        },
        "valueQuantity": {
          "system": "http://unitsofmeasure.org",
          "value": 103.4,
          "unit": "mmol/L",
          "code": "mmol/L"
        },
        "referenceRange": [
          {
            "low": {
              "value": 98,
              "code": "mmol/L",
              "system": "http://unitsofmeasure.org"
            }
          },
          {
            "high": {
              "value": 108,
              "code": "mmol/L",
              "system": "http://unitsofmeasure.org"
            }
          }
        ],
        "text": {
          "status": "generated",
          "div": "<div xmlns=\"http://www.w3.org/1999/xhtml\"><table class=\"hl7__eu__lab__report\"><tr><th>Test</th><th>09-Oct-2016</th><th>Reference&#xA0;Range</th><th>Unit</th></tr><tr><td>Chloride [Moles/volume] in Blood</td><td>103.4</td><td>98 - 108</td><td></td><td>mmol/L</td></tr></table></div>"
        },
        "status": "final",
        "subject": {
          "reference": "urn:uuid:35a1557c-17ed-4a99-9144-56b3374c16af",
          "display": "Helene Andresen"
        },
        "effectiveDateTime": "2016-10-08T22:53:36Z",
        "specimen": {
          "reference": "urn:uuid:7bf719ec-5959-4e4c-ad18-17f638496be5"
        }
      }
    },
    {
      "fullUrl": "urn:uuid:2a1c1b6c-fbd4-43b0-9421-236dd736c216",
      "resource": {
        "resourceType": "Observation",
        "id": "2a1c1b6c-fbd4-43b0-9421-236dd736c216",
        "meta": {
          "profile": [
            "http://hl7.eu/fhir/laboratory/StructureDefinition/Observation-resultslab-eu-lab"
          ]
        },
        "performer": [
          {
            "display": "The Central European Lab"
          }
        ],
        "category": [
          {
            "coding": [
              {
                "system": "http://terminology.hl7.org/CodeSystem/observation-category",
                "code": "laboratory"
              }
            ]
          }
        ],
        "code": {
          "coding": [
            {
              "code": "20565-8",
              "system": "http://loinc.org",
              "display": "Carbon dioxide, total [Moles/volume] in Blood"
            }
          ],
          "text": "Carbon dioxide, total [Moles/volume] in Blood"
        },
        "valueQuantity": {
          "system": "http://unitsofmeasure.org",
          "value": 23.7,
          "unit": "mmol/L",
          "code": "mmol/L"
        },
        "referenceRange": [
          {
            "low": {
              "value": 22,
              "code": "mmol/L",
              "system": "http://unitsofmeasure.org"
            }
          },
          {
            "high": {
              "value": 32,
              "code": "mmol/L",
              "system": "http://unitsofmeasure.org"
            }
          }
        ],
        "text": {
          "status": "generated",
          "div": "<div xmlns=\"http://www.w3.org/1999/xhtml\"><table class=\"hl7__eu__lab__report\"><tr><th>Test</th><th>09-Oct-2016</th><th>Reference&#xA0;Range</th><th>Unit</th></tr><tr><td>Carbon dioxide, total [Moles/volume] in Blood</td><td>23.7</td><td>22 - 32</td><td></td><td>mmol/L</td></tr></table></div>"
        },
        "status": "final",
        "subject": {
          "reference": "urn:uuid:35a1557c-17ed-4a99-9144-56b3374c16af",
          "display": "Helene Andresen"
        },
        "effectiveDateTime": "2016-10-08T22:53:36Z",
        "specimen": {
          "reference": "urn:uuid:7bf719ec-5959-4e4c-ad18-17f638496be5"
        }
      }
    },
    {
      "fullUrl": "urn:uuid:ead6a668-2620-48f8-ae9f-a527fa3f7653",
      "resource": {
        "resourceType": "Device",
        "id": "ead6a668-2620-48f8-ae9f-a527fa3f7653",
        "deviceName": [
          {
            "name": "SYNDERAI Synthetic Generator",
            "type": "manufacturer-name"
          }
        ],
        "version": [
          {
            "value": "5.0"
          }
        ],
        "text": {
          "status": "generated",
          "div": "<div xmlns=\"http://www.w3.org/1999/xhtml\">SYNDERAI Synthetic Generator v5.0</div>"
        },
        "status": "active\"",
        "distinctIdentifier": "synderai-generator-50",
        "manufacturer": "SYNDERAI Project"
      }
    },
    {
      "fullUrl": "urn:uuid:81b08e72-20db-4512-b185-0955d0af4e0b",
      "resource": {
        "resourceType": "Provenance",
        "id": "81b08e72-20db-4512-b185-0955d0af4e0b",
        "target": [
          {
            "reference": "Patient/35a1557c-17ed-4a99-9144-56b3374c16af"
          },
          {
            "reference": "Bundle/d23278b1-3805-4ae8-bb7a-41479ce59f03"
          },
          {
            "reference": "Composition/db13255f-6b90-4189-950a-daffea754eb2"
          },
          {
            "reference": "PractitionerRole/10d0bbd8-cb02-482b-910a-f2cb1c628cb7"
          },
          {
            "reference": "Practitioner/efe835cc-dc2f-4c95-bf30-486b924e0db5"
          },
          {
            "reference": "PractitionerRole/95e66497-e5ef-4525-9bd1-6c295610b86b"
          },
          {
            "reference": "Organization/841e26ee-f4b4-4b85-8d26-432d05ec6843"
          }
        ],
        "activity": {
          "text": "Synthetic Example Data Generation"
        },
        "policy": [
          "https://synderai.net/synderai-synthetic-data-policy"
        ],
        "agent": [
          {
            "type": {
              "text": "author"
            },
            "who": {
              "reference": "Device/ead6a668-2620-48f8-ae9f-a527fa3f7653"
            }
          }
        ],
        "reason": [
          {
            "text": "Interoperability Testing and Training (non-clinical use)"
          }
        ],
        "text": {
          "status": "generated",
          "div": "<div xmlns=\"http://www.w3.org/1999/xhtml\">Provenance for SYNDERAI Synthetic Example Data Resource</div>"
        },
        "recorded": "2016-10-09T00:53:36Z"
      }
    },
    {
      "fullUrl": "urn:uuid:10d0bbd8-cb02-482b-910a-f2cb1c628cb7",
      "resource": {
        "resourceType": "PractitionerRole",
        "id": "10d0bbd8-cb02-482b-910a-f2cb1c628cb7",
        "meta": {
          "profile": [
            "http://hl7.eu/fhir/base/StructureDefinition/practitionerRole-eu"
          ]
        },
        "text": {
          "status": "generated",
          "div": "<div xmlns=\"http://www.w3.org/1999/xhtml\">Laboratory Role Id: 10d0bbd8-cb02-482b-910a-f2cb1c628cb7</div>"
        },
        "practitioner": {
          "reference": "urn:uuid:efe835cc-dc2f-4c95-bf30-486b924e0db5"
        }
      }
    },
    {
      "fullUrl": "urn:uuid:efe835cc-dc2f-4c95-bf30-486b924e0db5",
      "resource": {
        "resourceType": "Practitioner",
        "id": "efe835cc-dc2f-4c95-bf30-486b924e0db5",
        "meta": {
          "profile": [
            "http://hl7.eu/fhir/base/StructureDefinition/practitioner-eu"
          ]
        },
        "identifier": [
          {
            "assigner": {
              "display": "HL7 Europe"
            },
            "system": "urn:oid:2.16.840.1.113883.2.51.999",
            "value": "9a90bb40-a633-42a2-a8eb-1555199f674d"
          }
        ],
        "name": [
          {
            "prefix": [
              "dr"
            ],
            "given": [
              "Ex"
            ],
            "family": "Ample"
          }
        ],
        "address": [
          {
            "line": [
              "Laboratoire Central Européenne",
              "Boulevard du Jardin Botanique 32"
            ],
            "postalCode": "1000",
            "city": "Brussels",
            "country": "Belgium"
          }
        ],
        "text": {
          "status": "generated",
          "div": "<div xmlns=\"http://www.w3.org/1999/xhtml\">Laboratory: Laboratoire Central Européenne, 1000 Brussels, Belgium</div>"
        }
      }
    }
  ],
  "type": "document",
  "timestamp": "2016-10-09T00:53:36Z"
}
