{
  "resourceType": "Bundle",
  "id": "77f269c8-fde8-49ee-8db7-73b16fc00815",
  "meta": {
    "profile": [
      "http://hl7.eu/fhir/laboratory/StructureDefinition/Bundle-eu-lab"
    ]
  },
  "identifier": {
    "assigner": {
      "display": "HL7 Europe"
    },
    "system": "urn:oid:2.16.840.1.113883.2.51.999",
    "value": "f75212a4-74a1-46da-abb6-49e6866b9c78"
  },
  "entry": [
    {
      "fullUrl": "urn:uuid:7add6e5f-cda6-4f3b-a45a-7702cf837bfe",
      "resource": {
        "resourceType": "Composition",
        "id": "7add6e5f-cda6-4f3b-a45a-7702cf837bfe",
        "meta": {
          "profile": [
            "http://hl7.eu/fhir/laboratory/StructureDefinition/Composition-eu-lab"
          ]
        },
        "identifier": {
          "assigner": {
            "display": "HL7 Europe"
          },
          "system": "urn:oid:2.16.840.1.113883.2.51.999",
          "value": "b8e94d46-583f-4bfb-aacf-b9924935ea65"
        },
        "author": [
          {
            "reference": "urn:uuid:f93c5209-8b3d-4301-8c4c-1df8aae7660d"
          }
        ],
        "category": [
          {
            "coding": [
              {
                "code": "26436-6",
                "system": "http://loinc.org",
                "display": "Laboratory studies (set)"
              }
            ]
          }
        ],
        "type": {
          "coding": [
            {
              "code": "11502-2",
              "system": "http://loinc.org",
              "display": "Laboratory report"
            }
          ],
          "text": "Laboratory Report"
        },
        "section": [
          {
            "code": {
              "coding": [
                {
                  "code": "26436-6",
                  "system": "http://loinc.org",
                  "display": "Laboratory studies (set)"
                }
              ],
              "text": "Laboratory studies"
            },
            "section": [
              {
                "code": {
                  "coding": [
                    {
                      "code": "$18719-5",
                      "system": "http://loinc.org",
                      "display": "Chemistry studies (set)"
                    }
                  ],
                  "text": "Chemistry"
                },
                "entry": [
                  {
                    "reference": "urn:uuid:d2f514c7-c812-451e-9b24-319202091e1b"
                  },
                  {
                    "reference": "urn:uuid:411def53-7fbe-49b9-ac6b-740cebf8995e"
                  },
                  {
                    "reference": "urn:uuid:651bb451-a71b-4662-9507-dcc6da02f6c8"
                  },
                  {
                    "reference": "urn:uuid:436b456f-7816-4b1b-ba34-f955aedae150"
                  },
                  {
                    "reference": "urn:uuid:ed64f721-7e0f-447d-9dee-e6e035324025"
                  },
                  {
                    "reference": "urn:uuid:159b748d-7af5-45d5-9613-db5f41f96467"
                  },
                  {
                    "reference": "urn:uuid:11cee316-d6fa-4203-8b9f-56ea88e489d3"
                  },
                  {
                    "reference": "urn:uuid:14764e4e-14d5-477d-95bb-bb739b923e71"
                  },
                  {
                    "reference": "urn:uuid:7f153ece-c4c8-4b93-9c6a-a86d53994c00"
                  },
                  {
                    "reference": "urn:uuid:f32a347d-3b7f-4b9e-85d6-04d8467d3986"
                  },
                  {
                    "reference": "urn:uuid:67926f9c-3c93-4831-a78a-1e5af1437ea8"
                  },
                  {
                    "reference": "urn:uuid:c3ed67e8-0c14-422c-a826-c1d4d751a611"
                  },
                  {
                    "reference": "urn:uuid:0d291e31-1c27-4752-9666-d18a62bce528"
                  },
                  {
                    "reference": "urn:uuid:563c6a94-28e5-4bb7-aeaf-7202cdd47a81"
                  },
                  {
                    "reference": "urn:uuid:74432886-9f87-4412-a615-431937ef19c2"
                  },
                  {
                    "reference": "urn:uuid:0f38d301-04a8-4ffc-a476-f82219a7cba6"
                  },
                  {
                    "reference": "urn:uuid:171d82b2-91f9-49ca-9760-36a08c01171c"
                  },
                  {
                    "reference": "urn:uuid:ed0b2653-8371-4dc0-b72c-46a4b752dd18"
                  }
                ],
                "text": {
                  "status": "generated",
                  "div": "<div xmlns=\"http://www.w3.org/1999/xhtml\"><h3>Chemistry</h3><table class=\"hl7__eu__lab__report\"><thead><tr><th>Test</th><th>06-OCT-2024</th><th>Reference&#xA0;Range</th><th>Unit</th></tr></thead><tbody><tr><td>Glucose [Mass/volume] in Serum or Plasma</td><td>82.7</td><td>70 - 99</td><td>mg/dL</td></tr><tr><td>Urea nitrogen [Mass/volume] in Serum or Plasma</td><td>9.7</td><td>7 - 20</td><td>mg/dL</td></tr><tr><td>Creatinine [Mass/volume] in Serum or Plasma</td><td><strong>2.0 H</strong></td><td>0.6 - 1.3</td><td>mg/dL</td></tr><tr><td>Calcium [Mass/volume] in Serum or Plasma</td><td>9.9</td><td>8.6 - 10.4</td><td>mg/dL</td></tr><tr><td>Sodium [Moles/volume] in Serum or Plasma</td><td>137.1</td><td>135 - 145</td><td>mmol/L</td></tr><tr><td>Potassium [Moles/volume] in Serum or Plasma</td><td>4.2</td><td>3.5 - 5</td><td>mmol/L</td></tr><tr><td>Chloride [Moles/volume] in Serum or Plasma</td><td>102.5</td><td>98 - 106</td><td>mmol/L</td></tr><tr><td>Carbon dioxide, total [Moles/volume] in Serum or Plasma</td><td><strong>21.4 L</strong></td><td>22 - 29</td><td>mmol/L</td></tr><tr><td>Ketones [Presence] in Urine by Test strip</td><td>Urine ketone test = +</td><td></td><td></td></tr><tr><td>Hemoglobin A1c/Hemoglobin.total in Blood</td><td><strong>3.1 L</strong></td><td>4 - 6</td><td>%</td></tr><tr><td>Glucose [Mass/volume] in Blood</td><td>82.7</td><td>70 - 140</td><td>mg/dL</td></tr><tr><td>Urea nitrogen [Mass/volume] in Blood</td><td>9.7</td><td>7 - 25</td><td>mg/dL</td></tr><tr><td>Creatinine [Mass/volume] in Blood</td><td><strong>1.7 H</strong></td><td>0.6 - 1.1</td><td>mg/dL</td></tr><tr><td>Calcium [Mass/volume] in Blood</td><td>9.9</td><td>8.6 - 10.4</td><td>mg/dL</td></tr><tr><td>Sodium [Moles/volume] in Blood</td><td>137.1</td><td>135 - 145</td><td>mmol/L</td></tr><tr><td>Potassium [Moles/volume] in Blood</td><td>4.2</td><td>3.5 - 5.1</td><td>mmol/L</td></tr><tr><td>Chloride [Moles/volume] in Blood</td><td>102.5</td><td>98 - 110</td><td>mmol/L</td></tr><tr><td>Carbon dioxide, total [Moles/volume] in Blood</td><td><strong>21.4 L</strong></td><td>22 - 29</td><td>mmol/L</td></tr></tbody></table></div>"
                },
                "title": "Chemistry"
              },
              {
                "code": {
                  "coding": [
                    {
                      "code": "$18729-4",
                      "system": "http://loinc.org",
                      "display": "Urinalysis studies (set)"
                    }
                  ],
                  "text": "Urinalysis"
                },
                "entry": [
                  {
                    "reference": "urn:uuid:3c34f649-9748-4528-95d3-c883abfb7354"
                  },
                  {
                    "reference": "urn:uuid:b11c5315-ffba-4d0d-a4fb-583bdcb1d477"
                  },
                  {
                    "reference": "urn:uuid:6e1b58c2-abbb-4466-8026-ef2a28420ff5"
                  },
                  {
                    "reference": "urn:uuid:ab95025b-202d-40eb-9e0f-60127dd80fb9"
                  },
                  {
                    "reference": "urn:uuid:39d20597-7d04-4bb4-a525-50b769747d97"
                  },
                  {
                    "reference": "urn:uuid:2345021e-6279-4747-b421-7510534af8e2"
                  },
                  {
                    "reference": "urn:uuid:678322d3-711c-4fa0-929e-fa3d122aeafa"
                  },
                  {
                    "reference": "urn:uuid:c9cdea9e-4646-4309-9174-8a719805d2cc"
                  },
                  {
                    "reference": "urn:uuid:00902969-e71d-4548-b45c-9c0cac34a362"
                  },
                  {
                    "reference": "urn:uuid:4d61a596-6cb6-42c0-8d4d-26974ba10467"
                  },
                  {
                    "reference": "urn:uuid:cabf6dd9-e4b5-4c12-b74e-c9fe39c80f42"
                  },
                  {
                    "reference": "urn:uuid:58e37f87-8dbc-4c67-9e41-850f501bf237"
                  }
                ],
                "text": {
                  "status": "generated",
                  "div": "<div xmlns=\"http://www.w3.org/1999/xhtml\"><h3>Urinalysis</h3><table class=\"hl7__eu__lab__report\"><thead><tr><th>Test</th><th>06-OCT-2024</th><th>Reference&#xA0;Range</th><th>Unit</th></tr></thead><tbody><tr><td>Glucose [Mass/volume] in Urine by Test strip</td><td><strong>1.3 H</strong></td><td>0 - 0.8</td><td>mg/dL</td></tr><tr><td>Glucose [Presence] in Urine by Test strip</td><td>++</td><td></td><td></td></tr><tr><td>Bilirubin.total [Mass/volume] in Urine by Test strip</td><td><strong>1.4 H</strong></td><td>0 - 1</td><td>mg/dL</td></tr><tr><td>Bilirubin.total [Presence] in Urine by Test strip</td><td>Finding of bilirubin in urine</td><td></td><td></td></tr><tr><td>Ketones [Mass/volume] in Urine by Test strip</td><td><strong>8.6 H</strong></td><td>0 - 4</td><td>mg/dL</td></tr><tr><td>Specific gravity of Urine by Test strip</td><td><strong>1.0 L</strong></td><td>1.005 - 1.03</td><td>{nominal}</td></tr><tr><td>pH of Urine by Test strip</td><td>5.8</td><td>4.5 - 7</td><td>pH</td></tr><tr><td>Protein [Mass/volume] in Urine by Test strip</td><td><strong>168.2 H</strong></td><td>0 - 145</td><td>mg/dL</td></tr><tr><td>Protein [Presence] in Urine by Test strip</td><td>Urine protein test = ++</td><td></td><td></td></tr><tr><td>Nitrite [Presence] in Urine by Test strip</td><td>Urine nitrite negative</td><td></td><td></td></tr><tr><td>Hemoglobin [Presence] in Urine by Test strip</td><td>Urine blood test = negative</td><td></td><td></td></tr><tr><td>Leukocyte esterase [Presence] in Urine by Test strip</td><td>Urine leukocyte test negative</td><td></td><td></td></tr></tbody></table></div>"
                },
                "title": "Urinalysis"
              },
              {
                "code": {
                  "coding": [
                    {
                      "code": "$LP7846-1",
                      "system": "http://loinc.org",
                      "display": "Specimen information"
                    }
                  ],
                  "text": "Specimen information"
                },
                "entry": [
                  {
                    "reference": "urn:uuid:e5836876-9c11-413f-ad1c-76b0270b7414"
                  },
                  {
                    "reference": "urn:uuid:92c29047-546b-4dda-9cbb-af9e703d4990"
                  },
                  {
                    "reference": "urn:uuid:9585e07e-8242-4e8d-a77a-7566a4751426"
                  },
                  {
                    "reference": "urn:uuid:ec96f73c-5e20-4b1a-af73-03b31bed5e1b"
                  }
                ],
                "text": {
                  "status": "generated",
                  "div": "<div xmlns=\"http://www.w3.org/1999/xhtml\"><h3>Specimen information</h3><table class=\"hl7__eu__lab__report\"><thead><tr><th>Test</th><th>06-OCT-2024</th><th>Specimen</th><th></th></tr></thead><tbody><tr><td>Appearance of Urine</td><td>Cloudy urine</td><td>Urine</td><td></td></tr><tr><td>Odor of Urine</td><td>Urine smell ammoniacal</td><td>Urine</td><td></td></tr><tr><td>Clarity of Urine</td><td>Translucent</td><td>Urine</td><td></td></tr><tr><td>Color of Urine</td><td>Brown color</td><td>Urine</td><td></td></tr></tbody></table></div>"
                },
                "title": "Specimen information"
              }
            ],
            "title": "Laboratory Report"
          },
          {
            "text": {
              "status": "generated",
              "div": "<div xmlns=\"http://www.w3.org/1999/xhtml\"><h3>Annotation</h3><table class=\"hl7__eu__lab__report\"><tr><th>Conclusion and Recommendations based on this report and previous findings known to us</th></tr><tr><td>The patient shows elevated creatinine, suggesting impaired renal function. Urinalysis reveals proteinuria, glucosuria, ketonuria, bilirubinuria, low specific gravity, and abnormal urine color/appearance, indicating possible renal tubular dysfunction and/or uncontrolled metabolic state. Blood glucose is normal, but HbA1c is low, which may reflect recent hypoglycemia or anemia. Mild metabolic acidosis is suggested by low CO₂. Recommend further nephrological and metabolic evaluation, and clinical correlation for possible acute or chronic kidney disease and underlying metabolic disturbances.</td></tr></table></div>"
            },
            "code": {
              "coding": [
                {
                  "system": "http://loinc.org",
                  "code": "48767-8",
                  "display": "Annotation comment"
                }
              ]
            },
            "title": "Annotation comment"
          }
        ],
        "status": "final",
        "subject": {
          "reference": "urn:uuid:605a9e16-fe92-4145-bd00-fd685182ae07",
          "display": "Iva Kratochvílová"
        },
        "date": "2024-10-06T18:10:29Z",
        "title": "Laboratory Report",
        "confidentiality": "N"
      }
    },
    {
      "fullUrl": "urn:uuid:8f13d801-365d-47a7-aace-4b0d3fe8ca9d",
      "resource": {
        "resourceType": "DiagnosticReport",
        "id": "8f13d801-365d-47a7-aace-4b0d3fe8ca9d",
        "meta": {
          "profile": [
            "http://hl7.eu/fhir/laboratory/StructureDefinition/DiagnosticReport-eu-lab"
          ]
        },
        "identifier": [
          {
            "assigner": {
              "display": "HL7 Europe"
            },
            "system": "urn:oid:2.16.840.1.113883.2.51.999",
            "value": "daea4931-edae-4bbb-94de-fbe11a49af68"
          }
        ],
        "extension": [
          {
            "url": "http://hl7.org/fhir/5.0/StructureDefinition/extension-DiagnosticReport.composition",
            "valueReference": {
              "reference": "urn:uuid:b8e94d46-583f-4bfb-aacf-b9924935ea65"
            }
          }
        ],
        "category": [
          {
            "coding": [
              {
                "code": "26436-6",
                "system": "http://loinc.org",
                "display": "Laboratory studies (set)"
              }
            ]
          }
        ],
        "specimen": [
          {
            "reference": "urn:uuid:1e1a6ab2-5a4c-4f28-8cb5-caec538277ec"
          },
          {
            "reference": "urn:uuid:b09f2c0c-c7e1-43a8-8866-74ca6ae9e1f1"
          },
          {
            "reference": "urn:uuid:486e99b6-958f-4b10-9a99-54c68028a9e7"
          }
        ],
        "result": [
          {
            "reference": "urn:uuid:d2f514c7-c812-451e-9b24-319202091e1b"
          },
          {
            "reference": "urn:uuid:411def53-7fbe-49b9-ac6b-740cebf8995e"
          },
          {
            "reference": "urn:uuid:651bb451-a71b-4662-9507-dcc6da02f6c8"
          },
          {
            "reference": "urn:uuid:436b456f-7816-4b1b-ba34-f955aedae150"
          },
          {
            "reference": "urn:uuid:ed64f721-7e0f-447d-9dee-e6e035324025"
          },
          {
            "reference": "urn:uuid:159b748d-7af5-45d5-9613-db5f41f96467"
          },
          {
            "reference": "urn:uuid:11cee316-d6fa-4203-8b9f-56ea88e489d3"
          },
          {
            "reference": "urn:uuid:14764e4e-14d5-477d-95bb-bb739b923e71"
          },
          {
            "reference": "urn:uuid:e5836876-9c11-413f-ad1c-76b0270b7414"
          },
          {
            "reference": "urn:uuid:92c29047-546b-4dda-9cbb-af9e703d4990"
          },
          {
            "reference": "urn:uuid:9585e07e-8242-4e8d-a77a-7566a4751426"
          },
          {
            "reference": "urn:uuid:ec96f73c-5e20-4b1a-af73-03b31bed5e1b"
          },
          {
            "reference": "urn:uuid:3c34f649-9748-4528-95d3-c883abfb7354"
          },
          {
            "reference": "urn:uuid:b11c5315-ffba-4d0d-a4fb-583bdcb1d477"
          },
          {
            "reference": "urn:uuid:6e1b58c2-abbb-4466-8026-ef2a28420ff5"
          },
          {
            "reference": "urn:uuid:ab95025b-202d-40eb-9e0f-60127dd80fb9"
          },
          {
            "reference": "urn:uuid:39d20597-7d04-4bb4-a525-50b769747d97"
          },
          {
            "reference": "urn:uuid:7f153ece-c4c8-4b93-9c6a-a86d53994c00"
          },
          {
            "reference": "urn:uuid:2345021e-6279-4747-b421-7510534af8e2"
          },
          {
            "reference": "urn:uuid:678322d3-711c-4fa0-929e-fa3d122aeafa"
          },
          {
            "reference": "urn:uuid:c9cdea9e-4646-4309-9174-8a719805d2cc"
          },
          {
            "reference": "urn:uuid:00902969-e71d-4548-b45c-9c0cac34a362"
          },
          {
            "reference": "urn:uuid:4d61a596-6cb6-42c0-8d4d-26974ba10467"
          },
          {
            "reference": "urn:uuid:cabf6dd9-e4b5-4c12-b74e-c9fe39c80f42"
          },
          {
            "reference": "urn:uuid:58e37f87-8dbc-4c67-9e41-850f501bf237"
          },
          {
            "reference": "urn:uuid:f32a347d-3b7f-4b9e-85d6-04d8467d3986"
          },
          {
            "reference": "urn:uuid:67926f9c-3c93-4831-a78a-1e5af1437ea8"
          },
          {
            "reference": "urn:uuid:c3ed67e8-0c14-422c-a826-c1d4d751a611"
          },
          {
            "reference": "urn:uuid:0d291e31-1c27-4752-9666-d18a62bce528"
          },
          {
            "reference": "urn:uuid:563c6a94-28e5-4bb7-aeaf-7202cdd47a81"
          },
          {
            "reference": "urn:uuid:74432886-9f87-4412-a615-431937ef19c2"
          },
          {
            "reference": "urn:uuid:0f38d301-04a8-4ffc-a476-f82219a7cba6"
          },
          {
            "reference": "urn:uuid:171d82b2-91f9-49ca-9760-36a08c01171c"
          },
          {
            "reference": "urn:uuid:ed0b2653-8371-4dc0-b72c-46a4b752dd18"
          }
        ],
        "status": "registered",
        "code": {
          "coding": [
            {
              "code": "11502-2",
              "system": "http://loinc.org",
              "display": "Laboratory report"
            }
          ]
        },
        "subject": {
          "reference": "urn:uuid:605a9e16-fe92-4145-bd00-fd685182ae07",
          "display": "Iva Kratochvílová"
        }
      }
    },
    {
      "fullUrl": "urn:uuid:605a9e16-fe92-4145-bd00-fd685182ae07",
      "resource": {
        "resourceType": "Patient",
        "id": "605a9e16-fe92-4145-bd00-fd685182ae07",
        "meta": {
          "security": [
            {
              "system": "http://terminology.hl7.org/CodeSystem/v3-ActReason",
              "code": "HTEST"
            },
            {
              "system": "http://terminology.hl7.org/CodeSystem/v3-ActReason",
              "code": "TRAIN"
            }
          ],
          "tag": [
            {
              "system": "https://synderai.net/fhir/CodeSystem/tags",
              "code": "synthetic",
              "display": "SYNDERAI Synthetic data"
            }
          ],
          "profile": [
            "http://hl7.eu/fhir/base/StructureDefinition/patient-eu-core"
          ]
        },
        "identifier": [
          {
            "type": {
              "coding": [
                {
                  "code": "PT",
                  "system": "http://terminology.hl7.org/CodeSystem/v2-0203"
                }
              ]
            },
            "system": "http://ec.europa.eu/identifier/eci",
            "value": "4380-389488-0"
          },
          {
            "type": {
              "coding": [
                {
                  "code": "MR",
                  "system": "http://terminology.hl7.org/CodeSystem/v2-0203"
                }
              ]
            },
            "system": "http://local.setting.eu/identifier",
            "value": "f8f9ebdc-03dd-2fc0-819c-affa4ffd7f67"
          }
        ],
        "name": [
          {
            "family": "Kratochvílová"
          },
          {
            "given": [
              "Iva"
            ]
          },
          {
            "text": "Iva Kratochvílová"
          }
        ],
        "address": [
          {
            "line": [
              "Žofie Podlipské 4"
            ],
            "use": "home",
            "type": "physical",
            "postalCode": "27324",
            "city": "Postoloprty",
            "country": "Czechia"
          }
        ],
        "telecom": [
          {
            "system": "phone",
            "value": "00420 607 985 072"
          }
        ],
        "extension": [
          {
            "url": "http://hl7.org/fhir/StructureDefinition/patient-nationality",
            "valueCodeableConcept": {
              "coding": [
                {
                  "code": "CZ",
                  "system": "http://hl7.org/fhir/ValueSet/country"
                }
              ]
            }
          }
        ],
        "text": {
          "status": "generated",
          "div": "<div xmlns=\"http://www.w3.org/1999/xhtml\"><table class=\"hl7__ips\"><tr><td>Iva Kratochvílová</td><td>female</td><td>17-Sep-1964</td></tr></table></div>"
        },
        "gender": "female",
        "birthDate": "1964-09-17"
      }
    },
    {
      "fullUrl": "urn:uuid:ef10774f-1515-4895-8b0d-fa91c54502a8",
      "resource": {
        "resourceType": "ServiceRequest",
        "id": "ef10774f-1515-4895-8b0d-fa91c54502a8",
        "meta": {
          "profile": [
            "http://hl7.eu/fhir/laboratory/StructureDefinition/ServiceRequest-eu-lab"
          ]
        },
        "identifier": [
          {
            "system": "http://example.org",
            "value": "d3aa4ba7-a293-43fa-b7d6-9fd76ca79131"
          }
        ],
        "specimen": [
          {
            "reference": "urn:uuid:1e1a6ab2-5a4c-4f28-8cb5-caec538277ec"
          },
          {
            "reference": "urn:uuid:b09f2c0c-c7e1-43a8-8866-74ca6ae9e1f1"
          },
          {
            "reference": "urn:uuid:486e99b6-958f-4b10-9a99-54c68028a9e7"
          }
        ],
        "reasonCode": [
          {
            "coding": [
              {
                "code": "431856006",
                "system": "http://snomed.info/sct",
                "display": "Chronic kidney disease stage 2"
              }
            ]
          },
          {
            "coding": [
              {
                "code": "431855005",
                "system": "http://snomed.info/sct",
                "display": "Chronic kidney disease stage 1"
              }
            ]
          },
          {
            "coding": [
              {
                "code": "237602007",
                "system": "http://snomed.info/sct",
                "display": "Metabolic syndrome X"
              }
            ]
          },
          {
            "coding": [
              {
                "code": "91302008",
                "system": "http://snomed.info/sct",
                "display": "Sepsis"
              }
            ]
          },
          {
            "coding": [
              {
                "code": "271737000",
                "system": "http://snomed.info/sct",
                "display": "Anemia"
              }
            ]
          },
          {
            "coding": [
              {
                "code": "15777000",
                "system": "http://snomed.info/sct",
                "display": "Prediabetes"
              }
            ]
          },
          {
            "coding": [
              {
                "code": "157141000119108",
                "system": "http://snomed.info/sct",
                "display": "Proteinuria due to type 2 diabetes mellitus"
              }
            ]
          },
          {
            "coding": [
              {
                "code": "90781000119102",
                "system": "http://snomed.info/sct",
                "display": "Microalbuminuria due to type 2 diabetes mellitus"
              }
            ]
          },
          {
            "coding": [
              {
                "code": "239872002",
                "system": "http://snomed.info/sct",
                "display": "Osteoarthritis of hip"
              }
            ]
          },
          {
            "coding": [
              {
                "code": "40055000",
                "system": "http://snomed.info/sct",
                "display": "Chronic sinusitis"
              }
            ]
          },
          {
            "coding": [
              {
                "code": "127013003",
                "system": "http://snomed.info/sct",
                "display": "Disorder of kidney due to diabetes mellitus"
              }
            ]
          },
          {
            "coding": [
              {
                "code": "59621000",
                "system": "http://snomed.info/sct",
                "display": "Essential hypertension"
              }
            ]
          }
        ],
        "status": "active",
        "intent": "order",
        "code": {
          "coding": [
            {
              "code": "108252007",
              "system": "http://snomed.info/sct",
              "display": "Laboratory procedure"
            }
          ]
        },
        "subject": {
          "reference": "urn:uuid:605a9e16-fe92-4145-bd00-fd685182ae07",
          "display": "Iva Kratochvílová"
        },
        "requester": {
          "reference": "urn:uuid:d9e6f5b3-f337-4979-89b6-3e3aceb2ff7a"
        }
      }
    },
    {
      "fullUrl": "urn:uuid:d9e6f5b3-f337-4979-89b6-3e3aceb2ff7a",
      "resource": {
        "resourceType": "PractitionerRole",
        "id": "d9e6f5b3-f337-4979-89b6-3e3aceb2ff7a",
        "meta": {
          "profile": [
            "http://hl7.eu/fhir/base/StructureDefinition/practitionerRole-eu"
          ]
        },
        "text": {
          "status": "generated",
          "div": "<div xmlns=\"http://www.w3.org/1999/xhtml\">Provider Role Id: d9e6f5b3-f337-4979-89b6-3e3aceb2ff7a</div>"
        },
        "organization": {
          "reference": "urn:uuid:a457af29-e956-4a2d-8636-c3a743703cc5"
        }
      }
    },
    {
      "fullUrl": "urn:uuid:a457af29-e956-4a2d-8636-c3a743703cc5",
      "resource": {
        "resourceType": "Organization",
        "id": "a457af29-e956-4a2d-8636-c3a743703cc5",
        "meta": {
          "profile": [
            "http://hl7.eu/fhir/base/StructureDefinition/organization-eu"
          ]
        },
        "identifier": [
          {
            "assigner": {
              "display": "HL7 Europe"
            },
            "system": "urn:oid:2.16.840.1.113883.2.51.999",
            "value": "cbc1cf83-b202-4c3c-bb03-6c1af7178ee2"
          }
        ],
        "address": [
          {
            "city": "Kadaň",
            "postalCode": "432 01",
            "country": "Czechia"
          }
        ],
        "text": {
          "status": "generated",
          "div": "<div xmlns=\"http://www.w3.org/1999/xhtml\">Provider Organization: Nemocnice s poliklinikou Kadaň</div>"
        },
        "name": "Nemocnice s poliklinikou Kadaň"
      }
    },
    {
      "fullUrl": "urn:uuid:1e1a6ab2-5a4c-4f28-8cb5-caec538277ec",
      "resource": {
        "resourceType": "Specimen",
        "id": "1e1a6ab2-5a4c-4f28-8cb5-caec538277ec",
        "meta": {
          "profile": [
            "http://hl7.eu/fhir/laboratory/StructureDefinition/Specimen-eu-lab"
          ]
        },
        "collection": {
          "collectedDateTime": "2024-10-06"
        },
        "text": {
          "status": "generated",
          "div": "<div xmlns=\"http://www.w3.org/1999/xhtml\"><table class=\"hl7__eu__lab__report\"><tr><th>Specimen</th><th>Collection Date</th></tr><tr><td>Acellular blood (serum or plasma) specimen</td><td><span class=\"nb\">06-Oct-2024</span></td></tr></table></div>"
        },
        "type": {
          "coding": [
            {
              "code": "122592007",
              "system": "http://snomed.info/sct",
              "display": "Acellular blood (serum or plasma) specimen"
            }
          ]
        }
      }
    },
    {
      "fullUrl": "urn:uuid:b09f2c0c-c7e1-43a8-8866-74ca6ae9e1f1",
      "resource": {
        "resourceType": "Specimen",
        "id": "b09f2c0c-c7e1-43a8-8866-74ca6ae9e1f1",
        "meta": {
          "profile": [
            "http://hl7.eu/fhir/laboratory/StructureDefinition/Specimen-eu-lab"
          ]
        },
        "collection": {
          "collectedDateTime": "2024-10-06"
        },
        "text": {
          "status": "generated",
          "div": "<div xmlns=\"http://www.w3.org/1999/xhtml\"><table class=\"hl7__eu__lab__report\"><tr><th>Specimen</th><th>Collection Date</th></tr><tr><td>Urine specimen</td><td><span class=\"nb\">06-Oct-2024</span></td></tr></table></div>"
        },
        "type": {
          "coding": [
            {
              "code": "122575003",
              "system": "http://snomed.info/sct",
              "display": "Urine specimen"
            }
          ]
        }
      }
    },
    {
      "fullUrl": "urn:uuid:486e99b6-958f-4b10-9a99-54c68028a9e7",
      "resource": {
        "resourceType": "Specimen",
        "id": "486e99b6-958f-4b10-9a99-54c68028a9e7",
        "meta": {
          "profile": [
            "http://hl7.eu/fhir/laboratory/StructureDefinition/Specimen-eu-lab"
          ]
        },
        "collection": {
          "collectedDateTime": "2024-10-06"
        },
        "text": {
          "status": "generated",
          "div": "<div xmlns=\"http://www.w3.org/1999/xhtml\"><table class=\"hl7__eu__lab__report\"><tr><th>Specimen</th><th>Collection Date</th></tr><tr><td>Whole blood specimen (specimen)</td><td><span class=\"nb\">06-Oct-2024</span></td></tr></table></div>"
        },
        "type": {
          "coding": [
            {
              "code": "258580003",
              "system": "http://snomed.info/sct",
              "display": "Whole blood specimen (specimen)"
            }
          ]
        }
      }
    },
    {
      "fullUrl": "urn:uuid:d2f514c7-c812-451e-9b24-319202091e1b",
      "resource": {
        "resourceType": "Observation",
        "id": "d2f514c7-c812-451e-9b24-319202091e1b",
        "meta": {
          "profile": [
            "http://hl7.eu/fhir/laboratory/StructureDefinition/Observation-resultslab-eu-lab"
          ]
        },
        "performer": [
          {
            "display": "The Central European Lab"
          }
        ],
        "category": [
          {
            "coding": [
              {
                "system": "http://terminology.hl7.org/CodeSystem/observation-category",
                "code": "laboratory"
              }
            ]
          }
        ],
        "code": {
          "coding": [
            {
              "code": "2345-7",
              "system": "http://loinc.org",
              "display": "Glucose [Mass/volume] in Serum or Plasma"
            }
          ],
          "text": "Glucose [Mass/volume] in Serum or Plasma"
        },
        "valueQuantity": {
          "system": "http://unitsofmeasure.org",
          "value": 82.7,
          "unit": "mg/dL",
          "code": "mg/dL"
        },
        "referenceRange": [
          {
            "low": {
              "value": 70,
              "code": "mg/dL",
              "system": "http://unitsofmeasure.org"
            }
          },
          {
            "high": {
              "value": 99,
              "code": "mg/dL",
              "system": "http://unitsofmeasure.org"
            }
          }
        ],
        "text": {
          "status": "generated",
          "div": "<div xmlns=\"http://www.w3.org/1999/xhtml\"><table class=\"hl7__eu__lab__report\"><tr><th>Test</th><th>06-Oct-2024</th><th>Reference&#xA0;Range</th><th>Unit</th></tr><tr><td>Glucose [Mass/volume] in Serum or Plasma</td><td>82.7</td><td>70 - 99</td><td></td><td>mg/dL</td></tr></table></div>"
        },
        "status": "final",
        "subject": {
          "reference": "urn:uuid:605a9e16-fe92-4145-bd00-fd685182ae07",
          "display": "Iva Kratochvílová"
        },
        "effectiveDateTime": "2024-10-06T16:10:29Z",
        "specimen": {
          "reference": "urn:uuid:1e1a6ab2-5a4c-4f28-8cb5-caec538277ec"
        }
      }
    },
    {
      "fullUrl": "urn:uuid:411def53-7fbe-49b9-ac6b-740cebf8995e",
      "resource": {
        "resourceType": "Observation",
        "id": "411def53-7fbe-49b9-ac6b-740cebf8995e",
        "meta": {
          "profile": [
            "http://hl7.eu/fhir/laboratory/StructureDefinition/Observation-resultslab-eu-lab"
          ]
        },
        "performer": [
          {
            "display": "The Central European Lab"
          }
        ],
        "category": [
          {
            "coding": [
              {
                "system": "http://terminology.hl7.org/CodeSystem/observation-category",
                "code": "laboratory"
              }
            ]
          }
        ],
        "code": {
          "coding": [
            {
              "code": "3094-0",
              "system": "http://loinc.org",
              "display": "Urea nitrogen [Mass/volume] in Serum or Plasma"
            }
          ],
          "text": "Urea nitrogen [Mass/volume] in Serum or Plasma"
        },
        "valueQuantity": {
          "system": "http://unitsofmeasure.org",
          "value": 9.7,
          "unit": "mg/dL",
          "code": "mg/dL"
        },
        "referenceRange": [
          {
            "low": {
              "value": 7,
              "code": "mg/dL",
              "system": "http://unitsofmeasure.org"
            }
          },
          {
            "high": {
              "value": 20,
              "code": "mg/dL",
              "system": "http://unitsofmeasure.org"
            }
          }
        ],
        "text": {
          "status": "generated",
          "div": "<div xmlns=\"http://www.w3.org/1999/xhtml\"><table class=\"hl7__eu__lab__report\"><tr><th>Test</th><th>06-Oct-2024</th><th>Reference&#xA0;Range</th><th>Unit</th></tr><tr><td>Urea nitrogen [Mass/volume] in Serum or Plasma</td><td>9.7</td><td>7 - 20</td><td></td><td>mg/dL</td></tr></table></div>"
        },
        "status": "final",
        "subject": {
          "reference": "urn:uuid:605a9e16-fe92-4145-bd00-fd685182ae07",
          "display": "Iva Kratochvílová"
        },
        "effectiveDateTime": "2024-10-06T16:10:29Z",
        "specimen": {
          "reference": "urn:uuid:1e1a6ab2-5a4c-4f28-8cb5-caec538277ec"
        }
      }
    },
    {
      "fullUrl": "urn:uuid:651bb451-a71b-4662-9507-dcc6da02f6c8",
      "resource": {
        "resourceType": "Observation",
        "id": "651bb451-a71b-4662-9507-dcc6da02f6c8",
        "meta": {
          "profile": [
            "http://hl7.eu/fhir/laboratory/StructureDefinition/Observation-resultslab-eu-lab"
          ]
        },
        "performer": [
          {
            "display": "The Central European Lab"
          }
        ],
        "category": [
          {
            "coding": [
              {
                "system": "http://terminology.hl7.org/CodeSystem/observation-category",
                "code": "laboratory"
              }
            ]
          }
        ],
        "code": {
          "coding": [
            {
              "code": "2160-0",
              "system": "http://loinc.org",
              "display": "Creatinine [Mass/volume] in Serum or Plasma"
            }
          ],
          "text": "Creatinine [Mass/volume] in Serum or Plasma"
        },
        "valueQuantity": {
          "system": "http://unitsofmeasure.org",
          "value": 2,
          "unit": "mg/dL",
          "code": "mg/dL"
        },
        "referenceRange": [
          {
            "low": {
              "value": 0.6,
              "code": "mg/dL",
              "system": "http://unitsofmeasure.org"
            }
          },
          {
            "high": {
              "value": 1.3,
              "code": "mg/dL",
              "system": "http://unitsofmeasure.org"
            }
          }
        ],
        "interpretation": [
          {
            "coding": [
              {
                "code": "H",
                "system": "http://terminology.hl7.org/CodeSystem/v3-ObservationInterpretation",
                "display": "High"
              }
            ]
          }
        ],
        "text": {
          "status": "generated",
          "div": "<div xmlns=\"http://www.w3.org/1999/xhtml\"><table class=\"hl7__eu__lab__report\"><tr><th>Test</th><th>06-Oct-2024</th><th>Reference&#xA0;Range</th><th>Unit</th></tr><tr><td>Creatinine [Mass/volume] in Serum or Plasma</td><td>2.0</td><td>0.6 - 1.3</td><td>H</td><td>mg/dL</td></tr></table></div>"
        },
        "status": "final",
        "subject": {
          "reference": "urn:uuid:605a9e16-fe92-4145-bd00-fd685182ae07",
          "display": "Iva Kratochvílová"
        },
        "effectiveDateTime": "2024-10-06T16:10:29Z",
        "specimen": {
          "reference": "urn:uuid:1e1a6ab2-5a4c-4f28-8cb5-caec538277ec"
        }
      }
    },
    {
      "fullUrl": "urn:uuid:436b456f-7816-4b1b-ba34-f955aedae150",
      "resource": {
        "resourceType": "Observation",
        "id": "436b456f-7816-4b1b-ba34-f955aedae150",
        "meta": {
          "profile": [
            "http://hl7.eu/fhir/laboratory/StructureDefinition/Observation-resultslab-eu-lab"
          ]
        },
        "performer": [
          {
            "display": "The Central European Lab"
          }
        ],
        "category": [
          {
            "coding": [
              {
                "system": "http://terminology.hl7.org/CodeSystem/observation-category",
                "code": "laboratory"
              }
            ]
          }
        ],
        "code": {
          "coding": [
            {
              "code": "17861-6",
              "system": "http://loinc.org",
              "display": "Calcium [Mass/volume] in Serum or Plasma"
            }
          ],
          "text": "Calcium [Mass/volume] in Serum or Plasma"
        },
        "valueQuantity": {
          "system": "http://unitsofmeasure.org",
          "value": 9.9,
          "unit": "mg/dL",
          "code": "mg/dL"
        },
        "referenceRange": [
          {
            "low": {
              "value": 8.6,
              "code": "mg/dL",
              "system": "http://unitsofmeasure.org"
            }
          },
          {
            "high": {
              "value": 10.4,
              "code": "mg/dL",
              "system": "http://unitsofmeasure.org"
            }
          }
        ],
        "text": {
          "status": "generated",
          "div": "<div xmlns=\"http://www.w3.org/1999/xhtml\"><table class=\"hl7__eu__lab__report\"><tr><th>Test</th><th>06-Oct-2024</th><th>Reference&#xA0;Range</th><th>Unit</th></tr><tr><td>Calcium [Mass/volume] in Serum or Plasma</td><td>9.9</td><td>8.6 - 10.4</td><td></td><td>mg/dL</td></tr></table></div>"
        },
        "status": "final",
        "subject": {
          "reference": "urn:uuid:605a9e16-fe92-4145-bd00-fd685182ae07",
          "display": "Iva Kratochvílová"
        },
        "effectiveDateTime": "2024-10-06T16:10:29Z",
        "specimen": {
          "reference": "urn:uuid:1e1a6ab2-5a4c-4f28-8cb5-caec538277ec"
        }
      }
    },
    {
      "fullUrl": "urn:uuid:ed64f721-7e0f-447d-9dee-e6e035324025",
      "resource": {
        "resourceType": "Observation",
        "id": "ed64f721-7e0f-447d-9dee-e6e035324025",
        "meta": {
          "profile": [
            "http://hl7.eu/fhir/laboratory/StructureDefinition/Observation-resultslab-eu-lab"
          ]
        },
        "performer": [
          {
            "display": "The Central European Lab"
          }
        ],
        "category": [
          {
            "coding": [
              {
                "system": "http://terminology.hl7.org/CodeSystem/observation-category",
                "code": "laboratory"
              }
            ]
          }
        ],
        "code": {
          "coding": [
            {
              "code": "2951-2",
              "system": "http://loinc.org",
              "display": "Sodium [Moles/volume] in Serum or Plasma"
            }
          ],
          "text": "Sodium [Moles/volume] in Serum or Plasma"
        },
        "valueQuantity": {
          "system": "http://unitsofmeasure.org",
          "value": 137.1,
          "unit": "mmol/L",
          "code": "mmol/L"
        },
        "referenceRange": [
          {
            "low": {
              "value": 135,
              "code": "mmol/L",
              "system": "http://unitsofmeasure.org"
            }
          },
          {
            "high": {
              "value": 145,
              "code": "mmol/L",
              "system": "http://unitsofmeasure.org"
            }
          }
        ],
        "text": {
          "status": "generated",
          "div": "<div xmlns=\"http://www.w3.org/1999/xhtml\"><table class=\"hl7__eu__lab__report\"><tr><th>Test</th><th>06-Oct-2024</th><th>Reference&#xA0;Range</th><th>Unit</th></tr><tr><td>Sodium [Moles/volume] in Serum or Plasma</td><td>137.1</td><td>135 - 145</td><td></td><td>mmol/L</td></tr></table></div>"
        },
        "status": "final",
        "subject": {
          "reference": "urn:uuid:605a9e16-fe92-4145-bd00-fd685182ae07",
          "display": "Iva Kratochvílová"
        },
        "effectiveDateTime": "2024-10-06T16:10:29Z",
        "specimen": {
          "reference": "urn:uuid:1e1a6ab2-5a4c-4f28-8cb5-caec538277ec"
        }
      }
    },
    {
      "fullUrl": "urn:uuid:159b748d-7af5-45d5-9613-db5f41f96467",
      "resource": {
        "resourceType": "Observation",
        "id": "159b748d-7af5-45d5-9613-db5f41f96467",
        "meta": {
          "profile": [
            "http://hl7.eu/fhir/laboratory/StructureDefinition/Observation-resultslab-eu-lab"
          ]
        },
        "performer": [
          {
            "display": "The Central European Lab"
          }
        ],
        "category": [
          {
            "coding": [
              {
                "system": "http://terminology.hl7.org/CodeSystem/observation-category",
                "code": "laboratory"
              }
            ]
          }
        ],
        "code": {
          "coding": [
            {
              "code": "2823-3",
              "system": "http://loinc.org",
              "display": "Potassium [Moles/volume] in Serum or Plasma"
            }
          ],
          "text": "Potassium [Moles/volume] in Serum or Plasma"
        },
        "valueQuantity": {
          "system": "http://unitsofmeasure.org",
          "value": 4.2,
          "unit": "mmol/L",
          "code": "mmol/L"
        },
        "referenceRange": [
          {
            "low": {
              "value": 3.5,
              "code": "mmol/L",
              "system": "http://unitsofmeasure.org"
            }
          },
          {
            "high": {
              "value": 5,
              "code": "mmol/L",
              "system": "http://unitsofmeasure.org"
            }
          }
        ],
        "text": {
          "status": "generated",
          "div": "<div xmlns=\"http://www.w3.org/1999/xhtml\"><table class=\"hl7__eu__lab__report\"><tr><th>Test</th><th>06-Oct-2024</th><th>Reference&#xA0;Range</th><th>Unit</th></tr><tr><td>Potassium [Moles/volume] in Serum or Plasma</td><td>4.2</td><td>3.5 - 5</td><td></td><td>mmol/L</td></tr></table></div>"
        },
        "status": "final",
        "subject": {
          "reference": "urn:uuid:605a9e16-fe92-4145-bd00-fd685182ae07",
          "display": "Iva Kratochvílová"
        },
        "effectiveDateTime": "2024-10-06T16:10:29Z",
        "specimen": {
          "reference": "urn:uuid:1e1a6ab2-5a4c-4f28-8cb5-caec538277ec"
        }
      }
    },
    {
      "fullUrl": "urn:uuid:11cee316-d6fa-4203-8b9f-56ea88e489d3",
      "resource": {
        "resourceType": "Observation",
        "id": "11cee316-d6fa-4203-8b9f-56ea88e489d3",
        "meta": {
          "profile": [
            "http://hl7.eu/fhir/laboratory/StructureDefinition/Observation-resultslab-eu-lab"
          ]
        },
        "performer": [
          {
            "display": "The Central European Lab"
          }
        ],
        "category": [
          {
            "coding": [
              {
                "system": "http://terminology.hl7.org/CodeSystem/observation-category",
                "code": "laboratory"
              }
            ]
          }
        ],
        "code": {
          "coding": [
            {
              "code": "2075-0",
              "system": "http://loinc.org",
              "display": "Chloride [Moles/volume] in Serum or Plasma"
            }
          ],
          "text": "Chloride [Moles/volume] in Serum or Plasma"
        },
        "valueQuantity": {
          "system": "http://unitsofmeasure.org",
          "value": 102.5,
          "unit": "mmol/L",
          "code": "mmol/L"
        },
        "referenceRange": [
          {
            "low": {
              "value": 98,
              "code": "mmol/L",
              "system": "http://unitsofmeasure.org"
            }
          },
          {
            "high": {
              "value": 106,
              "code": "mmol/L",
              "system": "http://unitsofmeasure.org"
            }
          }
        ],
        "text": {
          "status": "generated",
          "div": "<div xmlns=\"http://www.w3.org/1999/xhtml\"><table class=\"hl7__eu__lab__report\"><tr><th>Test</th><th>06-Oct-2024</th><th>Reference&#xA0;Range</th><th>Unit</th></tr><tr><td>Chloride [Moles/volume] in Serum or Plasma</td><td>102.5</td><td>98 - 106</td><td></td><td>mmol/L</td></tr></table></div>"
        },
        "status": "final",
        "subject": {
          "reference": "urn:uuid:605a9e16-fe92-4145-bd00-fd685182ae07",
          "display": "Iva Kratochvílová"
        },
        "effectiveDateTime": "2024-10-06T16:10:29Z",
        "specimen": {
          "reference": "urn:uuid:1e1a6ab2-5a4c-4f28-8cb5-caec538277ec"
        }
      }
    },
    {
      "fullUrl": "urn:uuid:14764e4e-14d5-477d-95bb-bb739b923e71",
      "resource": {
        "resourceType": "Observation",
        "id": "14764e4e-14d5-477d-95bb-bb739b923e71",
        "meta": {
          "profile": [
            "http://hl7.eu/fhir/laboratory/StructureDefinition/Observation-resultslab-eu-lab"
          ]
        },
        "performer": [
          {
            "display": "The Central European Lab"
          }
        ],
        "category": [
          {
            "coding": [
              {
                "system": "http://terminology.hl7.org/CodeSystem/observation-category",
                "code": "laboratory"
              }
            ]
          }
        ],
        "code": {
          "coding": [
            {
              "code": "2028-9",
              "system": "http://loinc.org",
              "display": "Carbon dioxide, total [Moles/volume] in Serum or Plasma"
            }
          ],
          "text": "Carbon dioxide, total [Moles/volume] in Serum or Plasma"
        },
        "valueQuantity": {
          "system": "http://unitsofmeasure.org",
          "value": 21.4,
          "unit": "mmol/L",
          "code": "mmol/L"
        },
        "referenceRange": [
          {
            "low": {
              "value": 22,
              "code": "mmol/L",
              "system": "http://unitsofmeasure.org"
            }
          },
          {
            "high": {
              "value": 29,
              "code": "mmol/L",
              "system": "http://unitsofmeasure.org"
            }
          }
        ],
        "interpretation": [
          {
            "coding": [
              {
                "code": "L",
                "system": "http://terminology.hl7.org/CodeSystem/v3-ObservationInterpretation",
                "display": "Low"
              }
            ]
          }
        ],
        "text": {
          "status": "generated",
          "div": "<div xmlns=\"http://www.w3.org/1999/xhtml\"><table class=\"hl7__eu__lab__report\"><tr><th>Test</th><th>06-Oct-2024</th><th>Reference&#xA0;Range</th><th>Unit</th></tr><tr><td>Carbon dioxide, total [Moles/volume] in Serum or Plasma</td><td>21.4</td><td>22 - 29</td><td>L</td><td>mmol/L</td></tr></table></div>"
        },
        "status": "final",
        "subject": {
          "reference": "urn:uuid:605a9e16-fe92-4145-bd00-fd685182ae07",
          "display": "Iva Kratochvílová"
        },
        "effectiveDateTime": "2024-10-06T16:10:29Z",
        "specimen": {
          "reference": "urn:uuid:1e1a6ab2-5a4c-4f28-8cb5-caec538277ec"
        }
      }
    },
    {
      "fullUrl": "urn:uuid:e5836876-9c11-413f-ad1c-76b0270b7414",
      "resource": {
        "resourceType": "Observation",
        "id": "e5836876-9c11-413f-ad1c-76b0270b7414",
        "meta": {
          "profile": [
            "http://hl7.eu/fhir/laboratory/StructureDefinition/Observation-resultslab-eu-lab"
          ]
        },
        "performer": [
          {
            "display": "The Central European Lab"
          }
        ],
        "category": [
          {
            "coding": [
              {
                "system": "http://terminology.hl7.org/CodeSystem/observation-category",
                "code": "laboratory"
              }
            ]
          }
        ],
        "code": {
          "coding": [
            {
              "code": "5767-9",
              "system": "http://loinc.org",
              "display": "Appearance of Urine"
            }
          ],
          "text": "Appearance of Urine"
        },
        "text": {
          "status": "generated",
          "div": "<div xmlns=\"http://www.w3.org/1999/xhtml\"><table class=\"hl7__eu__lab__report\"><tr><th>Test</th><th>06-Oct-2024</th><th>Reference&#xA0;Range</th><th>Unit</th></tr><tr><td>Appearance of Urine</td></tr></table></div>"
        },
        "status": "final",
        "subject": {
          "reference": "urn:uuid:605a9e16-fe92-4145-bd00-fd685182ae07",
          "display": "Iva Kratochvílová"
        },
        "effectiveDateTime": "2024-10-06T16:10:29Z",
        "specimen": {
          "reference": "urn:uuid:b09f2c0c-c7e1-43a8-8866-74ca6ae9e1f1"
        }
      }
    },
    {
      "fullUrl": "urn:uuid:92c29047-546b-4dda-9cbb-af9e703d4990",
      "resource": {
        "resourceType": "Observation",
        "id": "92c29047-546b-4dda-9cbb-af9e703d4990",
        "meta": {
          "profile": [
            "http://hl7.eu/fhir/laboratory/StructureDefinition/Observation-resultslab-eu-lab"
          ]
        },
        "performer": [
          {
            "display": "The Central European Lab"
          }
        ],
        "category": [
          {
            "coding": [
              {
                "system": "http://terminology.hl7.org/CodeSystem/observation-category",
                "code": "laboratory"
              }
            ]
          }
        ],
        "code": {
          "coding": [
            {
              "code": "34533-0",
              "system": "http://loinc.org",
              "display": "Odor of Urine"
            }
          ],
          "text": "Odor of Urine"
        },
        "text": {
          "status": "generated",
          "div": "<div xmlns=\"http://www.w3.org/1999/xhtml\"><table class=\"hl7__eu__lab__report\"><tr><th>Test</th><th>06-Oct-2024</th><th>Reference&#xA0;Range</th><th>Unit</th></tr><tr><td>Odor of Urine</td></tr></table></div>"
        },
        "status": "final",
        "subject": {
          "reference": "urn:uuid:605a9e16-fe92-4145-bd00-fd685182ae07",
          "display": "Iva Kratochvílová"
        },
        "effectiveDateTime": "2024-10-06T16:10:29Z",
        "specimen": {
          "reference": "urn:uuid:b09f2c0c-c7e1-43a8-8866-74ca6ae9e1f1"
        }
      }
    },
    {
      "fullUrl": "urn:uuid:9585e07e-8242-4e8d-a77a-7566a4751426",
      "resource": {
        "resourceType": "Observation",
        "id": "9585e07e-8242-4e8d-a77a-7566a4751426",
        "meta": {
          "profile": [
            "http://hl7.eu/fhir/laboratory/StructureDefinition/Observation-resultslab-eu-lab"
          ]
        },
        "performer": [
          {
            "display": "The Central European Lab"
          }
        ],
        "category": [
          {
            "coding": [
              {
                "system": "http://terminology.hl7.org/CodeSystem/observation-category",
                "code": "laboratory"
              }
            ]
          }
        ],
        "code": {
          "coding": [
            {
              "code": "32167-9",
              "system": "http://loinc.org",
              "display": "Clarity of Urine"
            }
          ],
          "text": "Clarity of Urine"
        },
        "text": {
          "status": "generated",
          "div": "<div xmlns=\"http://www.w3.org/1999/xhtml\"><table class=\"hl7__eu__lab__report\"><tr><th>Test</th><th>06-Oct-2024</th><th>Reference&#xA0;Range</th><th>Unit</th></tr><tr><td>Clarity of Urine</td></tr></table></div>"
        },
        "status": "final",
        "subject": {
          "reference": "urn:uuid:605a9e16-fe92-4145-bd00-fd685182ae07",
          "display": "Iva Kratochvílová"
        },
        "effectiveDateTime": "2024-10-06T16:10:29Z",
        "specimen": {
          "reference": "urn:uuid:b09f2c0c-c7e1-43a8-8866-74ca6ae9e1f1"
        }
      }
    },
    {
      "fullUrl": "urn:uuid:ec96f73c-5e20-4b1a-af73-03b31bed5e1b",
      "resource": {
        "resourceType": "Observation",
        "id": "ec96f73c-5e20-4b1a-af73-03b31bed5e1b",
        "meta": {
          "profile": [
            "http://hl7.eu/fhir/laboratory/StructureDefinition/Observation-resultslab-eu-lab"
          ]
        },
        "performer": [
          {
            "display": "The Central European Lab"
          }
        ],
        "category": [
          {
            "coding": [
              {
                "system": "http://terminology.hl7.org/CodeSystem/observation-category",
                "code": "laboratory"
              }
            ]
          }
        ],
        "code": {
          "coding": [
            {
              "code": "5778-6",
              "system": "http://loinc.org",
              "display": "Color of Urine"
            }
          ],
          "text": "Color of Urine"
        },
        "text": {
          "status": "generated",
          "div": "<div xmlns=\"http://www.w3.org/1999/xhtml\"><table class=\"hl7__eu__lab__report\"><tr><th>Test</th><th>06-Oct-2024</th><th>Reference&#xA0;Range</th><th>Unit</th></tr><tr><td>Color of Urine</td></tr></table></div>"
        },
        "status": "final",
        "subject": {
          "reference": "urn:uuid:605a9e16-fe92-4145-bd00-fd685182ae07",
          "display": "Iva Kratochvílová"
        },
        "effectiveDateTime": "2024-10-06T16:10:29Z",
        "specimen": {
          "reference": "urn:uuid:b09f2c0c-c7e1-43a8-8866-74ca6ae9e1f1"
        }
      }
    },
    {
      "fullUrl": "urn:uuid:3c34f649-9748-4528-95d3-c883abfb7354",
      "resource": {
        "resourceType": "Observation",
        "id": "3c34f649-9748-4528-95d3-c883abfb7354",
        "meta": {
          "profile": [
            "http://hl7.eu/fhir/laboratory/StructureDefinition/Observation-resultslab-eu-lab"
          ]
        },
        "performer": [
          {
            "display": "The Central European Lab"
          }
        ],
        "category": [
          {
            "coding": [
              {
                "system": "http://terminology.hl7.org/CodeSystem/observation-category",
                "code": "laboratory"
              }
            ]
          }
        ],
        "code": {
          "coding": [
            {
              "code": "5792-7",
              "system": "http://loinc.org",
              "display": "Glucose [Mass/volume] in Urine by Test strip"
            }
          ],
          "text": "Glucose [Mass/volume] in Urine by Test strip"
        },
        "valueQuantity": {
          "system": "http://unitsofmeasure.org",
          "value": 1.3,
          "unit": "mg/dL",
          "code": "mg/dL"
        },
        "referenceRange": [
          {
            "low": {
              "value": 0,
              "code": "mg/dL",
              "system": "http://unitsofmeasure.org"
            }
          },
          {
            "high": {
              "value": 0.8,
              "code": "mg/dL",
              "system": "http://unitsofmeasure.org"
            }
          }
        ],
        "interpretation": [
          {
            "coding": [
              {
                "code": "H",
                "system": "http://terminology.hl7.org/CodeSystem/v3-ObservationInterpretation",
                "display": "High"
              }
            ]
          }
        ],
        "text": {
          "status": "generated",
          "div": "<div xmlns=\"http://www.w3.org/1999/xhtml\"><table class=\"hl7__eu__lab__report\"><tr><th>Test</th><th>06-Oct-2024</th><th>Reference&#xA0;Range</th><th>Unit</th></tr><tr><td>Glucose [Mass/volume] in Urine by Test strip</td><td>1.3</td><td>0 - 0.8</td><td>H</td><td>mg/dL</td></tr></table></div>"
        },
        "status": "final",
        "subject": {
          "reference": "urn:uuid:605a9e16-fe92-4145-bd00-fd685182ae07",
          "display": "Iva Kratochvílová"
        },
        "effectiveDateTime": "2024-10-06T16:10:29Z",
        "specimen": {
          "reference": "urn:uuid:b09f2c0c-c7e1-43a8-8866-74ca6ae9e1f1"
        }
      }
    },
    {
      "fullUrl": "urn:uuid:b11c5315-ffba-4d0d-a4fb-583bdcb1d477",
      "resource": {
        "resourceType": "Observation",
        "id": "b11c5315-ffba-4d0d-a4fb-583bdcb1d477",
        "meta": {
          "profile": [
            "http://hl7.eu/fhir/laboratory/StructureDefinition/Observation-resultslab-eu-lab"
          ]
        },
        "performer": [
          {
            "display": "The Central European Lab"
          }
        ],
        "category": [
          {
            "coding": [
              {
                "system": "http://terminology.hl7.org/CodeSystem/observation-category",
                "code": "laboratory"
              }
            ]
          }
        ],
        "code": {
          "coding": [
            {
              "code": "25428-4",
              "system": "http://loinc.org",
              "display": "Glucose [Presence] in Urine by Test strip"
            }
          ],
          "text": "Glucose [Presence] in Urine by Test strip"
        },
        "text": {
          "status": "generated",
          "div": "<div xmlns=\"http://www.w3.org/1999/xhtml\"><table class=\"hl7__eu__lab__report\"><tr><th>Test</th><th>06-Oct-2024</th><th>Reference&#xA0;Range</th><th>Unit</th></tr><tr><td>Glucose [Presence] in Urine by Test strip</td></tr></table></div>"
        },
        "status": "final",
        "subject": {
          "reference": "urn:uuid:605a9e16-fe92-4145-bd00-fd685182ae07",
          "display": "Iva Kratochvílová"
        },
        "effectiveDateTime": "2024-10-06T16:10:29Z",
        "specimen": {
          "reference": "urn:uuid:b09f2c0c-c7e1-43a8-8866-74ca6ae9e1f1"
        }
      }
    },
    {
      "fullUrl": "urn:uuid:6e1b58c2-abbb-4466-8026-ef2a28420ff5",
      "resource": {
        "resourceType": "Observation",
        "id": "6e1b58c2-abbb-4466-8026-ef2a28420ff5",
        "meta": {
          "profile": [
            "http://hl7.eu/fhir/laboratory/StructureDefinition/Observation-resultslab-eu-lab"
          ]
        },
        "performer": [
          {
            "display": "The Central European Lab"
          }
        ],
        "category": [
          {
            "coding": [
              {
                "system": "http://terminology.hl7.org/CodeSystem/observation-category",
                "code": "laboratory"
              }
            ]
          }
        ],
        "code": {
          "coding": [
            {
              "code": "20505-4",
              "system": "http://loinc.org",
              "display": "Bilirubin.total [Mass/volume] in Urine by Test strip"
            }
          ],
          "text": "Bilirubin.total [Mass/volume] in Urine by Test strip"
        },
        "valueQuantity": {
          "system": "http://unitsofmeasure.org",
          "value": 1.4,
          "unit": "mg/dL",
          "code": "mg/dL"
        },
        "referenceRange": [
          {
            "low": {
              "value": 0,
              "code": "mg/dL",
              "system": "http://unitsofmeasure.org"
            }
          },
          {
            "high": {
              "value": 1,
              "code": "mg/dL",
              "system": "http://unitsofmeasure.org"
            }
          }
        ],
        "interpretation": [
          {
            "coding": [
              {
                "code": "H",
                "system": "http://terminology.hl7.org/CodeSystem/v3-ObservationInterpretation",
                "display": "High"
              }
            ]
          }
        ],
        "text": {
          "status": "generated",
          "div": "<div xmlns=\"http://www.w3.org/1999/xhtml\"><table class=\"hl7__eu__lab__report\"><tr><th>Test</th><th>06-Oct-2024</th><th>Reference&#xA0;Range</th><th>Unit</th></tr><tr><td>Bilirubin.total [Mass/volume] in Urine by Test strip</td><td>1.4</td><td>0 - 1</td><td>H</td><td>mg/dL</td></tr></table></div>"
        },
        "status": "final",
        "subject": {
          "reference": "urn:uuid:605a9e16-fe92-4145-bd00-fd685182ae07",
          "display": "Iva Kratochvílová"
        },
        "effectiveDateTime": "2024-10-06T16:10:29Z",
        "specimen": {
          "reference": "urn:uuid:b09f2c0c-c7e1-43a8-8866-74ca6ae9e1f1"
        }
      }
    },
    {
      "fullUrl": "urn:uuid:ab95025b-202d-40eb-9e0f-60127dd80fb9",
      "resource": {
        "resourceType": "Observation",
        "id": "ab95025b-202d-40eb-9e0f-60127dd80fb9",
        "meta": {
          "profile": [
            "http://hl7.eu/fhir/laboratory/StructureDefinition/Observation-resultslab-eu-lab"
          ]
        },
        "performer": [
          {
            "display": "The Central European Lab"
          }
        ],
        "category": [
          {
            "coding": [
              {
                "system": "http://terminology.hl7.org/CodeSystem/observation-category",
                "code": "laboratory"
              }
            ]
          }
        ],
        "code": {
          "coding": [
            {
              "code": "5770-3",
              "system": "http://loinc.org",
              "display": "Bilirubin.total [Presence] in Urine by Test strip"
            }
          ],
          "text": "Bilirubin.total [Presence] in Urine by Test strip"
        },
        "text": {
          "status": "generated",
          "div": "<div xmlns=\"http://www.w3.org/1999/xhtml\"><table class=\"hl7__eu__lab__report\"><tr><th>Test</th><th>06-Oct-2024</th><th>Reference&#xA0;Range</th><th>Unit</th></tr><tr><td>Bilirubin.total [Presence] in Urine by Test strip</td></tr></table></div>"
        },
        "status": "final",
        "subject": {
          "reference": "urn:uuid:605a9e16-fe92-4145-bd00-fd685182ae07",
          "display": "Iva Kratochvílová"
        },
        "effectiveDateTime": "2024-10-06T16:10:29Z",
        "specimen": {
          "reference": "urn:uuid:b09f2c0c-c7e1-43a8-8866-74ca6ae9e1f1"
        }
      }
    },
    {
      "fullUrl": "urn:uuid:39d20597-7d04-4bb4-a525-50b769747d97",
      "resource": {
        "resourceType": "Observation",
        "id": "39d20597-7d04-4bb4-a525-50b769747d97",
        "meta": {
          "profile": [
            "http://hl7.eu/fhir/laboratory/StructureDefinition/Observation-resultslab-eu-lab"
          ]
        },
        "performer": [
          {
            "display": "The Central European Lab"
          }
        ],
        "category": [
          {
            "coding": [
              {
                "system": "http://terminology.hl7.org/CodeSystem/observation-category",
                "code": "laboratory"
              }
            ]
          }
        ],
        "code": {
          "coding": [
            {
              "code": "5797-6",
              "system": "http://loinc.org",
              "display": "Ketones [Mass/volume] in Urine by Test strip"
            }
          ],
          "text": "Ketones [Mass/volume] in Urine by Test strip"
        },
        "valueQuantity": {
          "system": "http://unitsofmeasure.org",
          "value": 8.6,
          "unit": "mg/dL",
          "code": "mg/dL"
        },
        "referenceRange": [
          {
            "low": {
              "value": 0,
              "code": "mg/dL",
              "system": "http://unitsofmeasure.org"
            }
          },
          {
            "high": {
              "value": 4,
              "code": "mg/dL",
              "system": "http://unitsofmeasure.org"
            }
          }
        ],
        "interpretation": [
          {
            "coding": [
              {
                "code": "H",
                "system": "http://terminology.hl7.org/CodeSystem/v3-ObservationInterpretation",
                "display": "High"
              }
            ]
          }
        ],
        "text": {
          "status": "generated",
          "div": "<div xmlns=\"http://www.w3.org/1999/xhtml\"><table class=\"hl7__eu__lab__report\"><tr><th>Test</th><th>06-Oct-2024</th><th>Reference&#xA0;Range</th><th>Unit</th></tr><tr><td>Ketones [Mass/volume] in Urine by Test strip</td><td>8.6</td><td>0 - 4</td><td>H</td><td>mg/dL</td></tr></table></div>"
        },
        "status": "final",
        "subject": {
          "reference": "urn:uuid:605a9e16-fe92-4145-bd00-fd685182ae07",
          "display": "Iva Kratochvílová"
        },
        "effectiveDateTime": "2024-10-06T16:10:29Z",
        "specimen": {
          "reference": "urn:uuid:b09f2c0c-c7e1-43a8-8866-74ca6ae9e1f1"
        }
      }
    },
    {
      "fullUrl": "urn:uuid:7f153ece-c4c8-4b93-9c6a-a86d53994c00",
      "resource": {
        "resourceType": "Observation",
        "id": "7f153ece-c4c8-4b93-9c6a-a86d53994c00",
        "meta": {
          "profile": [
            "http://hl7.eu/fhir/laboratory/StructureDefinition/Observation-resultslab-eu-lab"
          ]
        },
        "performer": [
          {
            "display": "The Central European Lab"
          }
        ],
        "category": [
          {
            "coding": [
              {
                "system": "http://terminology.hl7.org/CodeSystem/observation-category",
                "code": "laboratory"
              }
            ]
          }
        ],
        "code": {
          "coding": [
            {
              "code": "2514-8",
              "system": "http://loinc.org",
              "display": "Ketones [Presence] in Urine by Test strip"
            }
          ],
          "text": "Ketones [Presence] in Urine by Test strip"
        },
        "text": {
          "status": "generated",
          "div": "<div xmlns=\"http://www.w3.org/1999/xhtml\"><table class=\"hl7__eu__lab__report\"><tr><th>Test</th><th>06-Oct-2024</th><th>Reference&#xA0;Range</th><th>Unit</th></tr><tr><td>Ketones [Presence] in Urine by Test strip</td></tr></table></div>"
        },
        "status": "final",
        "subject": {
          "reference": "urn:uuid:605a9e16-fe92-4145-bd00-fd685182ae07",
          "display": "Iva Kratochvílová"
        },
        "effectiveDateTime": "2024-10-06T16:10:29Z",
        "specimen": {
          "reference": "urn:uuid:b09f2c0c-c7e1-43a8-8866-74ca6ae9e1f1"
        }
      }
    },
    {
      "fullUrl": "urn:uuid:2345021e-6279-4747-b421-7510534af8e2",
      "resource": {
        "resourceType": "Observation",
        "id": "2345021e-6279-4747-b421-7510534af8e2",
        "meta": {
          "profile": [
            "http://hl7.eu/fhir/laboratory/StructureDefinition/Observation-resultslab-eu-lab"
          ]
        },
        "performer": [
          {
            "display": "The Central European Lab"
          }
        ],
        "category": [
          {
            "coding": [
              {
                "system": "http://terminology.hl7.org/CodeSystem/observation-category",
                "code": "laboratory"
              }
            ]
          }
        ],
        "code": {
          "coding": [
            {
              "code": "5811-5",
              "system": "http://loinc.org",
              "display": "Specific gravity of Urine by Test strip"
            }
          ],
          "text": "Specific gravity of Urine by Test strip"
        },
        "valueQuantity": {
          "system": "http://unitsofmeasure.org",
          "value": 1,
          "unit": "{nominal}",
          "code": "{nominal}"
        },
        "referenceRange": [
          {
            "low": {
              "value": 1.005,
              "code": "g/mL",
              "system": "http://unitsofmeasure.org"
            }
          },
          {
            "high": {
              "value": 1.03,
              "code": "g/mL",
              "system": "http://unitsofmeasure.org"
            }
          }
        ],
        "interpretation": [
          {
            "coding": [
              {
                "code": "L",
                "system": "http://terminology.hl7.org/CodeSystem/v3-ObservationInterpretation",
                "display": "Low"
              }
            ]
          }
        ],
        "text": {
          "status": "generated",
          "div": "<div xmlns=\"http://www.w3.org/1999/xhtml\"><table class=\"hl7__eu__lab__report\"><tr><th>Test</th><th>06-Oct-2024</th><th>Reference&#xA0;Range</th><th>Unit</th></tr><tr><td>Specific gravity of Urine by Test strip</td><td>1.0</td><td>1.005 - 1.03</td><td>L</td><td>{nominal}</td></tr></table></div>"
        },
        "status": "final",
        "subject": {
          "reference": "urn:uuid:605a9e16-fe92-4145-bd00-fd685182ae07",
          "display": "Iva Kratochvílová"
        },
        "effectiveDateTime": "2024-10-06T16:10:29Z",
        "specimen": {
          "reference": "urn:uuid:b09f2c0c-c7e1-43a8-8866-74ca6ae9e1f1"
        }
      }
    },
    {
      "fullUrl": "urn:uuid:678322d3-711c-4fa0-929e-fa3d122aeafa",
      "resource": {
        "resourceType": "Observation",
        "id": "678322d3-711c-4fa0-929e-fa3d122aeafa",
        "meta": {
          "profile": [
            "http://hl7.eu/fhir/laboratory/StructureDefinition/Observation-resultslab-eu-lab"
          ]
        },
        "performer": [
          {
            "display": "The Central European Lab"
          }
        ],
        "category": [
          {
            "coding": [
              {
                "system": "http://terminology.hl7.org/CodeSystem/observation-category",
                "code": "laboratory"
              }
            ]
          }
        ],
        "code": {
          "coding": [
            {
              "code": "5803-2",
              "system": "http://loinc.org",
              "display": "pH of Urine by Test strip"
            }
          ],
          "text": "pH of Urine by Test strip"
        },
        "valueQuantity": {
          "system": "http://unitsofmeasure.org",
          "value": 5.8,
          "unit": "pH",
          "code": "pH"
        },
        "referenceRange": [
          {
            "low": {
              "value": 4.5,
              "code": "pH",
              "system": "http://unitsofmeasure.org"
            }
          },
          {
            "high": {
              "value": 7,
              "code": "pH",
              "system": "http://unitsofmeasure.org"
            }
          }
        ],
        "text": {
          "status": "generated",
          "div": "<div xmlns=\"http://www.w3.org/1999/xhtml\"><table class=\"hl7__eu__lab__report\"><tr><th>Test</th><th>06-Oct-2024</th><th>Reference&#xA0;Range</th><th>Unit</th></tr><tr><td>pH of Urine by Test strip</td><td>5.8</td><td>4.5 - 7</td><td></td><td>pH</td></tr></table></div>"
        },
        "status": "final",
        "subject": {
          "reference": "urn:uuid:605a9e16-fe92-4145-bd00-fd685182ae07",
          "display": "Iva Kratochvílová"
        },
        "effectiveDateTime": "2024-10-06T16:10:29Z",
        "specimen": {
          "reference": "urn:uuid:b09f2c0c-c7e1-43a8-8866-74ca6ae9e1f1"
        }
      }
    },
    {
      "fullUrl": "urn:uuid:c9cdea9e-4646-4309-9174-8a719805d2cc",
      "resource": {
        "resourceType": "Observation",
        "id": "c9cdea9e-4646-4309-9174-8a719805d2cc",
        "meta": {
          "profile": [
            "http://hl7.eu/fhir/laboratory/StructureDefinition/Observation-resultslab-eu-lab"
          ]
        },
        "performer": [
          {
            "display": "The Central European Lab"
          }
        ],
        "category": [
          {
            "coding": [
              {
                "system": "http://terminology.hl7.org/CodeSystem/observation-category",
                "code": "laboratory"
              }
            ]
          }
        ],
        "code": {
          "coding": [
            {
              "code": "5804-0",
              "system": "http://loinc.org",
              "display": "Protein [Mass/volume] in Urine by Test strip"
            }
          ],
          "text": "Protein [Mass/volume] in Urine by Test strip"
        },
        "valueQuantity": {
          "system": "http://unitsofmeasure.org",
          "value": 168.2,
          "unit": "mg/dL",
          "code": "mg/dL"
        },
        "referenceRange": [
          {
            "low": {
              "value": 0,
              "code": "mg/dL",
              "system": "http://unitsofmeasure.org"
            }
          },
          {
            "high": {
              "value": 145,
              "code": "mg/dL",
              "system": "http://unitsofmeasure.org"
            }
          }
        ],
        "interpretation": [
          {
            "coding": [
              {
                "code": "H",
                "system": "http://terminology.hl7.org/CodeSystem/v3-ObservationInterpretation",
                "display": "High"
              }
            ]
          }
        ],
        "text": {
          "status": "generated",
          "div": "<div xmlns=\"http://www.w3.org/1999/xhtml\"><table class=\"hl7__eu__lab__report\"><tr><th>Test</th><th>06-Oct-2024</th><th>Reference&#xA0;Range</th><th>Unit</th></tr><tr><td>Protein [Mass/volume] in Urine by Test strip</td><td>168.2</td><td>0 - 145</td><td>H</td><td>mg/dL</td></tr></table></div>"
        },
        "status": "final",
        "subject": {
          "reference": "urn:uuid:605a9e16-fe92-4145-bd00-fd685182ae07",
          "display": "Iva Kratochvílová"
        },
        "effectiveDateTime": "2024-10-06T16:10:29Z",
        "specimen": {
          "reference": "urn:uuid:b09f2c0c-c7e1-43a8-8866-74ca6ae9e1f1"
        }
      }
    },
    {
      "fullUrl": "urn:uuid:00902969-e71d-4548-b45c-9c0cac34a362",
      "resource": {
        "resourceType": "Observation",
        "id": "00902969-e71d-4548-b45c-9c0cac34a362",
        "meta": {
          "profile": [
            "http://hl7.eu/fhir/laboratory/StructureDefinition/Observation-resultslab-eu-lab"
          ]
        },
        "performer": [
          {
            "display": "The Central European Lab"
          }
        ],
        "category": [
          {
            "coding": [
              {
                "system": "http://terminology.hl7.org/CodeSystem/observation-category",
                "code": "laboratory"
              }
            ]
          }
        ],
        "code": {
          "coding": [
            {
              "code": "20454-5",
              "system": "http://loinc.org",
              "display": "Protein [Presence] in Urine by Test strip"
            }
          ],
          "text": "Protein [Presence] in Urine by Test strip"
        },
        "text": {
          "status": "generated",
          "div": "<div xmlns=\"http://www.w3.org/1999/xhtml\"><table class=\"hl7__eu__lab__report\"><tr><th>Test</th><th>06-Oct-2024</th><th>Reference&#xA0;Range</th><th>Unit</th></tr><tr><td>Protein [Presence] in Urine by Test strip</td></tr></table></div>"
        },
        "status": "final",
        "subject": {
          "reference": "urn:uuid:605a9e16-fe92-4145-bd00-fd685182ae07",
          "display": "Iva Kratochvílová"
        },
        "effectiveDateTime": "2024-10-06T16:10:29Z",
        "specimen": {
          "reference": "urn:uuid:b09f2c0c-c7e1-43a8-8866-74ca6ae9e1f1"
        }
      }
    },
    {
      "fullUrl": "urn:uuid:4d61a596-6cb6-42c0-8d4d-26974ba10467",
      "resource": {
        "resourceType": "Observation",
        "id": "4d61a596-6cb6-42c0-8d4d-26974ba10467",
        "meta": {
          "profile": [
            "http://hl7.eu/fhir/laboratory/StructureDefinition/Observation-resultslab-eu-lab"
          ]
        },
        "performer": [
          {
            "display": "The Central European Lab"
          }
        ],
        "category": [
          {
            "coding": [
              {
                "system": "http://terminology.hl7.org/CodeSystem/observation-category",
                "code": "laboratory"
              }
            ]
          }
        ],
        "code": {
          "coding": [
            {
              "code": "5802-4",
              "system": "http://loinc.org",
              "display": "Nitrite [Presence] in Urine by Test strip"
            }
          ],
          "text": "Nitrite [Presence] in Urine by Test strip"
        },
        "text": {
          "status": "generated",
          "div": "<div xmlns=\"http://www.w3.org/1999/xhtml\"><table class=\"hl7__eu__lab__report\"><tr><th>Test</th><th>06-Oct-2024</th><th>Reference&#xA0;Range</th><th>Unit</th></tr><tr><td>Nitrite [Presence] in Urine by Test strip</td></tr></table></div>"
        },
        "status": "final",
        "subject": {
          "reference": "urn:uuid:605a9e16-fe92-4145-bd00-fd685182ae07",
          "display": "Iva Kratochvílová"
        },
        "effectiveDateTime": "2024-10-06T16:10:29Z",
        "specimen": {
          "reference": "urn:uuid:b09f2c0c-c7e1-43a8-8866-74ca6ae9e1f1"
        }
      }
    },
    {
      "fullUrl": "urn:uuid:cabf6dd9-e4b5-4c12-b74e-c9fe39c80f42",
      "resource": {
        "resourceType": "Observation",
        "id": "cabf6dd9-e4b5-4c12-b74e-c9fe39c80f42",
        "meta": {
          "profile": [
            "http://hl7.eu/fhir/laboratory/StructureDefinition/Observation-resultslab-eu-lab"
          ]
        },
        "performer": [
          {
            "display": "The Central European Lab"
          }
        ],
        "category": [
          {
            "coding": [
              {
                "system": "http://terminology.hl7.org/CodeSystem/observation-category",
                "code": "laboratory"
              }
            ]
          }
        ],
        "code": {
          "coding": [
            {
              "code": "5794-3",
              "system": "http://loinc.org",
              "display": "Hemoglobin [Presence] in Urine by Test strip"
            }
          ],
          "text": "Hemoglobin [Presence] in Urine by Test strip"
        },
        "text": {
          "status": "generated",
          "div": "<div xmlns=\"http://www.w3.org/1999/xhtml\"><table class=\"hl7__eu__lab__report\"><tr><th>Test</th><th>06-Oct-2024</th><th>Reference&#xA0;Range</th><th>Unit</th></tr><tr><td>Hemoglobin [Presence] in Urine by Test strip</td></tr></table></div>"
        },
        "status": "final",
        "subject": {
          "reference": "urn:uuid:605a9e16-fe92-4145-bd00-fd685182ae07",
          "display": "Iva Kratochvílová"
        },
        "effectiveDateTime": "2024-10-06T16:10:29Z",
        "specimen": {
          "reference": "urn:uuid:b09f2c0c-c7e1-43a8-8866-74ca6ae9e1f1"
        }
      }
    },
    {
      "fullUrl": "urn:uuid:58e37f87-8dbc-4c67-9e41-850f501bf237",
      "resource": {
        "resourceType": "Observation",
        "id": "58e37f87-8dbc-4c67-9e41-850f501bf237",
        "meta": {
          "profile": [
            "http://hl7.eu/fhir/laboratory/StructureDefinition/Observation-resultslab-eu-lab"
          ]
        },
        "performer": [
          {
            "display": "The Central European Lab"
          }
        ],
        "category": [
          {
            "coding": [
              {
                "system": "http://terminology.hl7.org/CodeSystem/observation-category",
                "code": "laboratory"
              }
            ]
          }
        ],
        "code": {
          "coding": [
            {
              "code": "5799-2",
              "system": "http://loinc.org",
              "display": "Leukocyte esterase [Presence] in Urine by Test strip"
            }
          ],
          "text": "Leukocyte esterase [Presence] in Urine by Test strip"
        },
        "text": {
          "status": "generated",
          "div": "<div xmlns=\"http://www.w3.org/1999/xhtml\"><table class=\"hl7__eu__lab__report\"><tr><th>Test</th><th>06-Oct-2024</th><th>Reference&#xA0;Range</th><th>Unit</th></tr><tr><td>Leukocyte esterase [Presence] in Urine by Test strip</td></tr></table></div>"
        },
        "status": "final",
        "subject": {
          "reference": "urn:uuid:605a9e16-fe92-4145-bd00-fd685182ae07",
          "display": "Iva Kratochvílová"
        },
        "effectiveDateTime": "2024-10-06T16:10:29Z",
        "specimen": {
          "reference": "urn:uuid:b09f2c0c-c7e1-43a8-8866-74ca6ae9e1f1"
        }
      }
    },
    {
      "fullUrl": "urn:uuid:f32a347d-3b7f-4b9e-85d6-04d8467d3986",
      "resource": {
        "resourceType": "Observation",
        "id": "f32a347d-3b7f-4b9e-85d6-04d8467d3986",
        "meta": {
          "profile": [
            "http://hl7.eu/fhir/laboratory/StructureDefinition/Observation-resultslab-eu-lab"
          ]
        },
        "performer": [
          {
            "display": "The Central European Lab"
          }
        ],
        "category": [
          {
            "coding": [
              {
                "system": "http://terminology.hl7.org/CodeSystem/observation-category",
                "code": "laboratory"
              }
            ]
          }
        ],
        "code": {
          "coding": [
            {
              "code": "4548-4",
              "system": "http://loinc.org",
              "display": "Hemoglobin A1c/Hemoglobin.total in Blood"
            }
          ],
          "text": "Hemoglobin A1c/Hemoglobin.total in Blood"
        },
        "valueQuantity": {
          "system": "http://unitsofmeasure.org",
          "value": 3.1,
          "unit": "%",
          "code": "%"
        },
        "referenceRange": [
          {
            "low": {
              "value": 4,
              "code": "%",
              "system": "http://unitsofmeasure.org"
            }
          },
          {
            "high": {
              "value": 6,
              "code": "%",
              "system": "http://unitsofmeasure.org"
            }
          }
        ],
        "interpretation": [
          {
            "coding": [
              {
                "code": "L",
                "system": "http://terminology.hl7.org/CodeSystem/v3-ObservationInterpretation",
                "display": "Low"
              }
            ]
          }
        ],
        "text": {
          "status": "generated",
          "div": "<div xmlns=\"http://www.w3.org/1999/xhtml\"><table class=\"hl7__eu__lab__report\"><tr><th>Test</th><th>06-Oct-2024</th><th>Reference&#xA0;Range</th><th>Unit</th></tr><tr><td>Hemoglobin A1c/Hemoglobin.total in Blood</td><td>3.1</td><td>4 - 6</td><td>L</td><td>%</td></tr></table></div>"
        },
        "status": "final",
        "subject": {
          "reference": "urn:uuid:605a9e16-fe92-4145-bd00-fd685182ae07",
          "display": "Iva Kratochvílová"
        },
        "effectiveDateTime": "2024-10-06T16:10:29Z",
        "specimen": {
          "reference": "urn:uuid:486e99b6-958f-4b10-9a99-54c68028a9e7"
        }
      }
    },
    {
      "fullUrl": "urn:uuid:67926f9c-3c93-4831-a78a-1e5af1437ea8",
      "resource": {
        "resourceType": "Observation",
        "id": "67926f9c-3c93-4831-a78a-1e5af1437ea8",
        "meta": {
          "profile": [
            "http://hl7.eu/fhir/laboratory/StructureDefinition/Observation-resultslab-eu-lab"
          ]
        },
        "performer": [
          {
            "display": "The Central European Lab"
          }
        ],
        "category": [
          {
            "coding": [
              {
                "system": "http://terminology.hl7.org/CodeSystem/observation-category",
                "code": "laboratory"
              }
            ]
          }
        ],
        "code": {
          "coding": [
            {
              "code": "2339-0",
              "system": "http://loinc.org",
              "display": "Glucose [Mass/volume] in Blood"
            }
          ],
          "text": "Glucose [Mass/volume] in Blood"
        },
        "valueQuantity": {
          "system": "http://unitsofmeasure.org",
          "value": 82.7,
          "unit": "mg/dL",
          "code": "mg/dL"
        },
        "referenceRange": [
          {
            "low": {
              "value": 70,
              "code": "mg/dL",
              "system": "http://unitsofmeasure.org"
            }
          },
          {
            "high": {
              "value": 140,
              "code": "mg/dL",
              "system": "http://unitsofmeasure.org"
            }
          }
        ],
        "text": {
          "status": "generated",
          "div": "<div xmlns=\"http://www.w3.org/1999/xhtml\"><table class=\"hl7__eu__lab__report\"><tr><th>Test</th><th>06-Oct-2024</th><th>Reference&#xA0;Range</th><th>Unit</th></tr><tr><td>Glucose [Mass/volume] in Blood</td><td>82.7</td><td>70 - 140</td><td></td><td>mg/dL</td></tr></table></div>"
        },
        "status": "final",
        "subject": {
          "reference": "urn:uuid:605a9e16-fe92-4145-bd00-fd685182ae07",
          "display": "Iva Kratochvílová"
        },
        "effectiveDateTime": "2024-10-06T16:10:29Z",
        "specimen": {
          "reference": "urn:uuid:486e99b6-958f-4b10-9a99-54c68028a9e7"
        }
      }
    },
    {
      "fullUrl": "urn:uuid:c3ed67e8-0c14-422c-a826-c1d4d751a611",
      "resource": {
        "resourceType": "Observation",
        "id": "c3ed67e8-0c14-422c-a826-c1d4d751a611",
        "meta": {
          "profile": [
            "http://hl7.eu/fhir/laboratory/StructureDefinition/Observation-resultslab-eu-lab"
          ]
        },
        "performer": [
          {
            "display": "The Central European Lab"
          }
        ],
        "category": [
          {
            "coding": [
              {
                "system": "http://terminology.hl7.org/CodeSystem/observation-category",
                "code": "laboratory"
              }
            ]
          }
        ],
        "code": {
          "coding": [
            {
              "code": "6299-2",
              "system": "http://loinc.org",
              "display": "Urea nitrogen [Mass/volume] in Blood"
            }
          ],
          "text": "Urea nitrogen [Mass/volume] in Blood"
        },
        "valueQuantity": {
          "system": "http://unitsofmeasure.org",
          "value": 9.7,
          "unit": "mg/dL",
          "code": "mg/dL"
        },
        "referenceRange": [
          {
            "low": {
              "value": 7,
              "code": "mg/dL",
              "system": "http://unitsofmeasure.org"
            }
          },
          {
            "high": {
              "value": 25,
              "code": "mg/dL",
              "system": "http://unitsofmeasure.org"
            }
          }
        ],
        "text": {
          "status": "generated",
          "div": "<div xmlns=\"http://www.w3.org/1999/xhtml\"><table class=\"hl7__eu__lab__report\"><tr><th>Test</th><th>06-Oct-2024</th><th>Reference&#xA0;Range</th><th>Unit</th></tr><tr><td>Urea nitrogen [Mass/volume] in Blood</td><td>9.7</td><td>7 - 25</td><td></td><td>mg/dL</td></tr></table></div>"
        },
        "status": "final",
        "subject": {
          "reference": "urn:uuid:605a9e16-fe92-4145-bd00-fd685182ae07",
          "display": "Iva Kratochvílová"
        },
        "effectiveDateTime": "2024-10-06T16:10:29Z",
        "specimen": {
          "reference": "urn:uuid:486e99b6-958f-4b10-9a99-54c68028a9e7"
        }
      }
    },
    {
      "fullUrl": "urn:uuid:0d291e31-1c27-4752-9666-d18a62bce528",
      "resource": {
        "resourceType": "Observation",
        "id": "0d291e31-1c27-4752-9666-d18a62bce528",
        "meta": {
          "profile": [
            "http://hl7.eu/fhir/laboratory/StructureDefinition/Observation-resultslab-eu-lab"
          ]
        },
        "performer": [
          {
            "display": "The Central European Lab"
          }
        ],
        "category": [
          {
            "coding": [
              {
                "system": "http://terminology.hl7.org/CodeSystem/observation-category",
                "code": "laboratory"
              }
            ]
          }
        ],
        "code": {
          "coding": [
            {
              "code": "38483-4",
              "system": "http://loinc.org",
              "display": "Creatinine [Mass/volume] in Blood"
            }
          ],
          "text": "Creatinine [Mass/volume] in Blood"
        },
        "valueQuantity": {
          "system": "http://unitsofmeasure.org",
          "value": 1.7,
          "unit": "mg/dL",
          "code": "mg/dL"
        },
        "referenceRange": [
          {
            "low": {
              "value": 0.6,
              "code": "mg/dL",
              "system": "http://unitsofmeasure.org"
            }
          },
          {
            "high": {
              "value": 1.1,
              "code": "mg/dL",
              "system": "http://unitsofmeasure.org"
            }
          }
        ],
        "interpretation": [
          {
            "coding": [
              {
                "code": "H",
                "system": "http://terminology.hl7.org/CodeSystem/v3-ObservationInterpretation",
                "display": "High"
              }
            ]
          }
        ],
        "text": {
          "status": "generated",
          "div": "<div xmlns=\"http://www.w3.org/1999/xhtml\"><table class=\"hl7__eu__lab__report\"><tr><th>Test</th><th>06-Oct-2024</th><th>Reference&#xA0;Range</th><th>Unit</th></tr><tr><td>Creatinine [Mass/volume] in Blood</td><td>1.7</td><td>0.6 - 1.1</td><td>H</td><td>mg/dL</td></tr></table></div>"
        },
        "status": "final",
        "subject": {
          "reference": "urn:uuid:605a9e16-fe92-4145-bd00-fd685182ae07",
          "display": "Iva Kratochvílová"
        },
        "effectiveDateTime": "2024-10-06T16:10:29Z",
        "specimen": {
          "reference": "urn:uuid:486e99b6-958f-4b10-9a99-54c68028a9e7"
        }
      }
    },
    {
      "fullUrl": "urn:uuid:563c6a94-28e5-4bb7-aeaf-7202cdd47a81",
      "resource": {
        "resourceType": "Observation",
        "id": "563c6a94-28e5-4bb7-aeaf-7202cdd47a81",
        "meta": {
          "profile": [
            "http://hl7.eu/fhir/laboratory/StructureDefinition/Observation-resultslab-eu-lab"
          ]
        },
        "performer": [
          {
            "display": "The Central European Lab"
          }
        ],
        "category": [
          {
            "coding": [
              {
                "system": "http://terminology.hl7.org/CodeSystem/observation-category",
                "code": "laboratory"
              }
            ]
          }
        ],
        "code": {
          "coding": [
            {
              "code": "49765-1",
              "system": "http://loinc.org",
              "display": "Calcium [Mass/volume] in Blood"
            }
          ],
          "text": "Calcium [Mass/volume] in Blood"
        },
        "valueQuantity": {
          "system": "http://unitsofmeasure.org",
          "value": 9.9,
          "unit": "mg/dL",
          "code": "mg/dL"
        },
        "referenceRange": [
          {
            "low": {
              "value": 8.6,
              "code": "mg/dL",
              "system": "http://unitsofmeasure.org"
            }
          },
          {
            "high": {
              "value": 10.4,
              "code": "mg/dL",
              "system": "http://unitsofmeasure.org"
            }
          }
        ],
        "text": {
          "status": "generated",
          "div": "<div xmlns=\"http://www.w3.org/1999/xhtml\"><table class=\"hl7__eu__lab__report\"><tr><th>Test</th><th>06-Oct-2024</th><th>Reference&#xA0;Range</th><th>Unit</th></tr><tr><td>Calcium [Mass/volume] in Blood</td><td>9.9</td><td>8.6 - 10.4</td><td></td><td>mg/dL</td></tr></table></div>"
        },
        "status": "final",
        "subject": {
          "reference": "urn:uuid:605a9e16-fe92-4145-bd00-fd685182ae07",
          "display": "Iva Kratochvílová"
        },
        "effectiveDateTime": "2024-10-06T16:10:29Z",
        "specimen": {
          "reference": "urn:uuid:486e99b6-958f-4b10-9a99-54c68028a9e7"
        }
      }
    },
    {
      "fullUrl": "urn:uuid:74432886-9f87-4412-a615-431937ef19c2",
      "resource": {
        "resourceType": "Observation",
        "id": "74432886-9f87-4412-a615-431937ef19c2",
        "meta": {
          "profile": [
            "http://hl7.eu/fhir/laboratory/StructureDefinition/Observation-resultslab-eu-lab"
          ]
        },
        "performer": [
          {
            "display": "The Central European Lab"
          }
        ],
        "category": [
          {
            "coding": [
              {
                "system": "http://terminology.hl7.org/CodeSystem/observation-category",
                "code": "laboratory"
              }
            ]
          }
        ],
        "code": {
          "coding": [
            {
              "code": "2947-0",
              "system": "http://loinc.org",
              "display": "Sodium [Moles/volume] in Blood"
            }
          ],
          "text": "Sodium [Moles/volume] in Blood"
        },
        "valueQuantity": {
          "system": "http://unitsofmeasure.org",
          "value": 137.1,
          "unit": "mmol/L",
          "code": "mmol/L"
        },
        "referenceRange": [
          {
            "low": {
              "value": 135,
              "code": "mmol/L",
              "system": "http://unitsofmeasure.org"
            }
          },
          {
            "high": {
              "value": 145,
              "code": "mmol/L",
              "system": "http://unitsofmeasure.org"
            }
          }
        ],
        "text": {
          "status": "generated",
          "div": "<div xmlns=\"http://www.w3.org/1999/xhtml\"><table class=\"hl7__eu__lab__report\"><tr><th>Test</th><th>06-Oct-2024</th><th>Reference&#xA0;Range</th><th>Unit</th></tr><tr><td>Sodium [Moles/volume] in Blood</td><td>137.1</td><td>135 - 145</td><td></td><td>mmol/L</td></tr></table></div>"
        },
        "status": "final",
        "subject": {
          "reference": "urn:uuid:605a9e16-fe92-4145-bd00-fd685182ae07",
          "display": "Iva Kratochvílová"
        },
        "effectiveDateTime": "2024-10-06T16:10:29Z",
        "specimen": {
          "reference": "urn:uuid:486e99b6-958f-4b10-9a99-54c68028a9e7"
        }
      }
    },
    {
      "fullUrl": "urn:uuid:0f38d301-04a8-4ffc-a476-f82219a7cba6",
      "resource": {
        "resourceType": "Observation",
        "id": "0f38d301-04a8-4ffc-a476-f82219a7cba6",
        "meta": {
          "profile": [
            "http://hl7.eu/fhir/laboratory/StructureDefinition/Observation-resultslab-eu-lab"
          ]
        },
        "performer": [
          {
            "display": "The Central European Lab"
          }
        ],
        "category": [
          {
            "coding": [
              {
                "system": "http://terminology.hl7.org/CodeSystem/observation-category",
                "code": "laboratory"
              }
            ]
          }
        ],
        "code": {
          "coding": [
            {
              "code": "6298-4",
              "system": "http://loinc.org",
              "display": "Potassium [Moles/volume] in Blood"
            }
          ],
          "text": "Potassium [Moles/volume] in Blood"
        },
        "valueQuantity": {
          "system": "http://unitsofmeasure.org",
          "value": 4.2,
          "unit": "mmol/L",
          "code": "mmol/L"
        },
        "referenceRange": [
          {
            "low": {
              "value": 3.5,
              "code": "mmol/L",
              "system": "http://unitsofmeasure.org"
            }
          },
          {
            "high": {
              "value": 5.1,
              "code": "mmol/L",
              "system": "http://unitsofmeasure.org"
            }
          }
        ],
        "text": {
          "status": "generated",
          "div": "<div xmlns=\"http://www.w3.org/1999/xhtml\"><table class=\"hl7__eu__lab__report\"><tr><th>Test</th><th>06-Oct-2024</th><th>Reference&#xA0;Range</th><th>Unit</th></tr><tr><td>Potassium [Moles/volume] in Blood</td><td>4.2</td><td>3.5 - 5.1</td><td></td><td>mmol/L</td></tr></table></div>"
        },
        "status": "final",
        "subject": {
          "reference": "urn:uuid:605a9e16-fe92-4145-bd00-fd685182ae07",
          "display": "Iva Kratochvílová"
        },
        "effectiveDateTime": "2024-10-06T16:10:29Z",
        "specimen": {
          "reference": "urn:uuid:486e99b6-958f-4b10-9a99-54c68028a9e7"
        }
      }
    },
    {
      "fullUrl": "urn:uuid:171d82b2-91f9-49ca-9760-36a08c01171c",
      "resource": {
        "resourceType": "Observation",
        "id": "171d82b2-91f9-49ca-9760-36a08c01171c",
        "meta": {
          "profile": [
            "http://hl7.eu/fhir/laboratory/StructureDefinition/Observation-resultslab-eu-lab"
          ]
        },
        "performer": [
          {
            "display": "The Central European Lab"
          }
        ],
        "category": [
          {
            "coding": [
              {
                "system": "http://terminology.hl7.org/CodeSystem/observation-category",
                "code": "laboratory"
              }
            ]
          }
        ],
        "code": {
          "coding": [
            {
              "code": "2069-3",
              "system": "http://loinc.org",
              "display": "Chloride [Moles/volume] in Blood"
            }
          ],
          "text": "Chloride [Moles/volume] in Blood"
        },
        "valueQuantity": {
          "system": "http://unitsofmeasure.org",
          "value": 102.5,
          "unit": "mmol/L",
          "code": "mmol/L"
        },
        "referenceRange": [
          {
            "low": {
              "value": 98,
              "code": "mmol/L",
              "system": "http://unitsofmeasure.org"
            }
          },
          {
            "high": {
              "value": 110,
              "code": "mmol/L",
              "system": "http://unitsofmeasure.org"
            }
          }
        ],
        "text": {
          "status": "generated",
          "div": "<div xmlns=\"http://www.w3.org/1999/xhtml\"><table class=\"hl7__eu__lab__report\"><tr><th>Test</th><th>06-Oct-2024</th><th>Reference&#xA0;Range</th><th>Unit</th></tr><tr><td>Chloride [Moles/volume] in Blood</td><td>102.5</td><td>98 - 110</td><td></td><td>mmol/L</td></tr></table></div>"
        },
        "status": "final",
        "subject": {
          "reference": "urn:uuid:605a9e16-fe92-4145-bd00-fd685182ae07",
          "display": "Iva Kratochvílová"
        },
        "effectiveDateTime": "2024-10-06T16:10:29Z",
        "specimen": {
          "reference": "urn:uuid:486e99b6-958f-4b10-9a99-54c68028a9e7"
        }
      }
    },
    {
      "fullUrl": "urn:uuid:ed0b2653-8371-4dc0-b72c-46a4b752dd18",
      "resource": {
        "resourceType": "Observation",
        "id": "ed0b2653-8371-4dc0-b72c-46a4b752dd18",
        "meta": {
          "profile": [
            "http://hl7.eu/fhir/laboratory/StructureDefinition/Observation-resultslab-eu-lab"
          ]
        },
        "performer": [
          {
            "display": "The Central European Lab"
          }
        ],
        "category": [
          {
            "coding": [
              {
                "system": "http://terminology.hl7.org/CodeSystem/observation-category",
                "code": "laboratory"
              }
            ]
          }
        ],
        "code": {
          "coding": [
            {
              "code": "20565-8",
              "system": "http://loinc.org",
              "display": "Carbon dioxide, total [Moles/volume] in Blood"
            }
          ],
          "text": "Carbon dioxide, total [Moles/volume] in Blood"
        },
        "valueQuantity": {
          "system": "http://unitsofmeasure.org",
          "value": 21.4,
          "unit": "mmol/L",
          "code": "mmol/L"
        },
        "referenceRange": [
          {
            "low": {
              "value": 22,
              "code": "mmol/L",
              "system": "http://unitsofmeasure.org"
            }
          },
          {
            "high": {
              "value": 29,
              "code": "mmol/L",
              "system": "http://unitsofmeasure.org"
            }
          }
        ],
        "interpretation": [
          {
            "coding": [
              {
                "code": "L",
                "system": "http://terminology.hl7.org/CodeSystem/v3-ObservationInterpretation",
                "display": "Low"
              }
            ]
          }
        ],
        "text": {
          "status": "generated",
          "div": "<div xmlns=\"http://www.w3.org/1999/xhtml\"><table class=\"hl7__eu__lab__report\"><tr><th>Test</th><th>06-Oct-2024</th><th>Reference&#xA0;Range</th><th>Unit</th></tr><tr><td>Carbon dioxide, total [Moles/volume] in Blood</td><td>21.4</td><td>22 - 29</td><td>L</td><td>mmol/L</td></tr></table></div>"
        },
        "status": "final",
        "subject": {
          "reference": "urn:uuid:605a9e16-fe92-4145-bd00-fd685182ae07",
          "display": "Iva Kratochvílová"
        },
        "effectiveDateTime": "2024-10-06T16:10:29Z",
        "specimen": {
          "reference": "urn:uuid:486e99b6-958f-4b10-9a99-54c68028a9e7"
        }
      }
    },
    {
      "fullUrl": "urn:uuid:66c98388-2521-44bc-826f-7df56d0b4d34",
      "resource": {
        "resourceType": "Device",
        "id": "66c98388-2521-44bc-826f-7df56d0b4d34",
        "deviceName": [
          {
            "name": "SYNDERAI Synthetic Generator",
            "type": "manufacturer-name"
          }
        ],
        "version": [
          {
            "value": "5.0"
          }
        ],
        "text": {
          "status": "generated",
          "div": "<div xmlns=\"http://www.w3.org/1999/xhtml\">SYNDERAI Synthetic Generator v5.0</div>"
        },
        "status": "active\"",
        "distinctIdentifier": "synderai-generator-50",
        "manufacturer": "SYNDERAI Project"
      }
    },
    {
      "fullUrl": "urn:uuid:f7940877-d7d3-4e43-bf0e-e0abe087ae60",
      "resource": {
        "resourceType": "Provenance",
        "id": "f7940877-d7d3-4e43-bf0e-e0abe087ae60",
        "target": [
          {
            "reference": "Patient/605a9e16-fe92-4145-bd00-fd685182ae07"
          },
          {
            "reference": "Bundle/77f269c8-fde8-49ee-8db7-73b16fc00815"
          },
          {
            "reference": "Composition/7add6e5f-cda6-4f3b-a45a-7702cf837bfe"
          },
          {
            "reference": "PractitionerRole/f93c5209-8b3d-4301-8c4c-1df8aae7660d"
          },
          {
            "reference": "Practitioner/25fde2e1-d4c4-4048-a111-430162504ef8"
          },
          {
            "reference": "PractitionerRole/d9e6f5b3-f337-4979-89b6-3e3aceb2ff7a"
          },
          {
            "reference": "Organization/a457af29-e956-4a2d-8636-c3a743703cc5"
          }
        ],
        "activity": {
          "text": "Synthetic Example Data Generation"
        },
        "policy": [
          "https://synderai.net/synderai-synthetic-data-policy"
        ],
        "agent": [
          {
            "type": {
              "text": "author"
            },
            "who": {
              "reference": "Device/66c98388-2521-44bc-826f-7df56d0b4d34"
            }
          }
        ],
        "reason": [
          {
            "text": "Interoperability Testing and Training (non-clinical use)"
          }
        ],
        "text": {
          "status": "generated",
          "div": "<div xmlns=\"http://www.w3.org/1999/xhtml\">Provenance for SYNDERAI Synthetic Example Data Resource</div>"
        },
        "recorded": "2024-10-06T18:10:29Z"
      }
    },
    {
      "fullUrl": "urn:uuid:f93c5209-8b3d-4301-8c4c-1df8aae7660d",
      "resource": {
        "resourceType": "PractitionerRole",
        "id": "f93c5209-8b3d-4301-8c4c-1df8aae7660d",
        "meta": {
          "profile": [
            "http://hl7.eu/fhir/base/StructureDefinition/practitionerRole-eu"
          ]
        },
        "text": {
          "status": "generated",
          "div": "<div xmlns=\"http://www.w3.org/1999/xhtml\">Laboratory Role Id: f93c5209-8b3d-4301-8c4c-1df8aae7660d</div>"
        },
        "practitioner": {
          "reference": "urn:uuid:25fde2e1-d4c4-4048-a111-430162504ef8"
        }
      }
    },
    {
      "fullUrl": "urn:uuid:25fde2e1-d4c4-4048-a111-430162504ef8",
      "resource": {
        "resourceType": "Practitioner",
        "id": "25fde2e1-d4c4-4048-a111-430162504ef8",
        "meta": {
          "profile": [
            "http://hl7.eu/fhir/base/StructureDefinition/practitioner-eu"
          ]
        },
        "identifier": [
          {
            "assigner": {
              "display": "HL7 Europe"
            },
            "system": "urn:oid:2.16.840.1.113883.2.51.999",
            "value": "0c0af966-54e0-4a5f-86f8-ebf0de149442"
          }
        ],
        "name": [
          {
            "prefix": [
              "dr"
            ],
            "given": [
              "Ex"
            ],
            "family": "Ample"
          }
        ],
        "address": [
          {
            "line": [
              "Laboratoire Central Européenne",
              "Boulevard du Jardin Botanique 32"
            ],
            "postalCode": "1000",
            "city": "Brussels",
            "country": "Belgium"
          }
        ],
        "text": {
          "status": "generated",
          "div": "<div xmlns=\"http://www.w3.org/1999/xhtml\">Laboratory: Laboratoire Central Européenne, 1000 Brussels, Belgium</div>"
        }
      }
    }
  ],
  "type": "document",
  "timestamp": "2024-10-06T18:10:29Z"
}
