{
  "resourceType": "Bundle",
  "id": "3c96b277-397f-451e-8073-0f2750dbd8e1",
  "meta": {
    "profile": [
      "http://hl7.eu/fhir/laboratory/StructureDefinition/Bundle-eu-lab"
    ]
  },
  "identifier": {
    "assigner": {
      "display": "HL7 Europe"
    },
    "system": "urn:oid:2.16.840.1.113883.2.51.999",
    "value": "71e34e2f-ec59-4615-b390-22b774c8640c"
  },
  "entry": [
    {
      "fullUrl": "urn:uuid:070dfa41-3ce0-41d9-b99b-161add00469a",
      "resource": {
        "resourceType": "Composition",
        "id": "070dfa41-3ce0-41d9-b99b-161add00469a",
        "meta": {
          "profile": [
            "http://hl7.eu/fhir/laboratory/StructureDefinition/Composition-eu-lab"
          ]
        },
        "identifier": {
          "assigner": {
            "display": "HL7 Europe"
          },
          "system": "urn:oid:2.16.840.1.113883.2.51.999",
          "value": "8247e751-fcf0-4ef2-9445-478849ce4c79"
        },
        "author": [
          {
            "reference": "urn:uuid:98fe03e5-694e-4bad-8ca1-f951f52746ba"
          }
        ],
        "category": [
          {
            "coding": [
              {
                "code": "26436-6",
                "system": "http://loinc.org",
                "display": "Laboratory studies (set)"
              }
            ]
          }
        ],
        "type": {
          "coding": [
            {
              "code": "11502-2",
              "system": "http://loinc.org",
              "display": "Laboratory report"
            }
          ],
          "text": "Laboratory Report"
        },
        "section": [
          {
            "code": {
              "coding": [
                {
                  "code": "26436-6",
                  "system": "http://loinc.org",
                  "display": "Laboratory studies (set)"
                }
              ],
              "text": "Laboratory studies"
            },
            "section": [
              {
                "code": {
                  "coding": [
                    {
                      "code": "$18719-5",
                      "system": "http://loinc.org",
                      "display": "Chemistry studies (set)"
                    }
                  ],
                  "text": "Chemistry"
                },
                "entry": [
                  {
                    "reference": "urn:uuid:50ed2ee3-a191-47db-aea9-750dce00aadb"
                  },
                  {
                    "reference": "urn:uuid:340571d8-4d37-4083-83e6-b08ab301317c"
                  },
                  {
                    "reference": "urn:uuid:ea04306c-0aa2-4a7d-96bd-4d9e5f6b6941"
                  },
                  {
                    "reference": "urn:uuid:868699ad-e5e3-4d79-9e5a-a4a97029aad8"
                  },
                  {
                    "reference": "urn:uuid:f50fe55a-244b-47ea-a67c-99e0977c71d2"
                  },
                  {
                    "reference": "urn:uuid:5e055764-6cf6-4f35-94e9-b89bce567f01"
                  },
                  {
                    "reference": "urn:uuid:b54b8114-4ac8-4499-b578-a311e7b7781a"
                  },
                  {
                    "reference": "urn:uuid:e69439b5-1d13-4787-993c-9b3cfc20980d"
                  },
                  {
                    "reference": "urn:uuid:0753335e-028c-4e1e-9ae0-8fc1556357ff"
                  },
                  {
                    "reference": "urn:uuid:939a28d2-0d28-44b5-b420-f19255fb1699"
                  },
                  {
                    "reference": "urn:uuid:57c96f1e-64bf-4be2-aca3-afb4ea877107"
                  },
                  {
                    "reference": "urn:uuid:f3bd59d6-b0b7-4ce4-824b-19a13419e4b7"
                  },
                  {
                    "reference": "urn:uuid:4874c6aa-867d-4441-9339-4f976c4dc9d2"
                  },
                  {
                    "reference": "urn:uuid:46e5af79-3361-4e8f-a681-bea9b1ac0980"
                  },
                  {
                    "reference": "urn:uuid:e3c9c1b4-5a29-43e2-873f-de5fad9a0ad1"
                  },
                  {
                    "reference": "urn:uuid:6a148662-4c68-4479-aa29-556ddce3a214"
                  },
                  {
                    "reference": "urn:uuid:cad639ed-e9ab-4bc4-b2b5-5f6afcbc9c4f"
                  },
                  {
                    "reference": "urn:uuid:149d6b82-b168-4b87-b024-9e170f118188"
                  }
                ],
                "text": {
                  "status": "generated",
                  "div": "<div xmlns=\"http://www.w3.org/1999/xhtml\"><h3>Chemistry</h3><table class=\"hl7__eu__lab__report\"><thead><tr><th>Test</th><th>05-JAN-2017</th><th>Reference&#xA0;Range</th><th>Unit</th></tr></thead><tbody><tr><td>Glucose [Mass/volume] in Serum or Plasma</td><td><strong>66.0 L</strong></td><td>70 - 139</td><td>mg/dL</td></tr><tr><td>Urea nitrogen [Mass/volume] in Serum or Plasma</td><td>17.4</td><td>7 - 20</td><td>mg/dL</td></tr><tr><td>Creatinine [Mass/volume] in Serum or Plasma</td><td><strong>1.9 H</strong></td><td>0.6 - 1.1</td><td>mg/dL</td></tr><tr><td>Calcium [Mass/volume] in Serum or Plasma</td><td>9.5</td><td>8.5 - 10.4</td><td>mg/dL</td></tr><tr><td>Sodium [Moles/volume] in Serum or Plasma</td><td>142.1</td><td>135 - 145</td><td>mmol/L</td></tr><tr><td>Potassium [Moles/volume] in Serum or Plasma</td><td>4.3</td><td>3.5 - 5.1</td><td>mmol/L</td></tr><tr><td>Chloride [Moles/volume] in Serum or Plasma</td><td>102.0</td><td>98 - 110</td><td>mmol/L</td></tr><tr><td>Carbon dioxide, total [Moles/volume] in Serum or Plasma</td><td>25.4</td><td>22 - 32</td><td>mmol/L</td></tr><tr><td>Ketones [Presence] in Urine by Test strip</td><td>Urine ketone test = +</td><td></td><td></td></tr><tr><td>Hemoglobin A1c/Hemoglobin.total in Blood</td><td><strong>3.4 L</strong></td><td>4 - 6</td><td>%</td></tr><tr><td>Glucose [Mass/volume] in Blood</td><td><strong>66.0 L</strong></td><td>70 - 100</td><td>mg/dL</td></tr><tr><td>Urea nitrogen [Mass/volume] in Blood</td><td>17.4</td><td>7 - 20</td><td>mg/dL</td></tr><tr><td>Creatinine [Mass/volume] in Blood</td><td><strong>1.4 H</strong></td><td>0.6 - 1.3</td><td>mg/dL</td></tr><tr><td>Calcium [Mass/volume] in Blood</td><td>9.5</td><td>8.6 - 10.4</td><td>mg/dL</td></tr><tr><td>Sodium [Moles/volume] in Blood</td><td>142.1</td><td>135 - 145</td><td>mmol/L</td></tr><tr><td>Potassium [Moles/volume] in Blood</td><td>4.3</td><td>3.5 - 5.1</td><td>mmol/L</td></tr><tr><td>Chloride [Moles/volume] in Blood</td><td>102.0</td><td>98 - 110</td><td>mmol/L</td></tr><tr><td>Carbon dioxide, total [Moles/volume] in Blood</td><td>25.4</td><td>22 - 29</td><td>mmol/L</td></tr></tbody></table></div>"
                },
                "title": "Chemistry"
              },
              {
                "code": {
                  "coding": [
                    {
                      "code": "$18729-4",
                      "system": "http://loinc.org",
                      "display": "Urinalysis studies (set)"
                    }
                  ],
                  "text": "Urinalysis"
                },
                "entry": [
                  {
                    "reference": "urn:uuid:1c6cd9bb-2539-4ed4-aa73-9c4a5ff96897"
                  },
                  {
                    "reference": "urn:uuid:a1b0fae0-07d9-46d5-b07b-1ad3fcc394e8"
                  },
                  {
                    "reference": "urn:uuid:775bbaf7-8220-4235-8322-c9e183050593"
                  },
                  {
                    "reference": "urn:uuid:bbfd3734-131e-4e3c-a20c-9cea61bad14e"
                  },
                  {
                    "reference": "urn:uuid:9aaa6a3b-f877-4d83-b8dd-0b454676f8e9"
                  },
                  {
                    "reference": "urn:uuid:80bc0f1b-4e20-4b65-97a1-b103ea672368"
                  },
                  {
                    "reference": "urn:uuid:6652102a-6e92-4c35-acd2-2383a9507202"
                  },
                  {
                    "reference": "urn:uuid:1238e2c2-7048-410f-9c17-48d9951a63f3"
                  },
                  {
                    "reference": "urn:uuid:35856418-614e-4d71-9e01-57d5fb1a53c4"
                  },
                  {
                    "reference": "urn:uuid:00e72d3a-2c68-496a-9e1e-cf68247b8653"
                  },
                  {
                    "reference": "urn:uuid:88ddbf36-0041-449c-bd7b-8a42bcf06172"
                  },
                  {
                    "reference": "urn:uuid:c615975b-36ad-43ff-9c65-496a7630ceb4"
                  }
                ],
                "text": {
                  "status": "generated",
                  "div": "<div xmlns=\"http://www.w3.org/1999/xhtml\"><h3>Urinalysis</h3><table class=\"hl7__eu__lab__report\"><thead><tr><th>Test</th><th>05-JAN-2017</th><th>Reference&#xA0;Range</th><th>Unit</th></tr></thead><tbody><tr><td>Glucose [Mass/volume] in Urine by Test strip</td><td><strong>1.2 H</strong></td><td>0 - 0</td><td>mg/dL</td></tr><tr><td>Glucose [Presence] in Urine by Test strip</td><td>++</td><td></td><td></td></tr><tr><td>Bilirubin.total [Mass/volume] in Urine by Test strip</td><td>0.6</td><td>0 - 1.6</td><td>mg/dL</td></tr><tr><td>Bilirubin.total [Presence] in Urine by Test strip</td><td>Finding of bilirubin in urine</td><td></td><td></td></tr><tr><td>Ketones [Mass/volume] in Urine by Test strip</td><td><strong>7.5 H</strong></td><td>0 - 0.5</td><td>mg/dL</td></tr><tr><td>Specific gravity of Urine by Test strip</td><td><strong>1.0 L</strong></td><td>1.005 - 1.03</td><td>{nominal}</td></tr><tr><td>pH of Urine by Test strip</td><td>5.1</td><td>4.5 - 7.5</td><td>pH</td></tr><tr><td>Protein [Mass/volume] in Urine by Test strip</td><td><strong>306.4 H</strong></td><td>0 - 15</td><td>mg/dL</td></tr><tr><td>Protein [Presence] in Urine by Test strip</td><td>Urine protein test = ++</td><td></td><td></td></tr><tr><td>Nitrite [Presence] in Urine by Test strip</td><td>Urine nitrite negative</td><td></td><td></td></tr><tr><td>Hemoglobin [Presence] in Urine by Test strip</td><td>Urine blood test = negative</td><td></td><td></td></tr><tr><td>Leukocyte esterase [Presence] in Urine by Test strip</td><td>Urine leukocyte test negative</td><td></td><td></td></tr></tbody></table></div>"
                },
                "title": "Urinalysis"
              },
              {
                "code": {
                  "coding": [
                    {
                      "code": "$LP7846-1",
                      "system": "http://loinc.org",
                      "display": "Specimen information"
                    }
                  ],
                  "text": "Specimen information"
                },
                "entry": [
                  {
                    "reference": "urn:uuid:73f8bf74-5276-4c22-b037-fa91f5aa6645"
                  },
                  {
                    "reference": "urn:uuid:2bbdc3ad-0b5e-4112-819c-719d6bb0c814"
                  },
                  {
                    "reference": "urn:uuid:40a0cc10-e44b-44d9-a677-08ee70178139"
                  },
                  {
                    "reference": "urn:uuid:0032ce02-4164-4494-a3b5-9a6ebb716952"
                  }
                ],
                "text": {
                  "status": "generated",
                  "div": "<div xmlns=\"http://www.w3.org/1999/xhtml\"><h3>Specimen information</h3><table class=\"hl7__eu__lab__report\"><thead><tr><th>Test</th><th>05-JAN-2017</th><th>Specimen</th><th></th></tr></thead><tbody><tr><td>Appearance of Urine</td><td>Cloudy urine</td><td>Urine</td><td></td></tr><tr><td>Odor of Urine</td><td>Urine smell ammoniacal</td><td>Urine</td><td></td></tr><tr><td>Clarity of Urine</td><td>Translucent</td><td>Urine</td><td></td></tr><tr><td>Color of Urine</td><td>Brown color</td><td>Urine</td><td></td></tr></tbody></table></div>"
                },
                "title": "Specimen information"
              }
            ],
            "title": "Laboratory Report"
          },
          {
            "text": {
              "status": "generated",
              "div": "<div xmlns=\"http://www.w3.org/1999/xhtml\"><h3>Annotation</h3><table class=\"hl7__eu__lab__report\"><tr><th>Conclusion and Recommendations based on this report and previous findings known to us</th></tr><tr><td>The patient shows hypoglycemia, low HbA1c, elevated creatinine, and significant proteinuria, suggesting possible renal impairment. Urine findings (cloudy, brown, low specific gravity, high protein, glucose, and ketones) may indicate nephrotic syndrome or diabetic nephropathy, though diabetes is unlikely given low glucose/HbA1c. No evidence of urinary infection. Further nephrological evaluation and assessment for other causes of proteinuria and renal dysfunction are recommended.</td></tr></table></div>"
            },
            "code": {
              "coding": [
                {
                  "system": "http://loinc.org",
                  "code": "48767-8",
                  "display": "Annotation comment"
                }
              ]
            },
            "title": "Annotation comment"
          }
        ],
        "status": "final",
        "subject": {
          "reference": "urn:uuid:98d850da-cd6b-4045-bef6-9ad8e17105f3",
          "display": "Molly Jenkins"
        },
        "date": "2017-01-05T15:42:11Z",
        "title": "Laboratory Report",
        "confidentiality": "N"
      }
    },
    {
      "fullUrl": "urn:uuid:78d5e853-922b-4326-98c2-f5959113eacb",
      "resource": {
        "resourceType": "DiagnosticReport",
        "id": "78d5e853-922b-4326-98c2-f5959113eacb",
        "meta": {
          "profile": [
            "http://hl7.eu/fhir/laboratory/StructureDefinition/DiagnosticReport-eu-lab"
          ]
        },
        "identifier": [
          {
            "assigner": {
              "display": "HL7 Europe"
            },
            "system": "urn:oid:2.16.840.1.113883.2.51.999",
            "value": "b87d96ae-37cf-4375-984d-ed7c8c23c3f3"
          }
        ],
        "extension": [
          {
            "url": "http://hl7.org/fhir/5.0/StructureDefinition/extension-DiagnosticReport.composition",
            "valueReference": {
              "reference": "urn:uuid:8247e751-fcf0-4ef2-9445-478849ce4c79"
            }
          }
        ],
        "category": [
          {
            "coding": [
              {
                "code": "26436-6",
                "system": "http://loinc.org",
                "display": "Laboratory studies (set)"
              }
            ]
          }
        ],
        "specimen": [
          {
            "reference": "urn:uuid:bfe62c64-e328-4d38-9f54-df0c5106d665"
          },
          {
            "reference": "urn:uuid:6a82632c-ffbe-4ee8-88c9-e598b89cc693"
          },
          {
            "reference": "urn:uuid:9a8520ab-f401-415d-b2f4-44f385a2a9a2"
          }
        ],
        "result": [
          {
            "reference": "urn:uuid:50ed2ee3-a191-47db-aea9-750dce00aadb"
          },
          {
            "reference": "urn:uuid:340571d8-4d37-4083-83e6-b08ab301317c"
          },
          {
            "reference": "urn:uuid:ea04306c-0aa2-4a7d-96bd-4d9e5f6b6941"
          },
          {
            "reference": "urn:uuid:868699ad-e5e3-4d79-9e5a-a4a97029aad8"
          },
          {
            "reference": "urn:uuid:f50fe55a-244b-47ea-a67c-99e0977c71d2"
          },
          {
            "reference": "urn:uuid:5e055764-6cf6-4f35-94e9-b89bce567f01"
          },
          {
            "reference": "urn:uuid:b54b8114-4ac8-4499-b578-a311e7b7781a"
          },
          {
            "reference": "urn:uuid:e69439b5-1d13-4787-993c-9b3cfc20980d"
          },
          {
            "reference": "urn:uuid:73f8bf74-5276-4c22-b037-fa91f5aa6645"
          },
          {
            "reference": "urn:uuid:2bbdc3ad-0b5e-4112-819c-719d6bb0c814"
          },
          {
            "reference": "urn:uuid:40a0cc10-e44b-44d9-a677-08ee70178139"
          },
          {
            "reference": "urn:uuid:0032ce02-4164-4494-a3b5-9a6ebb716952"
          },
          {
            "reference": "urn:uuid:1c6cd9bb-2539-4ed4-aa73-9c4a5ff96897"
          },
          {
            "reference": "urn:uuid:a1b0fae0-07d9-46d5-b07b-1ad3fcc394e8"
          },
          {
            "reference": "urn:uuid:775bbaf7-8220-4235-8322-c9e183050593"
          },
          {
            "reference": "urn:uuid:bbfd3734-131e-4e3c-a20c-9cea61bad14e"
          },
          {
            "reference": "urn:uuid:9aaa6a3b-f877-4d83-b8dd-0b454676f8e9"
          },
          {
            "reference": "urn:uuid:0753335e-028c-4e1e-9ae0-8fc1556357ff"
          },
          {
            "reference": "urn:uuid:80bc0f1b-4e20-4b65-97a1-b103ea672368"
          },
          {
            "reference": "urn:uuid:6652102a-6e92-4c35-acd2-2383a9507202"
          },
          {
            "reference": "urn:uuid:1238e2c2-7048-410f-9c17-48d9951a63f3"
          },
          {
            "reference": "urn:uuid:35856418-614e-4d71-9e01-57d5fb1a53c4"
          },
          {
            "reference": "urn:uuid:00e72d3a-2c68-496a-9e1e-cf68247b8653"
          },
          {
            "reference": "urn:uuid:88ddbf36-0041-449c-bd7b-8a42bcf06172"
          },
          {
            "reference": "urn:uuid:c615975b-36ad-43ff-9c65-496a7630ceb4"
          },
          {
            "reference": "urn:uuid:939a28d2-0d28-44b5-b420-f19255fb1699"
          },
          {
            "reference": "urn:uuid:57c96f1e-64bf-4be2-aca3-afb4ea877107"
          },
          {
            "reference": "urn:uuid:f3bd59d6-b0b7-4ce4-824b-19a13419e4b7"
          },
          {
            "reference": "urn:uuid:4874c6aa-867d-4441-9339-4f976c4dc9d2"
          },
          {
            "reference": "urn:uuid:46e5af79-3361-4e8f-a681-bea9b1ac0980"
          },
          {
            "reference": "urn:uuid:e3c9c1b4-5a29-43e2-873f-de5fad9a0ad1"
          },
          {
            "reference": "urn:uuid:6a148662-4c68-4479-aa29-556ddce3a214"
          },
          {
            "reference": "urn:uuid:cad639ed-e9ab-4bc4-b2b5-5f6afcbc9c4f"
          },
          {
            "reference": "urn:uuid:149d6b82-b168-4b87-b024-9e170f118188"
          }
        ],
        "status": "registered",
        "code": {
          "coding": [
            {
              "code": "11502-2",
              "system": "http://loinc.org",
              "display": "Laboratory report"
            }
          ]
        },
        "subject": {
          "reference": "urn:uuid:98d850da-cd6b-4045-bef6-9ad8e17105f3",
          "display": "Molly Jenkins"
        }
      }
    },
    {
      "fullUrl": "urn:uuid:98d850da-cd6b-4045-bef6-9ad8e17105f3",
      "resource": {
        "resourceType": "Patient",
        "id": "98d850da-cd6b-4045-bef6-9ad8e17105f3",
        "meta": {
          "security": [
            {
              "system": "http://terminology.hl7.org/CodeSystem/v3-ActReason",
              "code": "HTEST"
            },
            {
              "system": "http://terminology.hl7.org/CodeSystem/v3-ActReason",
              "code": "TRAIN"
            }
          ],
          "tag": [
            {
              "system": "https://synderai.net/fhir/CodeSystem/tags",
              "code": "synthetic",
              "display": "SYNDERAI Synthetic data"
            }
          ],
          "profile": [
            "http://hl7.eu/fhir/base/StructureDefinition/patient-eu-core"
          ]
        },
        "identifier": [
          {
            "type": {
              "coding": [
                {
                  "code": "PT",
                  "system": "http://terminology.hl7.org/CodeSystem/v2-0203"
                }
              ]
            },
            "system": "http://ec.europa.eu/identifier/eci",
            "value": "7634-012682-0"
          },
          {
            "type": {
              "coding": [
                {
                  "code": "MR",
                  "system": "http://terminology.hl7.org/CodeSystem/v2-0203"
                }
              ]
            },
            "system": "http://local.setting.eu/identifier",
            "value": "9934a8eb-b6e1-34e1-edf5-57a0262d1bea"
          }
        ],
        "name": [
          {
            "family": "Jenkins"
          },
          {
            "given": [
              "Molly"
            ]
          },
          {
            "text": "Molly Jenkins"
          }
        ],
        "address": [
          {
            "line": [
              "98 Ali field"
            ],
            "use": "home",
            "type": "physical",
            "postalCode": "AB42",
            "city": "Port Jennamouth",
            "country": "United Kingdom"
          }
        ],
        "telecom": [
          {
            "system": "phone",
            "value": "(0118) 496 0334"
          }
        ],
        "extension": [
          {
            "url": "http://hl7.org/fhir/StructureDefinition/patient-nationality",
            "valueCodeableConcept": {
              "coding": [
                {
                  "code": "GB",
                  "system": "http://hl7.org/fhir/ValueSet/country"
                }
              ]
            }
          }
        ],
        "text": {
          "status": "generated",
          "div": "<div xmlns=\"http://www.w3.org/1999/xhtml\"><table class=\"hl7__ips\"><tr><td>Molly Jenkins</td><td>female</td><td>14-Aug-1967</td></tr></table></div>"
        },
        "gender": "female",
        "birthDate": "1967-08-14"
      }
    },
    {
      "fullUrl": "urn:uuid:c927849b-5de4-466e-8d3d-a46252222690",
      "resource": {
        "resourceType": "ServiceRequest",
        "id": "c927849b-5de4-466e-8d3d-a46252222690",
        "meta": {
          "profile": [
            "http://hl7.eu/fhir/laboratory/StructureDefinition/ServiceRequest-eu-lab"
          ]
        },
        "identifier": [
          {
            "system": "http://example.org",
            "value": "5e1d03f8-f99d-4815-aa59-5e2151321041"
          }
        ],
        "specimen": [
          {
            "reference": "urn:uuid:bfe62c64-e328-4d38-9f54-df0c5106d665"
          },
          {
            "reference": "urn:uuid:6a82632c-ffbe-4ee8-88c9-e598b89cc693"
          },
          {
            "reference": "urn:uuid:9a8520ab-f401-415d-b2f4-44f385a2a9a2"
          }
        ],
        "reasonCode": [
          {
            "coding": [
              {
                "code": "431856006",
                "system": "http://snomed.info/sct",
                "display": "Chronic kidney disease stage 2"
              }
            ]
          },
          {
            "coding": [
              {
                "code": "90781000119102",
                "system": "http://snomed.info/sct",
                "display": "Microalbuminuria due to type 2 diabetes mellitus"
              }
            ]
          },
          {
            "coding": [
              {
                "code": "127013003",
                "system": "http://snomed.info/sct",
                "display": "Disorder of kidney due to diabetes mellitus"
              }
            ]
          },
          {
            "coding": [
              {
                "code": "431855005",
                "system": "http://snomed.info/sct",
                "display": "Chronic kidney disease stage 1"
              }
            ]
          },
          {
            "coding": [
              {
                "code": "15777000",
                "system": "http://snomed.info/sct",
                "display": "Prediabetes"
              }
            ]
          },
          {
            "coding": [
              {
                "code": "59621000",
                "system": "http://snomed.info/sct",
                "display": "Essential hypertension"
              }
            ]
          },
          {
            "coding": [
              {
                "code": "53827007",
                "system": "http://snomed.info/sct",
                "display": "Excessive salivation"
              }
            ]
          },
          {
            "coding": [
              {
                "code": "64859006",
                "system": "http://snomed.info/sct",
                "display": "Osteoporosis"
              }
            ]
          },
          {
            "coding": [
              {
                "code": "128188000",
                "system": "http://snomed.info/sct",
                "display": "Cerebral palsy"
              }
            ]
          },
          {
            "coding": [
              {
                "code": "235595009",
                "system": "http://snomed.info/sct",
                "display": "Gastroesophageal reflux disease"
              }
            ]
          }
        ],
        "status": "active",
        "intent": "order",
        "code": {
          "coding": [
            {
              "code": "108252007",
              "system": "http://snomed.info/sct",
              "display": "Laboratory procedure"
            }
          ]
        },
        "subject": {
          "reference": "urn:uuid:98d850da-cd6b-4045-bef6-9ad8e17105f3",
          "display": "Molly Jenkins"
        },
        "requester": {
          "reference": "urn:uuid:5e29b7de-e264-4a19-888f-de6625deffeb"
        }
      }
    },
    {
      "fullUrl": "urn:uuid:5e29b7de-e264-4a19-888f-de6625deffeb",
      "resource": {
        "resourceType": "PractitionerRole",
        "id": "5e29b7de-e264-4a19-888f-de6625deffeb",
        "meta": {
          "profile": [
            "http://hl7.eu/fhir/base/StructureDefinition/practitionerRole-eu"
          ]
        },
        "text": {
          "status": "generated",
          "div": "<div xmlns=\"http://www.w3.org/1999/xhtml\">Provider Role Id: 5e29b7de-e264-4a19-888f-de6625deffeb</div>"
        },
        "organization": {
          "reference": "urn:uuid:48c8c7b8-1722-4be8-9f6d-c848ba2f2c56"
        }
      }
    },
    {
      "fullUrl": "urn:uuid:48c8c7b8-1722-4be8-9f6d-c848ba2f2c56",
      "resource": {
        "resourceType": "Organization",
        "id": "48c8c7b8-1722-4be8-9f6d-c848ba2f2c56",
        "meta": {
          "profile": [
            "http://hl7.eu/fhir/base/StructureDefinition/organization-eu"
          ]
        },
        "identifier": [
          {
            "assigner": {
              "display": "HL7 Europe"
            },
            "system": "urn:oid:2.16.840.1.113883.2.51.999",
            "value": "dbb0f4af-c5e3-4a8f-8b78-ae4900940aba"
          }
        ],
        "address": [
          {
            "city": "Aberdeen",
            "postalCode": "AB11 6",
            "country": "United Kingdom"
          }
        ],
        "text": {
          "status": "generated",
          "div": "<div xmlns=\"http://www.w3.org/1999/xhtml\">Provider Organization: Aberdeen Community Health and Care Village</div>"
        },
        "name": "Aberdeen Community Health and Care Village"
      }
    },
    {
      "fullUrl": "urn:uuid:bfe62c64-e328-4d38-9f54-df0c5106d665",
      "resource": {
        "resourceType": "Specimen",
        "id": "bfe62c64-e328-4d38-9f54-df0c5106d665",
        "meta": {
          "profile": [
            "http://hl7.eu/fhir/laboratory/StructureDefinition/Specimen-eu-lab"
          ]
        },
        "collection": {
          "collectedDateTime": "2017-01-05"
        },
        "text": {
          "status": "generated",
          "div": "<div xmlns=\"http://www.w3.org/1999/xhtml\"><table class=\"hl7__eu__lab__report\"><tr><th>Specimen</th><th>Collection Date</th></tr><tr><td>Acellular blood (serum or plasma) specimen</td><td><span class=\"nb\">05-Jan-2017</span></td></tr></table></div>"
        },
        "type": {
          "coding": [
            {
              "code": "122592007",
              "system": "http://snomed.info/sct",
              "display": "Acellular blood (serum or plasma) specimen"
            }
          ]
        }
      }
    },
    {
      "fullUrl": "urn:uuid:6a82632c-ffbe-4ee8-88c9-e598b89cc693",
      "resource": {
        "resourceType": "Specimen",
        "id": "6a82632c-ffbe-4ee8-88c9-e598b89cc693",
        "meta": {
          "profile": [
            "http://hl7.eu/fhir/laboratory/StructureDefinition/Specimen-eu-lab"
          ]
        },
        "collection": {
          "collectedDateTime": "2017-01-05"
        },
        "text": {
          "status": "generated",
          "div": "<div xmlns=\"http://www.w3.org/1999/xhtml\"><table class=\"hl7__eu__lab__report\"><tr><th>Specimen</th><th>Collection Date</th></tr><tr><td>Urine specimen</td><td><span class=\"nb\">05-Jan-2017</span></td></tr></table></div>"
        },
        "type": {
          "coding": [
            {
              "code": "122575003",
              "system": "http://snomed.info/sct",
              "display": "Urine specimen"
            }
          ]
        }
      }
    },
    {
      "fullUrl": "urn:uuid:9a8520ab-f401-415d-b2f4-44f385a2a9a2",
      "resource": {
        "resourceType": "Specimen",
        "id": "9a8520ab-f401-415d-b2f4-44f385a2a9a2",
        "meta": {
          "profile": [
            "http://hl7.eu/fhir/laboratory/StructureDefinition/Specimen-eu-lab"
          ]
        },
        "collection": {
          "collectedDateTime": "2017-01-05"
        },
        "text": {
          "status": "generated",
          "div": "<div xmlns=\"http://www.w3.org/1999/xhtml\"><table class=\"hl7__eu__lab__report\"><tr><th>Specimen</th><th>Collection Date</th></tr><tr><td>Whole blood specimen (specimen)</td><td><span class=\"nb\">05-Jan-2017</span></td></tr></table></div>"
        },
        "type": {
          "coding": [
            {
              "code": "258580003",
              "system": "http://snomed.info/sct",
              "display": "Whole blood specimen (specimen)"
            }
          ]
        }
      }
    },
    {
      "fullUrl": "urn:uuid:50ed2ee3-a191-47db-aea9-750dce00aadb",
      "resource": {
        "resourceType": "Observation",
        "id": "50ed2ee3-a191-47db-aea9-750dce00aadb",
        "meta": {
          "profile": [
            "http://hl7.eu/fhir/laboratory/StructureDefinition/Observation-resultslab-eu-lab"
          ]
        },
        "performer": [
          {
            "display": "The Central European Lab"
          }
        ],
        "category": [
          {
            "coding": [
              {
                "system": "http://terminology.hl7.org/CodeSystem/observation-category",
                "code": "laboratory"
              }
            ]
          }
        ],
        "code": {
          "coding": [
            {
              "code": "2345-7",
              "system": "http://loinc.org",
              "display": "Glucose [Mass/volume] in Serum or Plasma"
            }
          ],
          "text": "Glucose [Mass/volume] in Serum or Plasma"
        },
        "valueQuantity": {
          "system": "http://unitsofmeasure.org",
          "value": 66,
          "unit": "mg/dL",
          "code": "mg/dL"
        },
        "referenceRange": [
          {
            "low": {
              "value": 70,
              "code": "mg/dL",
              "system": "http://unitsofmeasure.org"
            }
          },
          {
            "high": {
              "value": 139,
              "code": "mg/dL",
              "system": "http://unitsofmeasure.org"
            }
          }
        ],
        "interpretation": [
          {
            "coding": [
              {
                "code": "L",
                "system": "http://terminology.hl7.org/CodeSystem/v3-ObservationInterpretation",
                "display": "Low"
              }
            ]
          }
        ],
        "text": {
          "status": "generated",
          "div": "<div xmlns=\"http://www.w3.org/1999/xhtml\"><table class=\"hl7__eu__lab__report\"><tr><th>Test</th><th>05-Jan-2017</th><th>Reference&#xA0;Range</th><th>Unit</th></tr><tr><td>Glucose [Mass/volume] in Serum or Plasma</td><td>66.0</td><td>70 - 139</td><td>L</td><td>mg/dL</td></tr></table></div>"
        },
        "status": "final",
        "subject": {
          "reference": "urn:uuid:98d850da-cd6b-4045-bef6-9ad8e17105f3",
          "display": "Molly Jenkins"
        },
        "effectiveDateTime": "2017-01-05T14:42:11Z",
        "specimen": {
          "reference": "urn:uuid:bfe62c64-e328-4d38-9f54-df0c5106d665"
        }
      }
    },
    {
      "fullUrl": "urn:uuid:340571d8-4d37-4083-83e6-b08ab301317c",
      "resource": {
        "resourceType": "Observation",
        "id": "340571d8-4d37-4083-83e6-b08ab301317c",
        "meta": {
          "profile": [
            "http://hl7.eu/fhir/laboratory/StructureDefinition/Observation-resultslab-eu-lab"
          ]
        },
        "performer": [
          {
            "display": "The Central European Lab"
          }
        ],
        "category": [
          {
            "coding": [
              {
                "system": "http://terminology.hl7.org/CodeSystem/observation-category",
                "code": "laboratory"
              }
            ]
          }
        ],
        "code": {
          "coding": [
            {
              "code": "3094-0",
              "system": "http://loinc.org",
              "display": "Urea nitrogen [Mass/volume] in Serum or Plasma"
            }
          ],
          "text": "Urea nitrogen [Mass/volume] in Serum or Plasma"
        },
        "valueQuantity": {
          "system": "http://unitsofmeasure.org",
          "value": 17.4,
          "unit": "mg/dL",
          "code": "mg/dL"
        },
        "referenceRange": [
          {
            "low": {
              "value": 7,
              "code": "mg/dL",
              "system": "http://unitsofmeasure.org"
            }
          },
          {
            "high": {
              "value": 20,
              "code": "mg/dL",
              "system": "http://unitsofmeasure.org"
            }
          }
        ],
        "text": {
          "status": "generated",
          "div": "<div xmlns=\"http://www.w3.org/1999/xhtml\"><table class=\"hl7__eu__lab__report\"><tr><th>Test</th><th>05-Jan-2017</th><th>Reference&#xA0;Range</th><th>Unit</th></tr><tr><td>Urea nitrogen [Mass/volume] in Serum or Plasma</td><td>17.4</td><td>7 - 20</td><td></td><td>mg/dL</td></tr></table></div>"
        },
        "status": "final",
        "subject": {
          "reference": "urn:uuid:98d850da-cd6b-4045-bef6-9ad8e17105f3",
          "display": "Molly Jenkins"
        },
        "effectiveDateTime": "2017-01-05T14:42:11Z",
        "specimen": {
          "reference": "urn:uuid:bfe62c64-e328-4d38-9f54-df0c5106d665"
        }
      }
    },
    {
      "fullUrl": "urn:uuid:ea04306c-0aa2-4a7d-96bd-4d9e5f6b6941",
      "resource": {
        "resourceType": "Observation",
        "id": "ea04306c-0aa2-4a7d-96bd-4d9e5f6b6941",
        "meta": {
          "profile": [
            "http://hl7.eu/fhir/laboratory/StructureDefinition/Observation-resultslab-eu-lab"
          ]
        },
        "performer": [
          {
            "display": "The Central European Lab"
          }
        ],
        "category": [
          {
            "coding": [
              {
                "system": "http://terminology.hl7.org/CodeSystem/observation-category",
                "code": "laboratory"
              }
            ]
          }
        ],
        "code": {
          "coding": [
            {
              "code": "2160-0",
              "system": "http://loinc.org",
              "display": "Creatinine [Mass/volume] in Serum or Plasma"
            }
          ],
          "text": "Creatinine [Mass/volume] in Serum or Plasma"
        },
        "valueQuantity": {
          "system": "http://unitsofmeasure.org",
          "value": 1.9,
          "unit": "mg/dL",
          "code": "mg/dL"
        },
        "referenceRange": [
          {
            "low": {
              "value": 0.6,
              "code": "mg/dL",
              "system": "http://unitsofmeasure.org"
            }
          },
          {
            "high": {
              "value": 1.1,
              "code": "mg/dL",
              "system": "http://unitsofmeasure.org"
            }
          }
        ],
        "interpretation": [
          {
            "coding": [
              {
                "code": "H",
                "system": "http://terminology.hl7.org/CodeSystem/v3-ObservationInterpretation",
                "display": "High"
              }
            ]
          }
        ],
        "text": {
          "status": "generated",
          "div": "<div xmlns=\"http://www.w3.org/1999/xhtml\"><table class=\"hl7__eu__lab__report\"><tr><th>Test</th><th>05-Jan-2017</th><th>Reference&#xA0;Range</th><th>Unit</th></tr><tr><td>Creatinine [Mass/volume] in Serum or Plasma</td><td>1.9</td><td>0.6 - 1.1</td><td>H</td><td>mg/dL</td></tr></table></div>"
        },
        "status": "final",
        "subject": {
          "reference": "urn:uuid:98d850da-cd6b-4045-bef6-9ad8e17105f3",
          "display": "Molly Jenkins"
        },
        "effectiveDateTime": "2017-01-05T14:42:11Z",
        "specimen": {
          "reference": "urn:uuid:bfe62c64-e328-4d38-9f54-df0c5106d665"
        }
      }
    },
    {
      "fullUrl": "urn:uuid:868699ad-e5e3-4d79-9e5a-a4a97029aad8",
      "resource": {
        "resourceType": "Observation",
        "id": "868699ad-e5e3-4d79-9e5a-a4a97029aad8",
        "meta": {
          "profile": [
            "http://hl7.eu/fhir/laboratory/StructureDefinition/Observation-resultslab-eu-lab"
          ]
        },
        "performer": [
          {
            "display": "The Central European Lab"
          }
        ],
        "category": [
          {
            "coding": [
              {
                "system": "http://terminology.hl7.org/CodeSystem/observation-category",
                "code": "laboratory"
              }
            ]
          }
        ],
        "code": {
          "coding": [
            {
              "code": "17861-6",
              "system": "http://loinc.org",
              "display": "Calcium [Mass/volume] in Serum or Plasma"
            }
          ],
          "text": "Calcium [Mass/volume] in Serum or Plasma"
        },
        "valueQuantity": {
          "system": "http://unitsofmeasure.org",
          "value": 9.5,
          "unit": "mg/dL",
          "code": "mg/dL"
        },
        "referenceRange": [
          {
            "low": {
              "value": 8.5,
              "code": "mg/dL",
              "system": "http://unitsofmeasure.org"
            }
          },
          {
            "high": {
              "value": 10.4,
              "code": "mg/dL",
              "system": "http://unitsofmeasure.org"
            }
          }
        ],
        "text": {
          "status": "generated",
          "div": "<div xmlns=\"http://www.w3.org/1999/xhtml\"><table class=\"hl7__eu__lab__report\"><tr><th>Test</th><th>05-Jan-2017</th><th>Reference&#xA0;Range</th><th>Unit</th></tr><tr><td>Calcium [Mass/volume] in Serum or Plasma</td><td>9.5</td><td>8.5 - 10.4</td><td></td><td>mg/dL</td></tr></table></div>"
        },
        "status": "final",
        "subject": {
          "reference": "urn:uuid:98d850da-cd6b-4045-bef6-9ad8e17105f3",
          "display": "Molly Jenkins"
        },
        "effectiveDateTime": "2017-01-05T14:42:11Z",
        "specimen": {
          "reference": "urn:uuid:bfe62c64-e328-4d38-9f54-df0c5106d665"
        }
      }
    },
    {
      "fullUrl": "urn:uuid:f50fe55a-244b-47ea-a67c-99e0977c71d2",
      "resource": {
        "resourceType": "Observation",
        "id": "f50fe55a-244b-47ea-a67c-99e0977c71d2",
        "meta": {
          "profile": [
            "http://hl7.eu/fhir/laboratory/StructureDefinition/Observation-resultslab-eu-lab"
          ]
        },
        "performer": [
          {
            "display": "The Central European Lab"
          }
        ],
        "category": [
          {
            "coding": [
              {
                "system": "http://terminology.hl7.org/CodeSystem/observation-category",
                "code": "laboratory"
              }
            ]
          }
        ],
        "code": {
          "coding": [
            {
              "code": "2951-2",
              "system": "http://loinc.org",
              "display": "Sodium [Moles/volume] in Serum or Plasma"
            }
          ],
          "text": "Sodium [Moles/volume] in Serum or Plasma"
        },
        "valueQuantity": {
          "system": "http://unitsofmeasure.org",
          "value": 142.1,
          "unit": "mmol/L",
          "code": "mmol/L"
        },
        "referenceRange": [
          {
            "low": {
              "value": 135,
              "code": "mmol/L",
              "system": "http://unitsofmeasure.org"
            }
          },
          {
            "high": {
              "value": 145,
              "code": "mmol/L",
              "system": "http://unitsofmeasure.org"
            }
          }
        ],
        "text": {
          "status": "generated",
          "div": "<div xmlns=\"http://www.w3.org/1999/xhtml\"><table class=\"hl7__eu__lab__report\"><tr><th>Test</th><th>05-Jan-2017</th><th>Reference&#xA0;Range</th><th>Unit</th></tr><tr><td>Sodium [Moles/volume] in Serum or Plasma</td><td>142.1</td><td>135 - 145</td><td></td><td>mmol/L</td></tr></table></div>"
        },
        "status": "final",
        "subject": {
          "reference": "urn:uuid:98d850da-cd6b-4045-bef6-9ad8e17105f3",
          "display": "Molly Jenkins"
        },
        "effectiveDateTime": "2017-01-05T14:42:11Z",
        "specimen": {
          "reference": "urn:uuid:bfe62c64-e328-4d38-9f54-df0c5106d665"
        }
      }
    },
    {
      "fullUrl": "urn:uuid:5e055764-6cf6-4f35-94e9-b89bce567f01",
      "resource": {
        "resourceType": "Observation",
        "id": "5e055764-6cf6-4f35-94e9-b89bce567f01",
        "meta": {
          "profile": [
            "http://hl7.eu/fhir/laboratory/StructureDefinition/Observation-resultslab-eu-lab"
          ]
        },
        "performer": [
          {
            "display": "The Central European Lab"
          }
        ],
        "category": [
          {
            "coding": [
              {
                "system": "http://terminology.hl7.org/CodeSystem/observation-category",
                "code": "laboratory"
              }
            ]
          }
        ],
        "code": {
          "coding": [
            {
              "code": "2823-3",
              "system": "http://loinc.org",
              "display": "Potassium [Moles/volume] in Serum or Plasma"
            }
          ],
          "text": "Potassium [Moles/volume] in Serum or Plasma"
        },
        "valueQuantity": {
          "system": "http://unitsofmeasure.org",
          "value": 4.3,
          "unit": "mmol/L",
          "code": "mmol/L"
        },
        "referenceRange": [
          {
            "low": {
              "value": 3.5,
              "code": "mmol/L",
              "system": "http://unitsofmeasure.org"
            }
          },
          {
            "high": {
              "value": 5.1,
              "code": "mmol/L",
              "system": "http://unitsofmeasure.org"
            }
          }
        ],
        "text": {
          "status": "generated",
          "div": "<div xmlns=\"http://www.w3.org/1999/xhtml\"><table class=\"hl7__eu__lab__report\"><tr><th>Test</th><th>05-Jan-2017</th><th>Reference&#xA0;Range</th><th>Unit</th></tr><tr><td>Potassium [Moles/volume] in Serum or Plasma</td><td>4.3</td><td>3.5 - 5.1</td><td></td><td>mmol/L</td></tr></table></div>"
        },
        "status": "final",
        "subject": {
          "reference": "urn:uuid:98d850da-cd6b-4045-bef6-9ad8e17105f3",
          "display": "Molly Jenkins"
        },
        "effectiveDateTime": "2017-01-05T14:42:11Z",
        "specimen": {
          "reference": "urn:uuid:bfe62c64-e328-4d38-9f54-df0c5106d665"
        }
      }
    },
    {
      "fullUrl": "urn:uuid:b54b8114-4ac8-4499-b578-a311e7b7781a",
      "resource": {
        "resourceType": "Observation",
        "id": "b54b8114-4ac8-4499-b578-a311e7b7781a",
        "meta": {
          "profile": [
            "http://hl7.eu/fhir/laboratory/StructureDefinition/Observation-resultslab-eu-lab"
          ]
        },
        "performer": [
          {
            "display": "The Central European Lab"
          }
        ],
        "category": [
          {
            "coding": [
              {
                "system": "http://terminology.hl7.org/CodeSystem/observation-category",
                "code": "laboratory"
              }
            ]
          }
        ],
        "code": {
          "coding": [
            {
              "code": "2075-0",
              "system": "http://loinc.org",
              "display": "Chloride [Moles/volume] in Serum or Plasma"
            }
          ],
          "text": "Chloride [Moles/volume] in Serum or Plasma"
        },
        "valueQuantity": {
          "system": "http://unitsofmeasure.org",
          "value": 102,
          "unit": "mmol/L",
          "code": "mmol/L"
        },
        "referenceRange": [
          {
            "low": {
              "value": 98,
              "code": "mmol/L",
              "system": "http://unitsofmeasure.org"
            }
          },
          {
            "high": {
              "value": 110,
              "code": "mmol/L",
              "system": "http://unitsofmeasure.org"
            }
          }
        ],
        "text": {
          "status": "generated",
          "div": "<div xmlns=\"http://www.w3.org/1999/xhtml\"><table class=\"hl7__eu__lab__report\"><tr><th>Test</th><th>05-Jan-2017</th><th>Reference&#xA0;Range</th><th>Unit</th></tr><tr><td>Chloride [Moles/volume] in Serum or Plasma</td><td>102.0</td><td>98 - 110</td><td></td><td>mmol/L</td></tr></table></div>"
        },
        "status": "final",
        "subject": {
          "reference": "urn:uuid:98d850da-cd6b-4045-bef6-9ad8e17105f3",
          "display": "Molly Jenkins"
        },
        "effectiveDateTime": "2017-01-05T14:42:11Z",
        "specimen": {
          "reference": "urn:uuid:bfe62c64-e328-4d38-9f54-df0c5106d665"
        }
      }
    },
    {
      "fullUrl": "urn:uuid:e69439b5-1d13-4787-993c-9b3cfc20980d",
      "resource": {
        "resourceType": "Observation",
        "id": "e69439b5-1d13-4787-993c-9b3cfc20980d",
        "meta": {
          "profile": [
            "http://hl7.eu/fhir/laboratory/StructureDefinition/Observation-resultslab-eu-lab"
          ]
        },
        "performer": [
          {
            "display": "The Central European Lab"
          }
        ],
        "category": [
          {
            "coding": [
              {
                "system": "http://terminology.hl7.org/CodeSystem/observation-category",
                "code": "laboratory"
              }
            ]
          }
        ],
        "code": {
          "coding": [
            {
              "code": "2028-9",
              "system": "http://loinc.org",
              "display": "Carbon dioxide, total [Moles/volume] in Serum or Plasma"
            }
          ],
          "text": "Carbon dioxide, total [Moles/volume] in Serum or Plasma"
        },
        "valueQuantity": {
          "system": "http://unitsofmeasure.org",
          "value": 25.4,
          "unit": "mmol/L",
          "code": "mmol/L"
        },
        "referenceRange": [
          {
            "low": {
              "value": 22,
              "code": "mmol/L",
              "system": "http://unitsofmeasure.org"
            }
          },
          {
            "high": {
              "value": 32,
              "code": "mmol/L",
              "system": "http://unitsofmeasure.org"
            }
          }
        ],
        "text": {
          "status": "generated",
          "div": "<div xmlns=\"http://www.w3.org/1999/xhtml\"><table class=\"hl7__eu__lab__report\"><tr><th>Test</th><th>05-Jan-2017</th><th>Reference&#xA0;Range</th><th>Unit</th></tr><tr><td>Carbon dioxide, total [Moles/volume] in Serum or Plasma</td><td>25.4</td><td>22 - 32</td><td></td><td>mmol/L</td></tr></table></div>"
        },
        "status": "final",
        "subject": {
          "reference": "urn:uuid:98d850da-cd6b-4045-bef6-9ad8e17105f3",
          "display": "Molly Jenkins"
        },
        "effectiveDateTime": "2017-01-05T14:42:11Z",
        "specimen": {
          "reference": "urn:uuid:bfe62c64-e328-4d38-9f54-df0c5106d665"
        }
      }
    },
    {
      "fullUrl": "urn:uuid:73f8bf74-5276-4c22-b037-fa91f5aa6645",
      "resource": {
        "resourceType": "Observation",
        "id": "73f8bf74-5276-4c22-b037-fa91f5aa6645",
        "meta": {
          "profile": [
            "http://hl7.eu/fhir/laboratory/StructureDefinition/Observation-resultslab-eu-lab"
          ]
        },
        "performer": [
          {
            "display": "The Central European Lab"
          }
        ],
        "category": [
          {
            "coding": [
              {
                "system": "http://terminology.hl7.org/CodeSystem/observation-category",
                "code": "laboratory"
              }
            ]
          }
        ],
        "code": {
          "coding": [
            {
              "code": "5767-9",
              "system": "http://loinc.org",
              "display": "Appearance of Urine"
            }
          ],
          "text": "Appearance of Urine"
        },
        "text": {
          "status": "generated",
          "div": "<div xmlns=\"http://www.w3.org/1999/xhtml\"><table class=\"hl7__eu__lab__report\"><tr><th>Test</th><th>05-Jan-2017</th><th>Reference&#xA0;Range</th><th>Unit</th></tr><tr><td>Appearance of Urine</td></tr></table></div>"
        },
        "status": "final",
        "subject": {
          "reference": "urn:uuid:98d850da-cd6b-4045-bef6-9ad8e17105f3",
          "display": "Molly Jenkins"
        },
        "effectiveDateTime": "2017-01-05T14:42:11Z",
        "specimen": {
          "reference": "urn:uuid:6a82632c-ffbe-4ee8-88c9-e598b89cc693"
        }
      }
    },
    {
      "fullUrl": "urn:uuid:2bbdc3ad-0b5e-4112-819c-719d6bb0c814",
      "resource": {
        "resourceType": "Observation",
        "id": "2bbdc3ad-0b5e-4112-819c-719d6bb0c814",
        "meta": {
          "profile": [
            "http://hl7.eu/fhir/laboratory/StructureDefinition/Observation-resultslab-eu-lab"
          ]
        },
        "performer": [
          {
            "display": "The Central European Lab"
          }
        ],
        "category": [
          {
            "coding": [
              {
                "system": "http://terminology.hl7.org/CodeSystem/observation-category",
                "code": "laboratory"
              }
            ]
          }
        ],
        "code": {
          "coding": [
            {
              "code": "34533-0",
              "system": "http://loinc.org",
              "display": "Odor of Urine"
            }
          ],
          "text": "Odor of Urine"
        },
        "text": {
          "status": "generated",
          "div": "<div xmlns=\"http://www.w3.org/1999/xhtml\"><table class=\"hl7__eu__lab__report\"><tr><th>Test</th><th>05-Jan-2017</th><th>Reference&#xA0;Range</th><th>Unit</th></tr><tr><td>Odor of Urine</td></tr></table></div>"
        },
        "status": "final",
        "subject": {
          "reference": "urn:uuid:98d850da-cd6b-4045-bef6-9ad8e17105f3",
          "display": "Molly Jenkins"
        },
        "effectiveDateTime": "2017-01-05T14:42:11Z",
        "specimen": {
          "reference": "urn:uuid:6a82632c-ffbe-4ee8-88c9-e598b89cc693"
        }
      }
    },
    {
      "fullUrl": "urn:uuid:40a0cc10-e44b-44d9-a677-08ee70178139",
      "resource": {
        "resourceType": "Observation",
        "id": "40a0cc10-e44b-44d9-a677-08ee70178139",
        "meta": {
          "profile": [
            "http://hl7.eu/fhir/laboratory/StructureDefinition/Observation-resultslab-eu-lab"
          ]
        },
        "performer": [
          {
            "display": "The Central European Lab"
          }
        ],
        "category": [
          {
            "coding": [
              {
                "system": "http://terminology.hl7.org/CodeSystem/observation-category",
                "code": "laboratory"
              }
            ]
          }
        ],
        "code": {
          "coding": [
            {
              "code": "32167-9",
              "system": "http://loinc.org",
              "display": "Clarity of Urine"
            }
          ],
          "text": "Clarity of Urine"
        },
        "text": {
          "status": "generated",
          "div": "<div xmlns=\"http://www.w3.org/1999/xhtml\"><table class=\"hl7__eu__lab__report\"><tr><th>Test</th><th>05-Jan-2017</th><th>Reference&#xA0;Range</th><th>Unit</th></tr><tr><td>Clarity of Urine</td></tr></table></div>"
        },
        "status": "final",
        "subject": {
          "reference": "urn:uuid:98d850da-cd6b-4045-bef6-9ad8e17105f3",
          "display": "Molly Jenkins"
        },
        "effectiveDateTime": "2017-01-05T14:42:11Z",
        "specimen": {
          "reference": "urn:uuid:6a82632c-ffbe-4ee8-88c9-e598b89cc693"
        }
      }
    },
    {
      "fullUrl": "urn:uuid:0032ce02-4164-4494-a3b5-9a6ebb716952",
      "resource": {
        "resourceType": "Observation",
        "id": "0032ce02-4164-4494-a3b5-9a6ebb716952",
        "meta": {
          "profile": [
            "http://hl7.eu/fhir/laboratory/StructureDefinition/Observation-resultslab-eu-lab"
          ]
        },
        "performer": [
          {
            "display": "The Central European Lab"
          }
        ],
        "category": [
          {
            "coding": [
              {
                "system": "http://terminology.hl7.org/CodeSystem/observation-category",
                "code": "laboratory"
              }
            ]
          }
        ],
        "code": {
          "coding": [
            {
              "code": "5778-6",
              "system": "http://loinc.org",
              "display": "Color of Urine"
            }
          ],
          "text": "Color of Urine"
        },
        "text": {
          "status": "generated",
          "div": "<div xmlns=\"http://www.w3.org/1999/xhtml\"><table class=\"hl7__eu__lab__report\"><tr><th>Test</th><th>05-Jan-2017</th><th>Reference&#xA0;Range</th><th>Unit</th></tr><tr><td>Color of Urine</td></tr></table></div>"
        },
        "status": "final",
        "subject": {
          "reference": "urn:uuid:98d850da-cd6b-4045-bef6-9ad8e17105f3",
          "display": "Molly Jenkins"
        },
        "effectiveDateTime": "2017-01-05T14:42:11Z",
        "specimen": {
          "reference": "urn:uuid:6a82632c-ffbe-4ee8-88c9-e598b89cc693"
        }
      }
    },
    {
      "fullUrl": "urn:uuid:1c6cd9bb-2539-4ed4-aa73-9c4a5ff96897",
      "resource": {
        "resourceType": "Observation",
        "id": "1c6cd9bb-2539-4ed4-aa73-9c4a5ff96897",
        "meta": {
          "profile": [
            "http://hl7.eu/fhir/laboratory/StructureDefinition/Observation-resultslab-eu-lab"
          ]
        },
        "performer": [
          {
            "display": "The Central European Lab"
          }
        ],
        "category": [
          {
            "coding": [
              {
                "system": "http://terminology.hl7.org/CodeSystem/observation-category",
                "code": "laboratory"
              }
            ]
          }
        ],
        "code": {
          "coding": [
            {
              "code": "5792-7",
              "system": "http://loinc.org",
              "display": "Glucose [Mass/volume] in Urine by Test strip"
            }
          ],
          "text": "Glucose [Mass/volume] in Urine by Test strip"
        },
        "valueQuantity": {
          "system": "http://unitsofmeasure.org",
          "value": 1.2,
          "unit": "mg/dL",
          "code": "mg/dL"
        },
        "referenceRange": [
          {
            "low": {
              "value": 0,
              "code": "mg/dL",
              "system": "http://unitsofmeasure.org"
            }
          },
          {
            "high": {
              "value": 0,
              "code": "mg/dL",
              "system": "http://unitsofmeasure.org"
            }
          }
        ],
        "interpretation": [
          {
            "coding": [
              {
                "code": "H",
                "system": "http://terminology.hl7.org/CodeSystem/v3-ObservationInterpretation",
                "display": "High"
              }
            ]
          }
        ],
        "text": {
          "status": "generated",
          "div": "<div xmlns=\"http://www.w3.org/1999/xhtml\"><table class=\"hl7__eu__lab__report\"><tr><th>Test</th><th>05-Jan-2017</th><th>Reference&#xA0;Range</th><th>Unit</th></tr><tr><td>Glucose [Mass/volume] in Urine by Test strip</td><td>1.2</td><td>0 - 0</td><td>H</td><td>mg/dL</td></tr></table></div>"
        },
        "status": "final",
        "subject": {
          "reference": "urn:uuid:98d850da-cd6b-4045-bef6-9ad8e17105f3",
          "display": "Molly Jenkins"
        },
        "effectiveDateTime": "2017-01-05T14:42:11Z",
        "specimen": {
          "reference": "urn:uuid:6a82632c-ffbe-4ee8-88c9-e598b89cc693"
        }
      }
    },
    {
      "fullUrl": "urn:uuid:a1b0fae0-07d9-46d5-b07b-1ad3fcc394e8",
      "resource": {
        "resourceType": "Observation",
        "id": "a1b0fae0-07d9-46d5-b07b-1ad3fcc394e8",
        "meta": {
          "profile": [
            "http://hl7.eu/fhir/laboratory/StructureDefinition/Observation-resultslab-eu-lab"
          ]
        },
        "performer": [
          {
            "display": "The Central European Lab"
          }
        ],
        "category": [
          {
            "coding": [
              {
                "system": "http://terminology.hl7.org/CodeSystem/observation-category",
                "code": "laboratory"
              }
            ]
          }
        ],
        "code": {
          "coding": [
            {
              "code": "25428-4",
              "system": "http://loinc.org",
              "display": "Glucose [Presence] in Urine by Test strip"
            }
          ],
          "text": "Glucose [Presence] in Urine by Test strip"
        },
        "text": {
          "status": "generated",
          "div": "<div xmlns=\"http://www.w3.org/1999/xhtml\"><table class=\"hl7__eu__lab__report\"><tr><th>Test</th><th>05-Jan-2017</th><th>Reference&#xA0;Range</th><th>Unit</th></tr><tr><td>Glucose [Presence] in Urine by Test strip</td></tr></table></div>"
        },
        "status": "final",
        "subject": {
          "reference": "urn:uuid:98d850da-cd6b-4045-bef6-9ad8e17105f3",
          "display": "Molly Jenkins"
        },
        "effectiveDateTime": "2017-01-05T14:42:11Z",
        "specimen": {
          "reference": "urn:uuid:6a82632c-ffbe-4ee8-88c9-e598b89cc693"
        }
      }
    },
    {
      "fullUrl": "urn:uuid:775bbaf7-8220-4235-8322-c9e183050593",
      "resource": {
        "resourceType": "Observation",
        "id": "775bbaf7-8220-4235-8322-c9e183050593",
        "meta": {
          "profile": [
            "http://hl7.eu/fhir/laboratory/StructureDefinition/Observation-resultslab-eu-lab"
          ]
        },
        "performer": [
          {
            "display": "The Central European Lab"
          }
        ],
        "category": [
          {
            "coding": [
              {
                "system": "http://terminology.hl7.org/CodeSystem/observation-category",
                "code": "laboratory"
              }
            ]
          }
        ],
        "code": {
          "coding": [
            {
              "code": "20505-4",
              "system": "http://loinc.org",
              "display": "Bilirubin.total [Mass/volume] in Urine by Test strip"
            }
          ],
          "text": "Bilirubin.total [Mass/volume] in Urine by Test strip"
        },
        "valueQuantity": {
          "system": "http://unitsofmeasure.org",
          "value": 0.6,
          "unit": "mg/dL",
          "code": "mg/dL"
        },
        "referenceRange": [
          {
            "low": {
              "value": 0,
              "code": "mg/dL",
              "system": "http://unitsofmeasure.org"
            }
          },
          {
            "high": {
              "value": 1.6,
              "code": "mg/dL",
              "system": "http://unitsofmeasure.org"
            }
          }
        ],
        "text": {
          "status": "generated",
          "div": "<div xmlns=\"http://www.w3.org/1999/xhtml\"><table class=\"hl7__eu__lab__report\"><tr><th>Test</th><th>05-Jan-2017</th><th>Reference&#xA0;Range</th><th>Unit</th></tr><tr><td>Bilirubin.total [Mass/volume] in Urine by Test strip</td><td>0.6</td><td>0 - 1.6</td><td></td><td>mg/dL</td></tr></table></div>"
        },
        "status": "final",
        "subject": {
          "reference": "urn:uuid:98d850da-cd6b-4045-bef6-9ad8e17105f3",
          "display": "Molly Jenkins"
        },
        "effectiveDateTime": "2017-01-05T14:42:11Z",
        "specimen": {
          "reference": "urn:uuid:6a82632c-ffbe-4ee8-88c9-e598b89cc693"
        }
      }
    },
    {
      "fullUrl": "urn:uuid:bbfd3734-131e-4e3c-a20c-9cea61bad14e",
      "resource": {
        "resourceType": "Observation",
        "id": "bbfd3734-131e-4e3c-a20c-9cea61bad14e",
        "meta": {
          "profile": [
            "http://hl7.eu/fhir/laboratory/StructureDefinition/Observation-resultslab-eu-lab"
          ]
        },
        "performer": [
          {
            "display": "The Central European Lab"
          }
        ],
        "category": [
          {
            "coding": [
              {
                "system": "http://terminology.hl7.org/CodeSystem/observation-category",
                "code": "laboratory"
              }
            ]
          }
        ],
        "code": {
          "coding": [
            {
              "code": "5770-3",
              "system": "http://loinc.org",
              "display": "Bilirubin.total [Presence] in Urine by Test strip"
            }
          ],
          "text": "Bilirubin.total [Presence] in Urine by Test strip"
        },
        "text": {
          "status": "generated",
          "div": "<div xmlns=\"http://www.w3.org/1999/xhtml\"><table class=\"hl7__eu__lab__report\"><tr><th>Test</th><th>05-Jan-2017</th><th>Reference&#xA0;Range</th><th>Unit</th></tr><tr><td>Bilirubin.total [Presence] in Urine by Test strip</td></tr></table></div>"
        },
        "status": "final",
        "subject": {
          "reference": "urn:uuid:98d850da-cd6b-4045-bef6-9ad8e17105f3",
          "display": "Molly Jenkins"
        },
        "effectiveDateTime": "2017-01-05T14:42:11Z",
        "specimen": {
          "reference": "urn:uuid:6a82632c-ffbe-4ee8-88c9-e598b89cc693"
        }
      }
    },
    {
      "fullUrl": "urn:uuid:9aaa6a3b-f877-4d83-b8dd-0b454676f8e9",
      "resource": {
        "resourceType": "Observation",
        "id": "9aaa6a3b-f877-4d83-b8dd-0b454676f8e9",
        "meta": {
          "profile": [
            "http://hl7.eu/fhir/laboratory/StructureDefinition/Observation-resultslab-eu-lab"
          ]
        },
        "performer": [
          {
            "display": "The Central European Lab"
          }
        ],
        "category": [
          {
            "coding": [
              {
                "system": "http://terminology.hl7.org/CodeSystem/observation-category",
                "code": "laboratory"
              }
            ]
          }
        ],
        "code": {
          "coding": [
            {
              "code": "5797-6",
              "system": "http://loinc.org",
              "display": "Ketones [Mass/volume] in Urine by Test strip"
            }
          ],
          "text": "Ketones [Mass/volume] in Urine by Test strip"
        },
        "valueQuantity": {
          "system": "http://unitsofmeasure.org",
          "value": 7.5,
          "unit": "mg/dL",
          "code": "mg/dL"
        },
        "referenceRange": [
          {
            "low": {
              "value": 0,
              "code": "mg/dL",
              "system": "http://unitsofmeasure.org"
            }
          },
          {
            "high": {
              "value": 0.5,
              "code": "mg/dL",
              "system": "http://unitsofmeasure.org"
            }
          }
        ],
        "interpretation": [
          {
            "coding": [
              {
                "code": "H",
                "system": "http://terminology.hl7.org/CodeSystem/v3-ObservationInterpretation",
                "display": "High"
              }
            ]
          }
        ],
        "text": {
          "status": "generated",
          "div": "<div xmlns=\"http://www.w3.org/1999/xhtml\"><table class=\"hl7__eu__lab__report\"><tr><th>Test</th><th>05-Jan-2017</th><th>Reference&#xA0;Range</th><th>Unit</th></tr><tr><td>Ketones [Mass/volume] in Urine by Test strip</td><td>7.5</td><td>0 - 0.5</td><td>H</td><td>mg/dL</td></tr></table></div>"
        },
        "status": "final",
        "subject": {
          "reference": "urn:uuid:98d850da-cd6b-4045-bef6-9ad8e17105f3",
          "display": "Molly Jenkins"
        },
        "effectiveDateTime": "2017-01-05T14:42:11Z",
        "specimen": {
          "reference": "urn:uuid:6a82632c-ffbe-4ee8-88c9-e598b89cc693"
        }
      }
    },
    {
      "fullUrl": "urn:uuid:0753335e-028c-4e1e-9ae0-8fc1556357ff",
      "resource": {
        "resourceType": "Observation",
        "id": "0753335e-028c-4e1e-9ae0-8fc1556357ff",
        "meta": {
          "profile": [
            "http://hl7.eu/fhir/laboratory/StructureDefinition/Observation-resultslab-eu-lab"
          ]
        },
        "performer": [
          {
            "display": "The Central European Lab"
          }
        ],
        "category": [
          {
            "coding": [
              {
                "system": "http://terminology.hl7.org/CodeSystem/observation-category",
                "code": "laboratory"
              }
            ]
          }
        ],
        "code": {
          "coding": [
            {
              "code": "2514-8",
              "system": "http://loinc.org",
              "display": "Ketones [Presence] in Urine by Test strip"
            }
          ],
          "text": "Ketones [Presence] in Urine by Test strip"
        },
        "text": {
          "status": "generated",
          "div": "<div xmlns=\"http://www.w3.org/1999/xhtml\"><table class=\"hl7__eu__lab__report\"><tr><th>Test</th><th>05-Jan-2017</th><th>Reference&#xA0;Range</th><th>Unit</th></tr><tr><td>Ketones [Presence] in Urine by Test strip</td></tr></table></div>"
        },
        "status": "final",
        "subject": {
          "reference": "urn:uuid:98d850da-cd6b-4045-bef6-9ad8e17105f3",
          "display": "Molly Jenkins"
        },
        "effectiveDateTime": "2017-01-05T14:42:11Z",
        "specimen": {
          "reference": "urn:uuid:6a82632c-ffbe-4ee8-88c9-e598b89cc693"
        }
      }
    },
    {
      "fullUrl": "urn:uuid:80bc0f1b-4e20-4b65-97a1-b103ea672368",
      "resource": {
        "resourceType": "Observation",
        "id": "80bc0f1b-4e20-4b65-97a1-b103ea672368",
        "meta": {
          "profile": [
            "http://hl7.eu/fhir/laboratory/StructureDefinition/Observation-resultslab-eu-lab"
          ]
        },
        "performer": [
          {
            "display": "The Central European Lab"
          }
        ],
        "category": [
          {
            "coding": [
              {
                "system": "http://terminology.hl7.org/CodeSystem/observation-category",
                "code": "laboratory"
              }
            ]
          }
        ],
        "code": {
          "coding": [
            {
              "code": "5811-5",
              "system": "http://loinc.org",
              "display": "Specific gravity of Urine by Test strip"
            }
          ],
          "text": "Specific gravity of Urine by Test strip"
        },
        "valueQuantity": {
          "system": "http://unitsofmeasure.org",
          "value": 1,
          "unit": "{nominal}",
          "code": "{nominal}"
        },
        "referenceRange": [
          {
            "low": {
              "value": 1.005,
              "code": "g/mL",
              "system": "http://unitsofmeasure.org"
            }
          },
          {
            "high": {
              "value": 1.03,
              "code": "g/mL",
              "system": "http://unitsofmeasure.org"
            }
          }
        ],
        "interpretation": [
          {
            "coding": [
              {
                "code": "L",
                "system": "http://terminology.hl7.org/CodeSystem/v3-ObservationInterpretation",
                "display": "Low"
              }
            ]
          }
        ],
        "text": {
          "status": "generated",
          "div": "<div xmlns=\"http://www.w3.org/1999/xhtml\"><table class=\"hl7__eu__lab__report\"><tr><th>Test</th><th>05-Jan-2017</th><th>Reference&#xA0;Range</th><th>Unit</th></tr><tr><td>Specific gravity of Urine by Test strip</td><td>1.0</td><td>1.005 - 1.03</td><td>L</td><td>{nominal}</td></tr></table></div>"
        },
        "status": "final",
        "subject": {
          "reference": "urn:uuid:98d850da-cd6b-4045-bef6-9ad8e17105f3",
          "display": "Molly Jenkins"
        },
        "effectiveDateTime": "2017-01-05T14:42:11Z",
        "specimen": {
          "reference": "urn:uuid:6a82632c-ffbe-4ee8-88c9-e598b89cc693"
        }
      }
    },
    {
      "fullUrl": "urn:uuid:6652102a-6e92-4c35-acd2-2383a9507202",
      "resource": {
        "resourceType": "Observation",
        "id": "6652102a-6e92-4c35-acd2-2383a9507202",
        "meta": {
          "profile": [
            "http://hl7.eu/fhir/laboratory/StructureDefinition/Observation-resultslab-eu-lab"
          ]
        },
        "performer": [
          {
            "display": "The Central European Lab"
          }
        ],
        "category": [
          {
            "coding": [
              {
                "system": "http://terminology.hl7.org/CodeSystem/observation-category",
                "code": "laboratory"
              }
            ]
          }
        ],
        "code": {
          "coding": [
            {
              "code": "5803-2",
              "system": "http://loinc.org",
              "display": "pH of Urine by Test strip"
            }
          ],
          "text": "pH of Urine by Test strip"
        },
        "valueQuantity": {
          "system": "http://unitsofmeasure.org",
          "value": 5.1,
          "unit": "pH",
          "code": "pH"
        },
        "referenceRange": [
          {
            "low": {
              "value": 4.5,
              "code": "pH",
              "system": "http://unitsofmeasure.org"
            }
          },
          {
            "high": {
              "value": 7.5,
              "code": "pH",
              "system": "http://unitsofmeasure.org"
            }
          }
        ],
        "text": {
          "status": "generated",
          "div": "<div xmlns=\"http://www.w3.org/1999/xhtml\"><table class=\"hl7__eu__lab__report\"><tr><th>Test</th><th>05-Jan-2017</th><th>Reference&#xA0;Range</th><th>Unit</th></tr><tr><td>pH of Urine by Test strip</td><td>5.1</td><td>4.5 - 7.5</td><td></td><td>pH</td></tr></table></div>"
        },
        "status": "final",
        "subject": {
          "reference": "urn:uuid:98d850da-cd6b-4045-bef6-9ad8e17105f3",
          "display": "Molly Jenkins"
        },
        "effectiveDateTime": "2017-01-05T14:42:11Z",
        "specimen": {
          "reference": "urn:uuid:6a82632c-ffbe-4ee8-88c9-e598b89cc693"
        }
      }
    },
    {
      "fullUrl": "urn:uuid:1238e2c2-7048-410f-9c17-48d9951a63f3",
      "resource": {
        "resourceType": "Observation",
        "id": "1238e2c2-7048-410f-9c17-48d9951a63f3",
        "meta": {
          "profile": [
            "http://hl7.eu/fhir/laboratory/StructureDefinition/Observation-resultslab-eu-lab"
          ]
        },
        "performer": [
          {
            "display": "The Central European Lab"
          }
        ],
        "category": [
          {
            "coding": [
              {
                "system": "http://terminology.hl7.org/CodeSystem/observation-category",
                "code": "laboratory"
              }
            ]
          }
        ],
        "code": {
          "coding": [
            {
              "code": "5804-0",
              "system": "http://loinc.org",
              "display": "Protein [Mass/volume] in Urine by Test strip"
            }
          ],
          "text": "Protein [Mass/volume] in Urine by Test strip"
        },
        "valueQuantity": {
          "system": "http://unitsofmeasure.org",
          "value": 306.4,
          "unit": "mg/dL",
          "code": "mg/dL"
        },
        "referenceRange": [
          {
            "low": {
              "value": 0,
              "code": "mg/dL",
              "system": "http://unitsofmeasure.org"
            }
          },
          {
            "high": {
              "value": 15,
              "code": "mg/dL",
              "system": "http://unitsofmeasure.org"
            }
          }
        ],
        "interpretation": [
          {
            "coding": [
              {
                "code": "H",
                "system": "http://terminology.hl7.org/CodeSystem/v3-ObservationInterpretation",
                "display": "High"
              }
            ]
          }
        ],
        "text": {
          "status": "generated",
          "div": "<div xmlns=\"http://www.w3.org/1999/xhtml\"><table class=\"hl7__eu__lab__report\"><tr><th>Test</th><th>05-Jan-2017</th><th>Reference&#xA0;Range</th><th>Unit</th></tr><tr><td>Protein [Mass/volume] in Urine by Test strip</td><td>306.4</td><td>0 - 15</td><td>H</td><td>mg/dL</td></tr></table></div>"
        },
        "status": "final",
        "subject": {
          "reference": "urn:uuid:98d850da-cd6b-4045-bef6-9ad8e17105f3",
          "display": "Molly Jenkins"
        },
        "effectiveDateTime": "2017-01-05T14:42:11Z",
        "specimen": {
          "reference": "urn:uuid:6a82632c-ffbe-4ee8-88c9-e598b89cc693"
        }
      }
    },
    {
      "fullUrl": "urn:uuid:35856418-614e-4d71-9e01-57d5fb1a53c4",
      "resource": {
        "resourceType": "Observation",
        "id": "35856418-614e-4d71-9e01-57d5fb1a53c4",
        "meta": {
          "profile": [
            "http://hl7.eu/fhir/laboratory/StructureDefinition/Observation-resultslab-eu-lab"
          ]
        },
        "performer": [
          {
            "display": "The Central European Lab"
          }
        ],
        "category": [
          {
            "coding": [
              {
                "system": "http://terminology.hl7.org/CodeSystem/observation-category",
                "code": "laboratory"
              }
            ]
          }
        ],
        "code": {
          "coding": [
            {
              "code": "20454-5",
              "system": "http://loinc.org",
              "display": "Protein [Presence] in Urine by Test strip"
            }
          ],
          "text": "Protein [Presence] in Urine by Test strip"
        },
        "text": {
          "status": "generated",
          "div": "<div xmlns=\"http://www.w3.org/1999/xhtml\"><table class=\"hl7__eu__lab__report\"><tr><th>Test</th><th>05-Jan-2017</th><th>Reference&#xA0;Range</th><th>Unit</th></tr><tr><td>Protein [Presence] in Urine by Test strip</td></tr></table></div>"
        },
        "status": "final",
        "subject": {
          "reference": "urn:uuid:98d850da-cd6b-4045-bef6-9ad8e17105f3",
          "display": "Molly Jenkins"
        },
        "effectiveDateTime": "2017-01-05T14:42:11Z",
        "specimen": {
          "reference": "urn:uuid:6a82632c-ffbe-4ee8-88c9-e598b89cc693"
        }
      }
    },
    {
      "fullUrl": "urn:uuid:00e72d3a-2c68-496a-9e1e-cf68247b8653",
      "resource": {
        "resourceType": "Observation",
        "id": "00e72d3a-2c68-496a-9e1e-cf68247b8653",
        "meta": {
          "profile": [
            "http://hl7.eu/fhir/laboratory/StructureDefinition/Observation-resultslab-eu-lab"
          ]
        },
        "performer": [
          {
            "display": "The Central European Lab"
          }
        ],
        "category": [
          {
            "coding": [
              {
                "system": "http://terminology.hl7.org/CodeSystem/observation-category",
                "code": "laboratory"
              }
            ]
          }
        ],
        "code": {
          "coding": [
            {
              "code": "5802-4",
              "system": "http://loinc.org",
              "display": "Nitrite [Presence] in Urine by Test strip"
            }
          ],
          "text": "Nitrite [Presence] in Urine by Test strip"
        },
        "text": {
          "status": "generated",
          "div": "<div xmlns=\"http://www.w3.org/1999/xhtml\"><table class=\"hl7__eu__lab__report\"><tr><th>Test</th><th>05-Jan-2017</th><th>Reference&#xA0;Range</th><th>Unit</th></tr><tr><td>Nitrite [Presence] in Urine by Test strip</td></tr></table></div>"
        },
        "status": "final",
        "subject": {
          "reference": "urn:uuid:98d850da-cd6b-4045-bef6-9ad8e17105f3",
          "display": "Molly Jenkins"
        },
        "effectiveDateTime": "2017-01-05T14:42:11Z",
        "specimen": {
          "reference": "urn:uuid:6a82632c-ffbe-4ee8-88c9-e598b89cc693"
        }
      }
    },
    {
      "fullUrl": "urn:uuid:88ddbf36-0041-449c-bd7b-8a42bcf06172",
      "resource": {
        "resourceType": "Observation",
        "id": "88ddbf36-0041-449c-bd7b-8a42bcf06172",
        "meta": {
          "profile": [
            "http://hl7.eu/fhir/laboratory/StructureDefinition/Observation-resultslab-eu-lab"
          ]
        },
        "performer": [
          {
            "display": "The Central European Lab"
          }
        ],
        "category": [
          {
            "coding": [
              {
                "system": "http://terminology.hl7.org/CodeSystem/observation-category",
                "code": "laboratory"
              }
            ]
          }
        ],
        "code": {
          "coding": [
            {
              "code": "5794-3",
              "system": "http://loinc.org",
              "display": "Hemoglobin [Presence] in Urine by Test strip"
            }
          ],
          "text": "Hemoglobin [Presence] in Urine by Test strip"
        },
        "text": {
          "status": "generated",
          "div": "<div xmlns=\"http://www.w3.org/1999/xhtml\"><table class=\"hl7__eu__lab__report\"><tr><th>Test</th><th>05-Jan-2017</th><th>Reference&#xA0;Range</th><th>Unit</th></tr><tr><td>Hemoglobin [Presence] in Urine by Test strip</td></tr></table></div>"
        },
        "status": "final",
        "subject": {
          "reference": "urn:uuid:98d850da-cd6b-4045-bef6-9ad8e17105f3",
          "display": "Molly Jenkins"
        },
        "effectiveDateTime": "2017-01-05T14:42:11Z",
        "specimen": {
          "reference": "urn:uuid:6a82632c-ffbe-4ee8-88c9-e598b89cc693"
        }
      }
    },
    {
      "fullUrl": "urn:uuid:c615975b-36ad-43ff-9c65-496a7630ceb4",
      "resource": {
        "resourceType": "Observation",
        "id": "c615975b-36ad-43ff-9c65-496a7630ceb4",
        "meta": {
          "profile": [
            "http://hl7.eu/fhir/laboratory/StructureDefinition/Observation-resultslab-eu-lab"
          ]
        },
        "performer": [
          {
            "display": "The Central European Lab"
          }
        ],
        "category": [
          {
            "coding": [
              {
                "system": "http://terminology.hl7.org/CodeSystem/observation-category",
                "code": "laboratory"
              }
            ]
          }
        ],
        "code": {
          "coding": [
            {
              "code": "5799-2",
              "system": "http://loinc.org",
              "display": "Leukocyte esterase [Presence] in Urine by Test strip"
            }
          ],
          "text": "Leukocyte esterase [Presence] in Urine by Test strip"
        },
        "text": {
          "status": "generated",
          "div": "<div xmlns=\"http://www.w3.org/1999/xhtml\"><table class=\"hl7__eu__lab__report\"><tr><th>Test</th><th>05-Jan-2017</th><th>Reference&#xA0;Range</th><th>Unit</th></tr><tr><td>Leukocyte esterase [Presence] in Urine by Test strip</td></tr></table></div>"
        },
        "status": "final",
        "subject": {
          "reference": "urn:uuid:98d850da-cd6b-4045-bef6-9ad8e17105f3",
          "display": "Molly Jenkins"
        },
        "effectiveDateTime": "2017-01-05T14:42:11Z",
        "specimen": {
          "reference": "urn:uuid:6a82632c-ffbe-4ee8-88c9-e598b89cc693"
        }
      }
    },
    {
      "fullUrl": "urn:uuid:939a28d2-0d28-44b5-b420-f19255fb1699",
      "resource": {
        "resourceType": "Observation",
        "id": "939a28d2-0d28-44b5-b420-f19255fb1699",
        "meta": {
          "profile": [
            "http://hl7.eu/fhir/laboratory/StructureDefinition/Observation-resultslab-eu-lab"
          ]
        },
        "performer": [
          {
            "display": "The Central European Lab"
          }
        ],
        "category": [
          {
            "coding": [
              {
                "system": "http://terminology.hl7.org/CodeSystem/observation-category",
                "code": "laboratory"
              }
            ]
          }
        ],
        "code": {
          "coding": [
            {
              "code": "4548-4",
              "system": "http://loinc.org",
              "display": "Hemoglobin A1c/Hemoglobin.total in Blood"
            }
          ],
          "text": "Hemoglobin A1c/Hemoglobin.total in Blood"
        },
        "valueQuantity": {
          "system": "http://unitsofmeasure.org",
          "value": 3.4,
          "unit": "%",
          "code": "%"
        },
        "referenceRange": [
          {
            "low": {
              "value": 4,
              "code": "%",
              "system": "http://unitsofmeasure.org"
            }
          },
          {
            "high": {
              "value": 6,
              "code": "%",
              "system": "http://unitsofmeasure.org"
            }
          }
        ],
        "interpretation": [
          {
            "coding": [
              {
                "code": "L",
                "system": "http://terminology.hl7.org/CodeSystem/v3-ObservationInterpretation",
                "display": "Low"
              }
            ]
          }
        ],
        "text": {
          "status": "generated",
          "div": "<div xmlns=\"http://www.w3.org/1999/xhtml\"><table class=\"hl7__eu__lab__report\"><tr><th>Test</th><th>05-Jan-2017</th><th>Reference&#xA0;Range</th><th>Unit</th></tr><tr><td>Hemoglobin A1c/Hemoglobin.total in Blood</td><td>3.4</td><td>4 - 6</td><td>L</td><td>%</td></tr></table></div>"
        },
        "status": "final",
        "subject": {
          "reference": "urn:uuid:98d850da-cd6b-4045-bef6-9ad8e17105f3",
          "display": "Molly Jenkins"
        },
        "effectiveDateTime": "2017-01-05T14:42:11Z",
        "specimen": {
          "reference": "urn:uuid:9a8520ab-f401-415d-b2f4-44f385a2a9a2"
        }
      }
    },
    {
      "fullUrl": "urn:uuid:57c96f1e-64bf-4be2-aca3-afb4ea877107",
      "resource": {
        "resourceType": "Observation",
        "id": "57c96f1e-64bf-4be2-aca3-afb4ea877107",
        "meta": {
          "profile": [
            "http://hl7.eu/fhir/laboratory/StructureDefinition/Observation-resultslab-eu-lab"
          ]
        },
        "performer": [
          {
            "display": "The Central European Lab"
          }
        ],
        "category": [
          {
            "coding": [
              {
                "system": "http://terminology.hl7.org/CodeSystem/observation-category",
                "code": "laboratory"
              }
            ]
          }
        ],
        "code": {
          "coding": [
            {
              "code": "2339-0",
              "system": "http://loinc.org",
              "display": "Glucose [Mass/volume] in Blood"
            }
          ],
          "text": "Glucose [Mass/volume] in Blood"
        },
        "valueQuantity": {
          "system": "http://unitsofmeasure.org",
          "value": 66,
          "unit": "mg/dL",
          "code": "mg/dL"
        },
        "referenceRange": [
          {
            "low": {
              "value": 70,
              "code": "mg/dL",
              "system": "http://unitsofmeasure.org"
            }
          },
          {
            "high": {
              "value": 100,
              "code": "mg/dL",
              "system": "http://unitsofmeasure.org"
            }
          }
        ],
        "interpretation": [
          {
            "coding": [
              {
                "code": "L",
                "system": "http://terminology.hl7.org/CodeSystem/v3-ObservationInterpretation",
                "display": "Low"
              }
            ]
          }
        ],
        "text": {
          "status": "generated",
          "div": "<div xmlns=\"http://www.w3.org/1999/xhtml\"><table class=\"hl7__eu__lab__report\"><tr><th>Test</th><th>05-Jan-2017</th><th>Reference&#xA0;Range</th><th>Unit</th></tr><tr><td>Glucose [Mass/volume] in Blood</td><td>66.0</td><td>70 - 100</td><td>L</td><td>mg/dL</td></tr></table></div>"
        },
        "status": "final",
        "subject": {
          "reference": "urn:uuid:98d850da-cd6b-4045-bef6-9ad8e17105f3",
          "display": "Molly Jenkins"
        },
        "effectiveDateTime": "2017-01-05T14:42:11Z",
        "specimen": {
          "reference": "urn:uuid:9a8520ab-f401-415d-b2f4-44f385a2a9a2"
        }
      }
    },
    {
      "fullUrl": "urn:uuid:f3bd59d6-b0b7-4ce4-824b-19a13419e4b7",
      "resource": {
        "resourceType": "Observation",
        "id": "f3bd59d6-b0b7-4ce4-824b-19a13419e4b7",
        "meta": {
          "profile": [
            "http://hl7.eu/fhir/laboratory/StructureDefinition/Observation-resultslab-eu-lab"
          ]
        },
        "performer": [
          {
            "display": "The Central European Lab"
          }
        ],
        "category": [
          {
            "coding": [
              {
                "system": "http://terminology.hl7.org/CodeSystem/observation-category",
                "code": "laboratory"
              }
            ]
          }
        ],
        "code": {
          "coding": [
            {
              "code": "6299-2",
              "system": "http://loinc.org",
              "display": "Urea nitrogen [Mass/volume] in Blood"
            }
          ],
          "text": "Urea nitrogen [Mass/volume] in Blood"
        },
        "valueQuantity": {
          "system": "http://unitsofmeasure.org",
          "value": 17.4,
          "unit": "mg/dL",
          "code": "mg/dL"
        },
        "referenceRange": [
          {
            "low": {
              "value": 7,
              "code": "mg/dL",
              "system": "http://unitsofmeasure.org"
            }
          },
          {
            "high": {
              "value": 20,
              "code": "mg/dL",
              "system": "http://unitsofmeasure.org"
            }
          }
        ],
        "text": {
          "status": "generated",
          "div": "<div xmlns=\"http://www.w3.org/1999/xhtml\"><table class=\"hl7__eu__lab__report\"><tr><th>Test</th><th>05-Jan-2017</th><th>Reference&#xA0;Range</th><th>Unit</th></tr><tr><td>Urea nitrogen [Mass/volume] in Blood</td><td>17.4</td><td>7 - 20</td><td></td><td>mg/dL</td></tr></table></div>"
        },
        "status": "final",
        "subject": {
          "reference": "urn:uuid:98d850da-cd6b-4045-bef6-9ad8e17105f3",
          "display": "Molly Jenkins"
        },
        "effectiveDateTime": "2017-01-05T14:42:11Z",
        "specimen": {
          "reference": "urn:uuid:9a8520ab-f401-415d-b2f4-44f385a2a9a2"
        }
      }
    },
    {
      "fullUrl": "urn:uuid:4874c6aa-867d-4441-9339-4f976c4dc9d2",
      "resource": {
        "resourceType": "Observation",
        "id": "4874c6aa-867d-4441-9339-4f976c4dc9d2",
        "meta": {
          "profile": [
            "http://hl7.eu/fhir/laboratory/StructureDefinition/Observation-resultslab-eu-lab"
          ]
        },
        "performer": [
          {
            "display": "The Central European Lab"
          }
        ],
        "category": [
          {
            "coding": [
              {
                "system": "http://terminology.hl7.org/CodeSystem/observation-category",
                "code": "laboratory"
              }
            ]
          }
        ],
        "code": {
          "coding": [
            {
              "code": "38483-4",
              "system": "http://loinc.org",
              "display": "Creatinine [Mass/volume] in Blood"
            }
          ],
          "text": "Creatinine [Mass/volume] in Blood"
        },
        "valueQuantity": {
          "system": "http://unitsofmeasure.org",
          "value": 1.4,
          "unit": "mg/dL",
          "code": "mg/dL"
        },
        "referenceRange": [
          {
            "low": {
              "value": 0.6,
              "code": "mg/dL",
              "system": "http://unitsofmeasure.org"
            }
          },
          {
            "high": {
              "value": 1.3,
              "code": "mg/dL",
              "system": "http://unitsofmeasure.org"
            }
          }
        ],
        "interpretation": [
          {
            "coding": [
              {
                "code": "H",
                "system": "http://terminology.hl7.org/CodeSystem/v3-ObservationInterpretation",
                "display": "High"
              }
            ]
          }
        ],
        "text": {
          "status": "generated",
          "div": "<div xmlns=\"http://www.w3.org/1999/xhtml\"><table class=\"hl7__eu__lab__report\"><tr><th>Test</th><th>05-Jan-2017</th><th>Reference&#xA0;Range</th><th>Unit</th></tr><tr><td>Creatinine [Mass/volume] in Blood</td><td>1.4</td><td>0.6 - 1.3</td><td>H</td><td>mg/dL</td></tr></table></div>"
        },
        "status": "final",
        "subject": {
          "reference": "urn:uuid:98d850da-cd6b-4045-bef6-9ad8e17105f3",
          "display": "Molly Jenkins"
        },
        "effectiveDateTime": "2017-01-05T14:42:11Z",
        "specimen": {
          "reference": "urn:uuid:9a8520ab-f401-415d-b2f4-44f385a2a9a2"
        }
      }
    },
    {
      "fullUrl": "urn:uuid:46e5af79-3361-4e8f-a681-bea9b1ac0980",
      "resource": {
        "resourceType": "Observation",
        "id": "46e5af79-3361-4e8f-a681-bea9b1ac0980",
        "meta": {
          "profile": [
            "http://hl7.eu/fhir/laboratory/StructureDefinition/Observation-resultslab-eu-lab"
          ]
        },
        "performer": [
          {
            "display": "The Central European Lab"
          }
        ],
        "category": [
          {
            "coding": [
              {
                "system": "http://terminology.hl7.org/CodeSystem/observation-category",
                "code": "laboratory"
              }
            ]
          }
        ],
        "code": {
          "coding": [
            {
              "code": "49765-1",
              "system": "http://loinc.org",
              "display": "Calcium [Mass/volume] in Blood"
            }
          ],
          "text": "Calcium [Mass/volume] in Blood"
        },
        "valueQuantity": {
          "system": "http://unitsofmeasure.org",
          "value": 9.5,
          "unit": "mg/dL",
          "code": "mg/dL"
        },
        "referenceRange": [
          {
            "low": {
              "value": 8.6,
              "code": "mg/dL",
              "system": "http://unitsofmeasure.org"
            }
          },
          {
            "high": {
              "value": 10.4,
              "code": "mg/dL",
              "system": "http://unitsofmeasure.org"
            }
          }
        ],
        "text": {
          "status": "generated",
          "div": "<div xmlns=\"http://www.w3.org/1999/xhtml\"><table class=\"hl7__eu__lab__report\"><tr><th>Test</th><th>05-Jan-2017</th><th>Reference&#xA0;Range</th><th>Unit</th></tr><tr><td>Calcium [Mass/volume] in Blood</td><td>9.5</td><td>8.6 - 10.4</td><td></td><td>mg/dL</td></tr></table></div>"
        },
        "status": "final",
        "subject": {
          "reference": "urn:uuid:98d850da-cd6b-4045-bef6-9ad8e17105f3",
          "display": "Molly Jenkins"
        },
        "effectiveDateTime": "2017-01-05T14:42:11Z",
        "specimen": {
          "reference": "urn:uuid:9a8520ab-f401-415d-b2f4-44f385a2a9a2"
        }
      }
    },
    {
      "fullUrl": "urn:uuid:e3c9c1b4-5a29-43e2-873f-de5fad9a0ad1",
      "resource": {
        "resourceType": "Observation",
        "id": "e3c9c1b4-5a29-43e2-873f-de5fad9a0ad1",
        "meta": {
          "profile": [
            "http://hl7.eu/fhir/laboratory/StructureDefinition/Observation-resultslab-eu-lab"
          ]
        },
        "performer": [
          {
            "display": "The Central European Lab"
          }
        ],
        "category": [
          {
            "coding": [
              {
                "system": "http://terminology.hl7.org/CodeSystem/observation-category",
                "code": "laboratory"
              }
            ]
          }
        ],
        "code": {
          "coding": [
            {
              "code": "2947-0",
              "system": "http://loinc.org",
              "display": "Sodium [Moles/volume] in Blood"
            }
          ],
          "text": "Sodium [Moles/volume] in Blood"
        },
        "valueQuantity": {
          "system": "http://unitsofmeasure.org",
          "value": 142.1,
          "unit": "mmol/L",
          "code": "mmol/L"
        },
        "referenceRange": [
          {
            "low": {
              "value": 135,
              "code": "mmol/L",
              "system": "http://unitsofmeasure.org"
            }
          },
          {
            "high": {
              "value": 145,
              "code": "mmol/L",
              "system": "http://unitsofmeasure.org"
            }
          }
        ],
        "text": {
          "status": "generated",
          "div": "<div xmlns=\"http://www.w3.org/1999/xhtml\"><table class=\"hl7__eu__lab__report\"><tr><th>Test</th><th>05-Jan-2017</th><th>Reference&#xA0;Range</th><th>Unit</th></tr><tr><td>Sodium [Moles/volume] in Blood</td><td>142.1</td><td>135 - 145</td><td></td><td>mmol/L</td></tr></table></div>"
        },
        "status": "final",
        "subject": {
          "reference": "urn:uuid:98d850da-cd6b-4045-bef6-9ad8e17105f3",
          "display": "Molly Jenkins"
        },
        "effectiveDateTime": "2017-01-05T14:42:11Z",
        "specimen": {
          "reference": "urn:uuid:9a8520ab-f401-415d-b2f4-44f385a2a9a2"
        }
      }
    },
    {
      "fullUrl": "urn:uuid:6a148662-4c68-4479-aa29-556ddce3a214",
      "resource": {
        "resourceType": "Observation",
        "id": "6a148662-4c68-4479-aa29-556ddce3a214",
        "meta": {
          "profile": [
            "http://hl7.eu/fhir/laboratory/StructureDefinition/Observation-resultslab-eu-lab"
          ]
        },
        "performer": [
          {
            "display": "The Central European Lab"
          }
        ],
        "category": [
          {
            "coding": [
              {
                "system": "http://terminology.hl7.org/CodeSystem/observation-category",
                "code": "laboratory"
              }
            ]
          }
        ],
        "code": {
          "coding": [
            {
              "code": "6298-4",
              "system": "http://loinc.org",
              "display": "Potassium [Moles/volume] in Blood"
            }
          ],
          "text": "Potassium [Moles/volume] in Blood"
        },
        "valueQuantity": {
          "system": "http://unitsofmeasure.org",
          "value": 4.3,
          "unit": "mmol/L",
          "code": "mmol/L"
        },
        "referenceRange": [
          {
            "low": {
              "value": 3.5,
              "code": "mmol/L",
              "system": "http://unitsofmeasure.org"
            }
          },
          {
            "high": {
              "value": 5.1,
              "code": "mmol/L",
              "system": "http://unitsofmeasure.org"
            }
          }
        ],
        "text": {
          "status": "generated",
          "div": "<div xmlns=\"http://www.w3.org/1999/xhtml\"><table class=\"hl7__eu__lab__report\"><tr><th>Test</th><th>05-Jan-2017</th><th>Reference&#xA0;Range</th><th>Unit</th></tr><tr><td>Potassium [Moles/volume] in Blood</td><td>4.3</td><td>3.5 - 5.1</td><td></td><td>mmol/L</td></tr></table></div>"
        },
        "status": "final",
        "subject": {
          "reference": "urn:uuid:98d850da-cd6b-4045-bef6-9ad8e17105f3",
          "display": "Molly Jenkins"
        },
        "effectiveDateTime": "2017-01-05T14:42:11Z",
        "specimen": {
          "reference": "urn:uuid:9a8520ab-f401-415d-b2f4-44f385a2a9a2"
        }
      }
    },
    {
      "fullUrl": "urn:uuid:cad639ed-e9ab-4bc4-b2b5-5f6afcbc9c4f",
      "resource": {
        "resourceType": "Observation",
        "id": "cad639ed-e9ab-4bc4-b2b5-5f6afcbc9c4f",
        "meta": {
          "profile": [
            "http://hl7.eu/fhir/laboratory/StructureDefinition/Observation-resultslab-eu-lab"
          ]
        },
        "performer": [
          {
            "display": "The Central European Lab"
          }
        ],
        "category": [
          {
            "coding": [
              {
                "system": "http://terminology.hl7.org/CodeSystem/observation-category",
                "code": "laboratory"
              }
            ]
          }
        ],
        "code": {
          "coding": [
            {
              "code": "2069-3",
              "system": "http://loinc.org",
              "display": "Chloride [Moles/volume] in Blood"
            }
          ],
          "text": "Chloride [Moles/volume] in Blood"
        },
        "valueQuantity": {
          "system": "http://unitsofmeasure.org",
          "value": 102,
          "unit": "mmol/L",
          "code": "mmol/L"
        },
        "referenceRange": [
          {
            "low": {
              "value": 98,
              "code": "mmol/L",
              "system": "http://unitsofmeasure.org"
            }
          },
          {
            "high": {
              "value": 110,
              "code": "mmol/L",
              "system": "http://unitsofmeasure.org"
            }
          }
        ],
        "text": {
          "status": "generated",
          "div": "<div xmlns=\"http://www.w3.org/1999/xhtml\"><table class=\"hl7__eu__lab__report\"><tr><th>Test</th><th>05-Jan-2017</th><th>Reference&#xA0;Range</th><th>Unit</th></tr><tr><td>Chloride [Moles/volume] in Blood</td><td>102.0</td><td>98 - 110</td><td></td><td>mmol/L</td></tr></table></div>"
        },
        "status": "final",
        "subject": {
          "reference": "urn:uuid:98d850da-cd6b-4045-bef6-9ad8e17105f3",
          "display": "Molly Jenkins"
        },
        "effectiveDateTime": "2017-01-05T14:42:11Z",
        "specimen": {
          "reference": "urn:uuid:9a8520ab-f401-415d-b2f4-44f385a2a9a2"
        }
      }
    },
    {
      "fullUrl": "urn:uuid:149d6b82-b168-4b87-b024-9e170f118188",
      "resource": {
        "resourceType": "Observation",
        "id": "149d6b82-b168-4b87-b024-9e170f118188",
        "meta": {
          "profile": [
            "http://hl7.eu/fhir/laboratory/StructureDefinition/Observation-resultslab-eu-lab"
          ]
        },
        "performer": [
          {
            "display": "The Central European Lab"
          }
        ],
        "category": [
          {
            "coding": [
              {
                "system": "http://terminology.hl7.org/CodeSystem/observation-category",
                "code": "laboratory"
              }
            ]
          }
        ],
        "code": {
          "coding": [
            {
              "code": "20565-8",
              "system": "http://loinc.org",
              "display": "Carbon dioxide, total [Moles/volume] in Blood"
            }
          ],
          "text": "Carbon dioxide, total [Moles/volume] in Blood"
        },
        "valueQuantity": {
          "system": "http://unitsofmeasure.org",
          "value": 25.4,
          "unit": "mmol/L",
          "code": "mmol/L"
        },
        "referenceRange": [
          {
            "low": {
              "value": 22,
              "code": "mmol/L",
              "system": "http://unitsofmeasure.org"
            }
          },
          {
            "high": {
              "value": 29,
              "code": "mmol/L",
              "system": "http://unitsofmeasure.org"
            }
          }
        ],
        "text": {
          "status": "generated",
          "div": "<div xmlns=\"http://www.w3.org/1999/xhtml\"><table class=\"hl7__eu__lab__report\"><tr><th>Test</th><th>05-Jan-2017</th><th>Reference&#xA0;Range</th><th>Unit</th></tr><tr><td>Carbon dioxide, total [Moles/volume] in Blood</td><td>25.4</td><td>22 - 29</td><td></td><td>mmol/L</td></tr></table></div>"
        },
        "status": "final",
        "subject": {
          "reference": "urn:uuid:98d850da-cd6b-4045-bef6-9ad8e17105f3",
          "display": "Molly Jenkins"
        },
        "effectiveDateTime": "2017-01-05T14:42:11Z",
        "specimen": {
          "reference": "urn:uuid:9a8520ab-f401-415d-b2f4-44f385a2a9a2"
        }
      }
    },
    {
      "fullUrl": "urn:uuid:5ab52d07-51d6-4959-a9b1-1157b179b14b",
      "resource": {
        "resourceType": "Device",
        "id": "5ab52d07-51d6-4959-a9b1-1157b179b14b",
        "deviceName": [
          {
            "name": "SYNDERAI Synthetic Generator",
            "type": "manufacturer-name"
          }
        ],
        "version": [
          {
            "value": "5.0"
          }
        ],
        "text": {
          "status": "generated",
          "div": "<div xmlns=\"http://www.w3.org/1999/xhtml\">SYNDERAI Synthetic Generator v5.0</div>"
        },
        "status": "active\"",
        "distinctIdentifier": "synderai-generator-50",
        "manufacturer": "SYNDERAI Project"
      }
    },
    {
      "fullUrl": "urn:uuid:1a1dcc4b-bd9a-45da-af79-4dff5d3faeee",
      "resource": {
        "resourceType": "Provenance",
        "id": "1a1dcc4b-bd9a-45da-af79-4dff5d3faeee",
        "target": [
          {
            "reference": "Patient/98d850da-cd6b-4045-bef6-9ad8e17105f3"
          },
          {
            "reference": "Bundle/3c96b277-397f-451e-8073-0f2750dbd8e1"
          },
          {
            "reference": "Composition/070dfa41-3ce0-41d9-b99b-161add00469a"
          },
          {
            "reference": "PractitionerRole/98fe03e5-694e-4bad-8ca1-f951f52746ba"
          },
          {
            "reference": "Practitioner/47621e86-086f-434f-81bf-f4c2017d488c"
          },
          {
            "reference": "PractitionerRole/5e29b7de-e264-4a19-888f-de6625deffeb"
          },
          {
            "reference": "Organization/48c8c7b8-1722-4be8-9f6d-c848ba2f2c56"
          }
        ],
        "activity": {
          "text": "Synthetic Example Data Generation"
        },
        "policy": [
          "https://synderai.net/synderai-synthetic-data-policy"
        ],
        "agent": [
          {
            "type": {
              "text": "author"
            },
            "who": {
              "reference": "Device/5ab52d07-51d6-4959-a9b1-1157b179b14b"
            }
          }
        ],
        "reason": [
          {
            "text": "Interoperability Testing and Training (non-clinical use)"
          }
        ],
        "text": {
          "status": "generated",
          "div": "<div xmlns=\"http://www.w3.org/1999/xhtml\">Provenance for SYNDERAI Synthetic Example Data Resource</div>"
        },
        "recorded": "2017-01-05T15:42:11Z"
      }
    },
    {
      "fullUrl": "urn:uuid:98fe03e5-694e-4bad-8ca1-f951f52746ba",
      "resource": {
        "resourceType": "PractitionerRole",
        "id": "98fe03e5-694e-4bad-8ca1-f951f52746ba",
        "meta": {
          "profile": [
            "http://hl7.eu/fhir/base/StructureDefinition/practitionerRole-eu"
          ]
        },
        "text": {
          "status": "generated",
          "div": "<div xmlns=\"http://www.w3.org/1999/xhtml\">Laboratory Role Id: 98fe03e5-694e-4bad-8ca1-f951f52746ba</div>"
        },
        "practitioner": {
          "reference": "urn:uuid:47621e86-086f-434f-81bf-f4c2017d488c"
        }
      }
    },
    {
      "fullUrl": "urn:uuid:47621e86-086f-434f-81bf-f4c2017d488c",
      "resource": {
        "resourceType": "Practitioner",
        "id": "47621e86-086f-434f-81bf-f4c2017d488c",
        "meta": {
          "profile": [
            "http://hl7.eu/fhir/base/StructureDefinition/practitioner-eu"
          ]
        },
        "identifier": [
          {
            "assigner": {
              "display": "HL7 Europe"
            },
            "system": "urn:oid:2.16.840.1.113883.2.51.999",
            "value": "505d9b12-ca2f-4f2d-8f54-50f4b1f0966f"
          }
        ],
        "name": [
          {
            "prefix": [
              "dr"
            ],
            "given": [
              "Ex"
            ],
            "family": "Ample"
          }
        ],
        "address": [
          {
            "line": [
              "Laboratoire Central Européenne",
              "Boulevard du Jardin Botanique 32"
            ],
            "postalCode": "1000",
            "city": "Brussels",
            "country": "Belgium"
          }
        ],
        "text": {
          "status": "generated",
          "div": "<div xmlns=\"http://www.w3.org/1999/xhtml\">Laboratory: Laboratoire Central Européenne, 1000 Brussels, Belgium</div>"
        }
      }
    }
  ],
  "type": "document",
  "timestamp": "2017-01-05T15:42:11Z"
}
