{
  "resourceType": "Bundle",
  "id": "90efc0d7-7d1b-46d0-8570-23f1fb5b1235",
  "meta": {
    "profile": [
      "http://hl7.eu/fhir/laboratory/StructureDefinition/Bundle-eu-lab"
    ]
  },
  "identifier": {
    "assigner": {
      "display": "HL7 Europe"
    },
    "system": "urn:oid:2.16.840.1.113883.2.51.999",
    "value": "a91d9fc5-73b1-444c-a2f8-706f3867c1a0"
  },
  "entry": [
    {
      "fullUrl": "urn:uuid:08b6a7ec-1d42-498b-9970-f51e64652162",
      "resource": {
        "resourceType": "Composition",
        "id": "08b6a7ec-1d42-498b-9970-f51e64652162",
        "meta": {
          "profile": [
            "http://hl7.eu/fhir/laboratory/StructureDefinition/Composition-eu-lab"
          ]
        },
        "identifier": {
          "assigner": {
            "display": "HL7 Europe"
          },
          "system": "urn:oid:2.16.840.1.113883.2.51.999",
          "value": "2e9a8669-5b8a-475c-8227-9c9104680444"
        },
        "author": [
          {
            "reference": "urn:uuid:0039bf7a-ecc2-4e57-885e-d8a45e0da397"
          }
        ],
        "category": [
          {
            "coding": [
              {
                "code": "26436-6",
                "system": "http://loinc.org",
                "display": "Laboratory studies (set)"
              }
            ]
          }
        ],
        "type": {
          "coding": [
            {
              "code": "11502-2",
              "system": "http://loinc.org",
              "display": "Laboratory report"
            }
          ],
          "text": "Laboratory Report"
        },
        "section": [
          {
            "code": {
              "coding": [
                {
                  "code": "26436-6",
                  "system": "http://loinc.org",
                  "display": "Laboratory studies (set)"
                }
              ],
              "text": "Laboratory studies"
            },
            "section": [
              {
                "code": {
                  "coding": [
                    {
                      "code": "$18719-5",
                      "system": "http://loinc.org",
                      "display": "Chemistry studies (set)"
                    }
                  ],
                  "text": "Chemistry"
                },
                "entry": [
                  {
                    "reference": "urn:uuid:57326106-0c16-4698-964e-396178a26037"
                  },
                  {
                    "reference": "urn:uuid:0502d22f-8d8c-443c-b198-ce049a511056"
                  },
                  {
                    "reference": "urn:uuid:8d1bf025-a5f7-4c8d-ba5d-583c630ceed7"
                  },
                  {
                    "reference": "urn:uuid:3440965b-b3b3-4526-a843-997cfde7fe70"
                  },
                  {
                    "reference": "urn:uuid:a4669a5d-9c4f-444c-9071-187702b09a25"
                  },
                  {
                    "reference": "urn:uuid:cc878224-5b29-4f42-9389-eed97b017962"
                  },
                  {
                    "reference": "urn:uuid:14c0b2af-1a5a-42ab-b768-6b74f3f4f9b6"
                  },
                  {
                    "reference": "urn:uuid:298b3d7e-2f33-4a63-9f8d-692c39aa3e06"
                  },
                  {
                    "reference": "urn:uuid:c50d512c-160a-42d5-a4ec-48e13e2dad8c"
                  },
                  {
                    "reference": "urn:uuid:3ba3bcfe-1a64-470a-ae54-a89cdc229e05"
                  },
                  {
                    "reference": "urn:uuid:45bce2bb-fe6a-4923-9361-fc5c1ecd02f9"
                  },
                  {
                    "reference": "urn:uuid:38a0e97d-a943-45f4-a7d0-ef1ac023e8d9"
                  },
                  {
                    "reference": "urn:uuid:d3c7d189-6fb0-4bf0-92e6-d4c9098e470a"
                  }
                ],
                "text": {
                  "status": "generated",
                  "div": "<div xmlns=\"http://www.w3.org/1999/xhtml\"><h3>Chemistry</h3><table class=\"hl7__eu__lab__report\"><thead><tr><th>Test</th><th>22-MAR-2020</th><th>Reference&#xA0;Range</th><th>Unit</th></tr></thead><tbody><tr><td>Hemoglobin A1c/Hemoglobin.total in Blood</td><td>5.9</td><td>4 - 6</td><td>%</td></tr><tr><td>Glucose [Mass/volume] in Blood</td><td>74.9</td><td>70 - 99</td><td>mg/dL</td></tr><tr><td>Urea nitrogen [Mass/volume] in Blood</td><td>9.6</td><td>7 - 20</td><td>mg/dL</td></tr><tr><td>Creatinine [Mass/volume] in Blood</td><td><strong>1.4 H</strong></td><td>0.6 - 1.3</td><td>mg/dL</td></tr><tr><td>Calcium [Mass/volume] in Blood</td><td>10.1</td><td>8.5 - 10.5</td><td>mg/dL</td></tr><tr><td>Sodium [Moles/volume] in Blood</td><td>140.6</td><td>135 - 145</td><td>mmol/L</td></tr><tr><td>Potassium [Moles/volume] in Blood</td><td>5.1</td><td>3.5 - 5.2</td><td>mmol/L</td></tr><tr><td>Chloride [Moles/volume] in Blood</td><td>107.5</td><td>98 - 114</td><td>mmol/L</td></tr><tr><td>Carbon dioxide, total [Moles/volume] in Blood</td><td><strong>22.3 L</strong></td><td>24 - 29</td><td>mmol/L</td></tr><tr><td>Cholesterol [Mass/volume] in Serum or Plasma</td><td>175.5</td><td>125 - 200</td><td>mg/dL</td></tr><tr><td>Triglyceride [Mass/volume] in Serum or Plasma</td><td>139.5</td><td>40 - 150</td><td>mg/dL</td></tr><tr><td>Cholesterol in LDL [Mass/volume] in Serum or Plasma by Direct assay</td><td>120.2</td><td>0 - 130</td><td>mg/dL</td></tr><tr><td>Cholesterol in HDL [Mass/volume] in Serum or Plasma</td><td><strong>27.4 L</strong></td><td>40 - 100</td><td>mg/dL</td></tr></tbody></table></div>"
                },
                "title": "Chemistry"
              }
            ],
            "title": "Laboratory Report"
          },
          {
            "text": {
              "status": "generated",
              "div": "<div xmlns=\"http://www.w3.org/1999/xhtml\"><h3>Annotation</h3><table class=\"hl7__eu__lab__report\"><tr><th>Conclusion and Recommendations based on this report and previous findings known to us</th></tr><tr><td>Most parameters are within normal limits. There is a mildly elevated creatinine, which may suggest reduced kidney function or dehydration, and a low total CO₂, possibly indicating mild metabolic acidosis. HDL cholesterol is low, which increases cardiovascular risk. Hemoglobin A1c and glucose are normal. Recommend clinical correlation for renal function, hydration status, and cardiovascular risk assessment. Lifestyle modification to improve HDL is advised.</td></tr></table></div>"
            },
            "code": {
              "coding": [
                {
                  "system": "http://loinc.org",
                  "code": "48767-8",
                  "display": "Annotation comment"
                }
              ]
            },
            "title": "Annotation comment"
          }
        ],
        "status": "final",
        "subject": {
          "reference": "urn:uuid:0cbbfd0a-88dd-4aba-906c-fd086cdf064c",
          "display": "Benedetto Lombroso"
        },
        "date": "2020-03-22T08:22:02Z",
        "title": "Laboratory Report",
        "confidentiality": "N"
      }
    },
    {
      "fullUrl": "urn:uuid:9d2e99ca-522d-4e03-b0ab-5bb88028e159",
      "resource": {
        "resourceType": "DiagnosticReport",
        "id": "9d2e99ca-522d-4e03-b0ab-5bb88028e159",
        "meta": {
          "profile": [
            "http://hl7.eu/fhir/laboratory/StructureDefinition/DiagnosticReport-eu-lab"
          ]
        },
        "identifier": [
          {
            "assigner": {
              "display": "HL7 Europe"
            },
            "system": "urn:oid:2.16.840.1.113883.2.51.999",
            "value": "323c8628-7547-4d73-8b43-81400420315d"
          }
        ],
        "extension": [
          {
            "url": "http://hl7.org/fhir/5.0/StructureDefinition/extension-DiagnosticReport.composition",
            "valueReference": {
              "reference": "urn:uuid:2e9a8669-5b8a-475c-8227-9c9104680444"
            }
          }
        ],
        "category": [
          {
            "coding": [
              {
                "code": "26436-6",
                "system": "http://loinc.org",
                "display": "Laboratory studies (set)"
              }
            ]
          }
        ],
        "specimen": [
          {
            "reference": "urn:uuid:2b3727cf-d54d-4f84-9862-37b931b464d3"
          },
          {
            "reference": "urn:uuid:260e5be0-0567-49e1-8d3c-54302578a131"
          }
        ],
        "result": [
          {
            "reference": "urn:uuid:57326106-0c16-4698-964e-396178a26037"
          },
          {
            "reference": "urn:uuid:0502d22f-8d8c-443c-b198-ce049a511056"
          },
          {
            "reference": "urn:uuid:8d1bf025-a5f7-4c8d-ba5d-583c630ceed7"
          },
          {
            "reference": "urn:uuid:3440965b-b3b3-4526-a843-997cfde7fe70"
          },
          {
            "reference": "urn:uuid:a4669a5d-9c4f-444c-9071-187702b09a25"
          },
          {
            "reference": "urn:uuid:cc878224-5b29-4f42-9389-eed97b017962"
          },
          {
            "reference": "urn:uuid:14c0b2af-1a5a-42ab-b768-6b74f3f4f9b6"
          },
          {
            "reference": "urn:uuid:298b3d7e-2f33-4a63-9f8d-692c39aa3e06"
          },
          {
            "reference": "urn:uuid:c50d512c-160a-42d5-a4ec-48e13e2dad8c"
          },
          {
            "reference": "urn:uuid:3ba3bcfe-1a64-470a-ae54-a89cdc229e05"
          },
          {
            "reference": "urn:uuid:45bce2bb-fe6a-4923-9361-fc5c1ecd02f9"
          },
          {
            "reference": "urn:uuid:38a0e97d-a943-45f4-a7d0-ef1ac023e8d9"
          },
          {
            "reference": "urn:uuid:d3c7d189-6fb0-4bf0-92e6-d4c9098e470a"
          }
        ],
        "status": "registered",
        "code": {
          "coding": [
            {
              "code": "11502-2",
              "system": "http://loinc.org",
              "display": "Laboratory report"
            }
          ]
        },
        "subject": {
          "reference": "urn:uuid:0cbbfd0a-88dd-4aba-906c-fd086cdf064c",
          "display": "Benedetto Lombroso"
        }
      }
    },
    {
      "fullUrl": "urn:uuid:0cbbfd0a-88dd-4aba-906c-fd086cdf064c",
      "resource": {
        "resourceType": "Patient",
        "id": "0cbbfd0a-88dd-4aba-906c-fd086cdf064c",
        "meta": {
          "security": [
            {
              "system": "http://terminology.hl7.org/CodeSystem/v3-ActReason",
              "code": "HTEST"
            },
            {
              "system": "http://terminology.hl7.org/CodeSystem/v3-ActReason",
              "code": "TRAIN"
            }
          ],
          "tag": [
            {
              "system": "https://synderai.net/fhir/CodeSystem/tags",
              "code": "synthetic",
              "display": "SYNDERAI Synthetic data"
            }
          ],
          "profile": [
            "http://hl7.eu/fhir/base/StructureDefinition/patient-eu-core"
          ]
        },
        "identifier": [
          {
            "type": {
              "coding": [
                {
                  "code": "PT",
                  "system": "http://terminology.hl7.org/CodeSystem/v2-0203"
                }
              ]
            },
            "system": "http://ec.europa.eu/identifier/eci",
            "value": "9244-804304-9"
          },
          {
            "type": {
              "coding": [
                {
                  "code": "MR",
                  "system": "http://terminology.hl7.org/CodeSystem/v2-0203"
                }
              ]
            },
            "system": "http://local.setting.eu/identifier",
            "value": "320c36e6-403e-bb27-4756-8ebdd21bc0e5"
          }
        ],
        "name": [
          {
            "family": "Lombroso"
          },
          {
            "given": [
              "Benedetto"
            ]
          },
          {
            "text": "Benedetto Lombroso"
          }
        ],
        "address": [
          {
            "line": [
              "Stretto Zaccagnini, 924"
            ],
            "use": "home",
            "type": "physical",
            "postalCode": "37121",
            "city": "Verona",
            "country": "Italy"
          }
        ],
        "telecom": [
          {
            "system": "phone",
            "value": "+39 016691228"
          }
        ],
        "extension": [
          {
            "url": "http://hl7.org/fhir/StructureDefinition/patient-nationality",
            "valueCodeableConcept": {
              "coding": [
                {
                  "code": "IT",
                  "system": "http://hl7.org/fhir/ValueSet/country"
                }
              ]
            }
          }
        ],
        "text": {
          "status": "generated",
          "div": "<div xmlns=\"http://www.w3.org/1999/xhtml\"><table class=\"hl7__ips\"><tr><td>Benedetto Lombroso</td><td>male</td><td>07-May-1989</td></tr></table></div>"
        },
        "gender": "male",
        "birthDate": "1989-05-07"
      }
    },
    {
      "fullUrl": "urn:uuid:3ba417fe-f29b-487d-b6c5-453ace109dd8",
      "resource": {
        "resourceType": "ServiceRequest",
        "id": "3ba417fe-f29b-487d-b6c5-453ace109dd8",
        "meta": {
          "profile": [
            "http://hl7.eu/fhir/laboratory/StructureDefinition/ServiceRequest-eu-lab"
          ]
        },
        "identifier": [
          {
            "system": "http://example.org",
            "value": "196721ef-4d3f-4df2-ab57-85afb159a9cb"
          }
        ],
        "specimen": [
          {
            "reference": "urn:uuid:2b3727cf-d54d-4f84-9862-37b931b464d3"
          },
          {
            "reference": "urn:uuid:260e5be0-0567-49e1-8d3c-54302578a131"
          }
        ],
        "reasonCode": [
          {
            "coding": [
              {
                "code": "15777000",
                "system": "http://snomed.info/sct",
                "display": "Prediabetes"
              }
            ]
          },
          {
            "coding": [
              {
                "code": "271737000",
                "system": "http://snomed.info/sct",
                "display": "Anemia"
              }
            ]
          }
        ],
        "status": "active",
        "intent": "order",
        "code": {
          "coding": [
            {
              "code": "108252007",
              "system": "http://snomed.info/sct",
              "display": "Laboratory procedure"
            }
          ]
        },
        "subject": {
          "reference": "urn:uuid:0cbbfd0a-88dd-4aba-906c-fd086cdf064c",
          "display": "Benedetto Lombroso"
        },
        "requester": {
          "reference": "urn:uuid:546c052b-a7e9-46b4-87db-661d53c903d7"
        }
      }
    },
    {
      "fullUrl": "urn:uuid:546c052b-a7e9-46b4-87db-661d53c903d7",
      "resource": {
        "resourceType": "PractitionerRole",
        "id": "546c052b-a7e9-46b4-87db-661d53c903d7",
        "meta": {
          "profile": [
            "http://hl7.eu/fhir/base/StructureDefinition/practitionerRole-eu"
          ]
        },
        "text": {
          "status": "generated",
          "div": "<div xmlns=\"http://www.w3.org/1999/xhtml\">Provider Role Id: 546c052b-a7e9-46b4-87db-661d53c903d7</div>"
        },
        "organization": {
          "reference": "urn:uuid:0b5ca72a-ec59-45ed-9b75-af9c1706bce8"
        }
      }
    },
    {
      "fullUrl": "urn:uuid:0b5ca72a-ec59-45ed-9b75-af9c1706bce8",
      "resource": {
        "resourceType": "Organization",
        "id": "0b5ca72a-ec59-45ed-9b75-af9c1706bce8",
        "meta": {
          "profile": [
            "http://hl7.eu/fhir/base/StructureDefinition/organization-eu"
          ]
        },
        "identifier": [
          {
            "assigner": {
              "display": "HL7 Europe"
            },
            "system": "urn:oid:2.16.840.1.113883.2.51.999",
            "value": "c6829719-6948-4a60-b96b-49d09f8e9109"
          }
        ],
        "address": [
          {
            "line": [
              "Piazzale Aristide Stefani 1"
            ],
            "city": "Verona",
            "postalCode": "37124",
            "country": "Italy"
          }
        ],
        "text": {
          "status": "generated",
          "div": "<div xmlns=\"http://www.w3.org/1999/xhtml\">Provider Organization: Ospedale Civile Maggiore</div>"
        },
        "name": "Ospedale Civile Maggiore"
      }
    },
    {
      "fullUrl": "urn:uuid:2b3727cf-d54d-4f84-9862-37b931b464d3",
      "resource": {
        "resourceType": "Specimen",
        "id": "2b3727cf-d54d-4f84-9862-37b931b464d3",
        "meta": {
          "profile": [
            "http://hl7.eu/fhir/laboratory/StructureDefinition/Specimen-eu-lab"
          ]
        },
        "collection": {
          "collectedDateTime": "2020-03-22"
        },
        "text": {
          "status": "generated",
          "div": "<div xmlns=\"http://www.w3.org/1999/xhtml\"><table class=\"hl7__eu__lab__report\"><tr><th>Specimen</th><th>Collection Date</th></tr><tr><td>Whole blood specimen (specimen)</td><td><span class=\"nb\">22-Mar-2020</span></td></tr></table></div>"
        },
        "type": {
          "coding": [
            {
              "code": "258580003",
              "system": "http://snomed.info/sct",
              "display": "Whole blood specimen (specimen)"
            }
          ]
        }
      }
    },
    {
      "fullUrl": "urn:uuid:260e5be0-0567-49e1-8d3c-54302578a131",
      "resource": {
        "resourceType": "Specimen",
        "id": "260e5be0-0567-49e1-8d3c-54302578a131",
        "meta": {
          "profile": [
            "http://hl7.eu/fhir/laboratory/StructureDefinition/Specimen-eu-lab"
          ]
        },
        "collection": {
          "collectedDateTime": "2020-03-22"
        },
        "text": {
          "status": "generated",
          "div": "<div xmlns=\"http://www.w3.org/1999/xhtml\"><table class=\"hl7__eu__lab__report\"><tr><th>Specimen</th><th>Collection Date</th></tr><tr><td>Acellular blood (serum or plasma) specimen</td><td><span class=\"nb\">22-Mar-2020</span></td></tr></table></div>"
        },
        "type": {
          "coding": [
            {
              "code": "122592007",
              "system": "http://snomed.info/sct",
              "display": "Acellular blood (serum or plasma) specimen"
            }
          ]
        }
      }
    },
    {
      "fullUrl": "urn:uuid:57326106-0c16-4698-964e-396178a26037",
      "resource": {
        "resourceType": "Observation",
        "id": "57326106-0c16-4698-964e-396178a26037",
        "meta": {
          "profile": [
            "http://hl7.eu/fhir/laboratory/StructureDefinition/Observation-resultslab-eu-lab"
          ]
        },
        "performer": [
          {
            "display": "The Central European Lab"
          }
        ],
        "category": [
          {
            "coding": [
              {
                "system": "http://terminology.hl7.org/CodeSystem/observation-category",
                "code": "laboratory"
              }
            ]
          }
        ],
        "code": {
          "coding": [
            {
              "code": "4548-4",
              "system": "http://loinc.org",
              "display": "Hemoglobin A1c/Hemoglobin.total in Blood"
            }
          ],
          "text": "Hemoglobin A1c/Hemoglobin.total in Blood"
        },
        "valueQuantity": {
          "system": "http://unitsofmeasure.org",
          "value": 5.9,
          "unit": "%",
          "code": "%"
        },
        "referenceRange": [
          {
            "low": {
              "value": 4,
              "code": "%",
              "system": "http://unitsofmeasure.org"
            }
          },
          {
            "high": {
              "value": 6,
              "code": "%",
              "system": "http://unitsofmeasure.org"
            }
          }
        ],
        "text": {
          "status": "generated",
          "div": "<div xmlns=\"http://www.w3.org/1999/xhtml\"><table class=\"hl7__eu__lab__report\"><tr><th>Test</th><th>22-Mar-2020</th><th>Reference&#xA0;Range</th><th>Unit</th></tr><tr><td>Hemoglobin A1c/Hemoglobin.total in Blood</td><td>5.9</td><td>4 - 6</td><td></td><td>%</td></tr></table></div>"
        },
        "status": "final",
        "subject": {
          "reference": "urn:uuid:0cbbfd0a-88dd-4aba-906c-fd086cdf064c",
          "display": "Benedetto Lombroso"
        },
        "effectiveDateTime": "2020-03-22T07:22:02Z",
        "specimen": {
          "reference": "urn:uuid:2b3727cf-d54d-4f84-9862-37b931b464d3"
        }
      }
    },
    {
      "fullUrl": "urn:uuid:0502d22f-8d8c-443c-b198-ce049a511056",
      "resource": {
        "resourceType": "Observation",
        "id": "0502d22f-8d8c-443c-b198-ce049a511056",
        "meta": {
          "profile": [
            "http://hl7.eu/fhir/laboratory/StructureDefinition/Observation-resultslab-eu-lab"
          ]
        },
        "performer": [
          {
            "display": "The Central European Lab"
          }
        ],
        "category": [
          {
            "coding": [
              {
                "system": "http://terminology.hl7.org/CodeSystem/observation-category",
                "code": "laboratory"
              }
            ]
          }
        ],
        "code": {
          "coding": [
            {
              "code": "2339-0",
              "system": "http://loinc.org",
              "display": "Glucose [Mass/volume] in Blood"
            }
          ],
          "text": "Glucose [Mass/volume] in Blood"
        },
        "valueQuantity": {
          "system": "http://unitsofmeasure.org",
          "value": 74.9,
          "unit": "mg/dL",
          "code": "mg/dL"
        },
        "referenceRange": [
          {
            "low": {
              "value": 70,
              "code": "mg/dL",
              "system": "http://unitsofmeasure.org"
            }
          },
          {
            "high": {
              "value": 99,
              "code": "mg/dL",
              "system": "http://unitsofmeasure.org"
            }
          }
        ],
        "text": {
          "status": "generated",
          "div": "<div xmlns=\"http://www.w3.org/1999/xhtml\"><table class=\"hl7__eu__lab__report\"><tr><th>Test</th><th>22-Mar-2020</th><th>Reference&#xA0;Range</th><th>Unit</th></tr><tr><td>Glucose [Mass/volume] in Blood</td><td>74.9</td><td>70 - 99</td><td></td><td>mg/dL</td></tr></table></div>"
        },
        "status": "final",
        "subject": {
          "reference": "urn:uuid:0cbbfd0a-88dd-4aba-906c-fd086cdf064c",
          "display": "Benedetto Lombroso"
        },
        "effectiveDateTime": "2020-03-22T07:22:02Z",
        "specimen": {
          "reference": "urn:uuid:2b3727cf-d54d-4f84-9862-37b931b464d3"
        }
      }
    },
    {
      "fullUrl": "urn:uuid:8d1bf025-a5f7-4c8d-ba5d-583c630ceed7",
      "resource": {
        "resourceType": "Observation",
        "id": "8d1bf025-a5f7-4c8d-ba5d-583c630ceed7",
        "meta": {
          "profile": [
            "http://hl7.eu/fhir/laboratory/StructureDefinition/Observation-resultslab-eu-lab"
          ]
        },
        "performer": [
          {
            "display": "The Central European Lab"
          }
        ],
        "category": [
          {
            "coding": [
              {
                "system": "http://terminology.hl7.org/CodeSystem/observation-category",
                "code": "laboratory"
              }
            ]
          }
        ],
        "code": {
          "coding": [
            {
              "code": "6299-2",
              "system": "http://loinc.org",
              "display": "Urea nitrogen [Mass/volume] in Blood"
            }
          ],
          "text": "Urea nitrogen [Mass/volume] in Blood"
        },
        "valueQuantity": {
          "system": "http://unitsofmeasure.org",
          "value": 9.6,
          "unit": "mg/dL",
          "code": "mg/dL"
        },
        "referenceRange": [
          {
            "low": {
              "value": 7,
              "code": "mg/dL",
              "system": "http://unitsofmeasure.org"
            }
          },
          {
            "high": {
              "value": 20,
              "code": "mg/dL",
              "system": "http://unitsofmeasure.org"
            }
          }
        ],
        "text": {
          "status": "generated",
          "div": "<div xmlns=\"http://www.w3.org/1999/xhtml\"><table class=\"hl7__eu__lab__report\"><tr><th>Test</th><th>22-Mar-2020</th><th>Reference&#xA0;Range</th><th>Unit</th></tr><tr><td>Urea nitrogen [Mass/volume] in Blood</td><td>9.6</td><td>7 - 20</td><td></td><td>mg/dL</td></tr></table></div>"
        },
        "status": "final",
        "subject": {
          "reference": "urn:uuid:0cbbfd0a-88dd-4aba-906c-fd086cdf064c",
          "display": "Benedetto Lombroso"
        },
        "effectiveDateTime": "2020-03-22T07:22:02Z",
        "specimen": {
          "reference": "urn:uuid:2b3727cf-d54d-4f84-9862-37b931b464d3"
        }
      }
    },
    {
      "fullUrl": "urn:uuid:3440965b-b3b3-4526-a843-997cfde7fe70",
      "resource": {
        "resourceType": "Observation",
        "id": "3440965b-b3b3-4526-a843-997cfde7fe70",
        "meta": {
          "profile": [
            "http://hl7.eu/fhir/laboratory/StructureDefinition/Observation-resultslab-eu-lab"
          ]
        },
        "performer": [
          {
            "display": "The Central European Lab"
          }
        ],
        "category": [
          {
            "coding": [
              {
                "system": "http://terminology.hl7.org/CodeSystem/observation-category",
                "code": "laboratory"
              }
            ]
          }
        ],
        "code": {
          "coding": [
            {
              "code": "38483-4",
              "system": "http://loinc.org",
              "display": "Creatinine [Mass/volume] in Blood"
            }
          ],
          "text": "Creatinine [Mass/volume] in Blood"
        },
        "valueQuantity": {
          "system": "http://unitsofmeasure.org",
          "value": 1.4,
          "unit": "mg/dL",
          "code": "mg/dL"
        },
        "referenceRange": [
          {
            "low": {
              "value": 0.6,
              "code": "mg/dL",
              "system": "http://unitsofmeasure.org"
            }
          },
          {
            "high": {
              "value": 1.3,
              "code": "mg/dL",
              "system": "http://unitsofmeasure.org"
            }
          }
        ],
        "interpretation": [
          {
            "coding": [
              {
                "code": "H",
                "system": "http://terminology.hl7.org/CodeSystem/v3-ObservationInterpretation",
                "display": "High"
              }
            ]
          }
        ],
        "text": {
          "status": "generated",
          "div": "<div xmlns=\"http://www.w3.org/1999/xhtml\"><table class=\"hl7__eu__lab__report\"><tr><th>Test</th><th>22-Mar-2020</th><th>Reference&#xA0;Range</th><th>Unit</th></tr><tr><td>Creatinine [Mass/volume] in Blood</td><td>1.4</td><td>0.6 - 1.3</td><td>H</td><td>mg/dL</td></tr></table></div>"
        },
        "status": "final",
        "subject": {
          "reference": "urn:uuid:0cbbfd0a-88dd-4aba-906c-fd086cdf064c",
          "display": "Benedetto Lombroso"
        },
        "effectiveDateTime": "2020-03-22T07:22:02Z",
        "specimen": {
          "reference": "urn:uuid:2b3727cf-d54d-4f84-9862-37b931b464d3"
        }
      }
    },
    {
      "fullUrl": "urn:uuid:a4669a5d-9c4f-444c-9071-187702b09a25",
      "resource": {
        "resourceType": "Observation",
        "id": "a4669a5d-9c4f-444c-9071-187702b09a25",
        "meta": {
          "profile": [
            "http://hl7.eu/fhir/laboratory/StructureDefinition/Observation-resultslab-eu-lab"
          ]
        },
        "performer": [
          {
            "display": "The Central European Lab"
          }
        ],
        "category": [
          {
            "coding": [
              {
                "system": "http://terminology.hl7.org/CodeSystem/observation-category",
                "code": "laboratory"
              }
            ]
          }
        ],
        "code": {
          "coding": [
            {
              "code": "49765-1",
              "system": "http://loinc.org",
              "display": "Calcium [Mass/volume] in Blood"
            }
          ],
          "text": "Calcium [Mass/volume] in Blood"
        },
        "valueQuantity": {
          "system": "http://unitsofmeasure.org",
          "value": 10.1,
          "unit": "mg/dL",
          "code": "mg/dL"
        },
        "referenceRange": [
          {
            "low": {
              "value": 8.5,
              "code": "mg/dL",
              "system": "http://unitsofmeasure.org"
            }
          },
          {
            "high": {
              "value": 10.5,
              "code": "mg/dL",
              "system": "http://unitsofmeasure.org"
            }
          }
        ],
        "text": {
          "status": "generated",
          "div": "<div xmlns=\"http://www.w3.org/1999/xhtml\"><table class=\"hl7__eu__lab__report\"><tr><th>Test</th><th>22-Mar-2020</th><th>Reference&#xA0;Range</th><th>Unit</th></tr><tr><td>Calcium [Mass/volume] in Blood</td><td>10.1</td><td>8.5 - 10.5</td><td></td><td>mg/dL</td></tr></table></div>"
        },
        "status": "final",
        "subject": {
          "reference": "urn:uuid:0cbbfd0a-88dd-4aba-906c-fd086cdf064c",
          "display": "Benedetto Lombroso"
        },
        "effectiveDateTime": "2020-03-22T07:22:02Z",
        "specimen": {
          "reference": "urn:uuid:2b3727cf-d54d-4f84-9862-37b931b464d3"
        }
      }
    },
    {
      "fullUrl": "urn:uuid:cc878224-5b29-4f42-9389-eed97b017962",
      "resource": {
        "resourceType": "Observation",
        "id": "cc878224-5b29-4f42-9389-eed97b017962",
        "meta": {
          "profile": [
            "http://hl7.eu/fhir/laboratory/StructureDefinition/Observation-resultslab-eu-lab"
          ]
        },
        "performer": [
          {
            "display": "The Central European Lab"
          }
        ],
        "category": [
          {
            "coding": [
              {
                "system": "http://terminology.hl7.org/CodeSystem/observation-category",
                "code": "laboratory"
              }
            ]
          }
        ],
        "code": {
          "coding": [
            {
              "code": "2947-0",
              "system": "http://loinc.org",
              "display": "Sodium [Moles/volume] in Blood"
            }
          ],
          "text": "Sodium [Moles/volume] in Blood"
        },
        "valueQuantity": {
          "system": "http://unitsofmeasure.org",
          "value": 140.6,
          "unit": "mmol/L",
          "code": "mmol/L"
        },
        "referenceRange": [
          {
            "low": {
              "value": 135,
              "code": "mmol/L",
              "system": "http://unitsofmeasure.org"
            }
          },
          {
            "high": {
              "value": 145,
              "code": "mmol/L",
              "system": "http://unitsofmeasure.org"
            }
          }
        ],
        "text": {
          "status": "generated",
          "div": "<div xmlns=\"http://www.w3.org/1999/xhtml\"><table class=\"hl7__eu__lab__report\"><tr><th>Test</th><th>22-Mar-2020</th><th>Reference&#xA0;Range</th><th>Unit</th></tr><tr><td>Sodium [Moles/volume] in Blood</td><td>140.6</td><td>135 - 145</td><td></td><td>mmol/L</td></tr></table></div>"
        },
        "status": "final",
        "subject": {
          "reference": "urn:uuid:0cbbfd0a-88dd-4aba-906c-fd086cdf064c",
          "display": "Benedetto Lombroso"
        },
        "effectiveDateTime": "2020-03-22T07:22:02Z",
        "specimen": {
          "reference": "urn:uuid:2b3727cf-d54d-4f84-9862-37b931b464d3"
        }
      }
    },
    {
      "fullUrl": "urn:uuid:14c0b2af-1a5a-42ab-b768-6b74f3f4f9b6",
      "resource": {
        "resourceType": "Observation",
        "id": "14c0b2af-1a5a-42ab-b768-6b74f3f4f9b6",
        "meta": {
          "profile": [
            "http://hl7.eu/fhir/laboratory/StructureDefinition/Observation-resultslab-eu-lab"
          ]
        },
        "performer": [
          {
            "display": "The Central European Lab"
          }
        ],
        "category": [
          {
            "coding": [
              {
                "system": "http://terminology.hl7.org/CodeSystem/observation-category",
                "code": "laboratory"
              }
            ]
          }
        ],
        "code": {
          "coding": [
            {
              "code": "6298-4",
              "system": "http://loinc.org",
              "display": "Potassium [Moles/volume] in Blood"
            }
          ],
          "text": "Potassium [Moles/volume] in Blood"
        },
        "valueQuantity": {
          "system": "http://unitsofmeasure.org",
          "value": 5.1,
          "unit": "mmol/L",
          "code": "mmol/L"
        },
        "referenceRange": [
          {
            "low": {
              "value": 3.5,
              "code": "mmol/L",
              "system": "http://unitsofmeasure.org"
            }
          },
          {
            "high": {
              "value": 5.2,
              "code": "mmol/L",
              "system": "http://unitsofmeasure.org"
            }
          }
        ],
        "text": {
          "status": "generated",
          "div": "<div xmlns=\"http://www.w3.org/1999/xhtml\"><table class=\"hl7__eu__lab__report\"><tr><th>Test</th><th>22-Mar-2020</th><th>Reference&#xA0;Range</th><th>Unit</th></tr><tr><td>Potassium [Moles/volume] in Blood</td><td>5.1</td><td>3.5 - 5.2</td><td></td><td>mmol/L</td></tr></table></div>"
        },
        "status": "final",
        "subject": {
          "reference": "urn:uuid:0cbbfd0a-88dd-4aba-906c-fd086cdf064c",
          "display": "Benedetto Lombroso"
        },
        "effectiveDateTime": "2020-03-22T07:22:02Z",
        "specimen": {
          "reference": "urn:uuid:2b3727cf-d54d-4f84-9862-37b931b464d3"
        }
      }
    },
    {
      "fullUrl": "urn:uuid:298b3d7e-2f33-4a63-9f8d-692c39aa3e06",
      "resource": {
        "resourceType": "Observation",
        "id": "298b3d7e-2f33-4a63-9f8d-692c39aa3e06",
        "meta": {
          "profile": [
            "http://hl7.eu/fhir/laboratory/StructureDefinition/Observation-resultslab-eu-lab"
          ]
        },
        "performer": [
          {
            "display": "The Central European Lab"
          }
        ],
        "category": [
          {
            "coding": [
              {
                "system": "http://terminology.hl7.org/CodeSystem/observation-category",
                "code": "laboratory"
              }
            ]
          }
        ],
        "code": {
          "coding": [
            {
              "code": "2069-3",
              "system": "http://loinc.org",
              "display": "Chloride [Moles/volume] in Blood"
            }
          ],
          "text": "Chloride [Moles/volume] in Blood"
        },
        "valueQuantity": {
          "system": "http://unitsofmeasure.org",
          "value": 107.5,
          "unit": "mmol/L",
          "code": "mmol/L"
        },
        "referenceRange": [
          {
            "low": {
              "value": 98,
              "code": "mmol/L",
              "system": "http://unitsofmeasure.org"
            }
          },
          {
            "high": {
              "value": 114,
              "code": "mmol/L",
              "system": "http://unitsofmeasure.org"
            }
          }
        ],
        "text": {
          "status": "generated",
          "div": "<div xmlns=\"http://www.w3.org/1999/xhtml\"><table class=\"hl7__eu__lab__report\"><tr><th>Test</th><th>22-Mar-2020</th><th>Reference&#xA0;Range</th><th>Unit</th></tr><tr><td>Chloride [Moles/volume] in Blood</td><td>107.5</td><td>98 - 114</td><td></td><td>mmol/L</td></tr></table></div>"
        },
        "status": "final",
        "subject": {
          "reference": "urn:uuid:0cbbfd0a-88dd-4aba-906c-fd086cdf064c",
          "display": "Benedetto Lombroso"
        },
        "effectiveDateTime": "2020-03-22T07:22:02Z",
        "specimen": {
          "reference": "urn:uuid:2b3727cf-d54d-4f84-9862-37b931b464d3"
        }
      }
    },
    {
      "fullUrl": "urn:uuid:c50d512c-160a-42d5-a4ec-48e13e2dad8c",
      "resource": {
        "resourceType": "Observation",
        "id": "c50d512c-160a-42d5-a4ec-48e13e2dad8c",
        "meta": {
          "profile": [
            "http://hl7.eu/fhir/laboratory/StructureDefinition/Observation-resultslab-eu-lab"
          ]
        },
        "performer": [
          {
            "display": "The Central European Lab"
          }
        ],
        "category": [
          {
            "coding": [
              {
                "system": "http://terminology.hl7.org/CodeSystem/observation-category",
                "code": "laboratory"
              }
            ]
          }
        ],
        "code": {
          "coding": [
            {
              "code": "20565-8",
              "system": "http://loinc.org",
              "display": "Carbon dioxide, total [Moles/volume] in Blood"
            }
          ],
          "text": "Carbon dioxide, total [Moles/volume] in Blood"
        },
        "valueQuantity": {
          "system": "http://unitsofmeasure.org",
          "value": 22.3,
          "unit": "mmol/L",
          "code": "mmol/L"
        },
        "referenceRange": [
          {
            "low": {
              "value": 24,
              "code": "mmol/L",
              "system": "http://unitsofmeasure.org"
            }
          },
          {
            "high": {
              "value": 29,
              "code": "mmol/L",
              "system": "http://unitsofmeasure.org"
            }
          }
        ],
        "interpretation": [
          {
            "coding": [
              {
                "code": "L",
                "system": "http://terminology.hl7.org/CodeSystem/v3-ObservationInterpretation",
                "display": "Low"
              }
            ]
          }
        ],
        "text": {
          "status": "generated",
          "div": "<div xmlns=\"http://www.w3.org/1999/xhtml\"><table class=\"hl7__eu__lab__report\"><tr><th>Test</th><th>22-Mar-2020</th><th>Reference&#xA0;Range</th><th>Unit</th></tr><tr><td>Carbon dioxide, total [Moles/volume] in Blood</td><td>22.3</td><td>24 - 29</td><td>L</td><td>mmol/L</td></tr></table></div>"
        },
        "status": "final",
        "subject": {
          "reference": "urn:uuid:0cbbfd0a-88dd-4aba-906c-fd086cdf064c",
          "display": "Benedetto Lombroso"
        },
        "effectiveDateTime": "2020-03-22T07:22:02Z",
        "specimen": {
          "reference": "urn:uuid:2b3727cf-d54d-4f84-9862-37b931b464d3"
        }
      }
    },
    {
      "fullUrl": "urn:uuid:3ba3bcfe-1a64-470a-ae54-a89cdc229e05",
      "resource": {
        "resourceType": "Observation",
        "id": "3ba3bcfe-1a64-470a-ae54-a89cdc229e05",
        "meta": {
          "profile": [
            "http://hl7.eu/fhir/laboratory/StructureDefinition/Observation-resultslab-eu-lab"
          ]
        },
        "performer": [
          {
            "display": "The Central European Lab"
          }
        ],
        "category": [
          {
            "coding": [
              {
                "system": "http://terminology.hl7.org/CodeSystem/observation-category",
                "code": "laboratory"
              }
            ]
          }
        ],
        "code": {
          "coding": [
            {
              "code": "2093-3",
              "system": "http://loinc.org",
              "display": "Cholesterol [Mass/volume] in Serum or Plasma"
            }
          ],
          "text": "Cholesterol [Mass/volume] in Serum or Plasma"
        },
        "valueQuantity": {
          "system": "http://unitsofmeasure.org",
          "value": 175.5,
          "unit": "mg/dL",
          "code": "mg/dL"
        },
        "referenceRange": [
          {
            "low": {
              "value": 125,
              "code": "mg/dL",
              "system": "http://unitsofmeasure.org"
            }
          },
          {
            "high": {
              "value": 200,
              "code": "mg/dL",
              "system": "http://unitsofmeasure.org"
            }
          }
        ],
        "text": {
          "status": "generated",
          "div": "<div xmlns=\"http://www.w3.org/1999/xhtml\"><table class=\"hl7__eu__lab__report\"><tr><th>Test</th><th>22-Mar-2020</th><th>Reference&#xA0;Range</th><th>Unit</th></tr><tr><td>Cholesterol [Mass/volume] in Serum or Plasma</td><td>175.5</td><td>125 - 200</td><td></td><td>mg/dL</td></tr></table></div>"
        },
        "status": "final",
        "subject": {
          "reference": "urn:uuid:0cbbfd0a-88dd-4aba-906c-fd086cdf064c",
          "display": "Benedetto Lombroso"
        },
        "effectiveDateTime": "2020-03-22T07:22:02Z",
        "specimen": {
          "reference": "urn:uuid:260e5be0-0567-49e1-8d3c-54302578a131"
        }
      }
    },
    {
      "fullUrl": "urn:uuid:45bce2bb-fe6a-4923-9361-fc5c1ecd02f9",
      "resource": {
        "resourceType": "Observation",
        "id": "45bce2bb-fe6a-4923-9361-fc5c1ecd02f9",
        "meta": {
          "profile": [
            "http://hl7.eu/fhir/laboratory/StructureDefinition/Observation-resultslab-eu-lab"
          ]
        },
        "performer": [
          {
            "display": "The Central European Lab"
          }
        ],
        "category": [
          {
            "coding": [
              {
                "system": "http://terminology.hl7.org/CodeSystem/observation-category",
                "code": "laboratory"
              }
            ]
          }
        ],
        "code": {
          "coding": [
            {
              "code": "2571-8",
              "system": "http://loinc.org",
              "display": "Triglyceride [Mass/volume] in Serum or Plasma"
            }
          ],
          "text": "Triglyceride [Mass/volume] in Serum or Plasma"
        },
        "valueQuantity": {
          "system": "http://unitsofmeasure.org",
          "value": 139.5,
          "unit": "mg/dL",
          "code": "mg/dL"
        },
        "referenceRange": [
          {
            "low": {
              "value": 40,
              "code": "mg/dL",
              "system": "http://unitsofmeasure.org"
            }
          },
          {
            "high": {
              "value": 150,
              "code": "mg/dL",
              "system": "http://unitsofmeasure.org"
            }
          }
        ],
        "text": {
          "status": "generated",
          "div": "<div xmlns=\"http://www.w3.org/1999/xhtml\"><table class=\"hl7__eu__lab__report\"><tr><th>Test</th><th>22-Mar-2020</th><th>Reference&#xA0;Range</th><th>Unit</th></tr><tr><td>Triglyceride [Mass/volume] in Serum or Plasma</td><td>139.5</td><td>40 - 150</td><td></td><td>mg/dL</td></tr></table></div>"
        },
        "status": "final",
        "subject": {
          "reference": "urn:uuid:0cbbfd0a-88dd-4aba-906c-fd086cdf064c",
          "display": "Benedetto Lombroso"
        },
        "effectiveDateTime": "2020-03-22T07:22:02Z",
        "specimen": {
          "reference": "urn:uuid:260e5be0-0567-49e1-8d3c-54302578a131"
        }
      }
    },
    {
      "fullUrl": "urn:uuid:38a0e97d-a943-45f4-a7d0-ef1ac023e8d9",
      "resource": {
        "resourceType": "Observation",
        "id": "38a0e97d-a943-45f4-a7d0-ef1ac023e8d9",
        "meta": {
          "profile": [
            "http://hl7.eu/fhir/laboratory/StructureDefinition/Observation-resultslab-eu-lab"
          ]
        },
        "performer": [
          {
            "display": "The Central European Lab"
          }
        ],
        "category": [
          {
            "coding": [
              {
                "system": "http://terminology.hl7.org/CodeSystem/observation-category",
                "code": "laboratory"
              }
            ]
          }
        ],
        "code": {
          "coding": [
            {
              "code": "18262-6",
              "system": "http://loinc.org",
              "display": "Cholesterol in LDL [Mass/volume] in Serum or Plasma by Direct assay"
            }
          ],
          "text": "Cholesterol in LDL [Mass/volume] in Serum or Plasma by Direct assay"
        },
        "valueQuantity": {
          "system": "http://unitsofmeasure.org",
          "value": 120.2,
          "unit": "mg/dL",
          "code": "mg/dL"
        },
        "referenceRange": [
          {
            "low": {
              "value": 0,
              "code": "mg/dL",
              "system": "http://unitsofmeasure.org"
            }
          },
          {
            "high": {
              "value": 130,
              "code": "mg/dL",
              "system": "http://unitsofmeasure.org"
            }
          }
        ],
        "text": {
          "status": "generated",
          "div": "<div xmlns=\"http://www.w3.org/1999/xhtml\"><table class=\"hl7__eu__lab__report\"><tr><th>Test</th><th>22-Mar-2020</th><th>Reference&#xA0;Range</th><th>Unit</th></tr><tr><td>Cholesterol in LDL [Mass/volume] in Serum or Plasma by Direct assay</td><td>120.2</td><td>0 - 130</td><td></td><td>mg/dL</td></tr></table></div>"
        },
        "status": "final",
        "subject": {
          "reference": "urn:uuid:0cbbfd0a-88dd-4aba-906c-fd086cdf064c",
          "display": "Benedetto Lombroso"
        },
        "effectiveDateTime": "2020-03-22T07:22:02Z",
        "specimen": {
          "reference": "urn:uuid:260e5be0-0567-49e1-8d3c-54302578a131"
        }
      }
    },
    {
      "fullUrl": "urn:uuid:d3c7d189-6fb0-4bf0-92e6-d4c9098e470a",
      "resource": {
        "resourceType": "Observation",
        "id": "d3c7d189-6fb0-4bf0-92e6-d4c9098e470a",
        "meta": {
          "profile": [
            "http://hl7.eu/fhir/laboratory/StructureDefinition/Observation-resultslab-eu-lab"
          ]
        },
        "performer": [
          {
            "display": "The Central European Lab"
          }
        ],
        "category": [
          {
            "coding": [
              {
                "system": "http://terminology.hl7.org/CodeSystem/observation-category",
                "code": "laboratory"
              }
            ]
          }
        ],
        "code": {
          "coding": [
            {
              "code": "2085-9",
              "system": "http://loinc.org",
              "display": "Cholesterol in HDL [Mass/volume] in Serum or Plasma"
            }
          ],
          "text": "Cholesterol in HDL [Mass/volume] in Serum or Plasma"
        },
        "valueQuantity": {
          "system": "http://unitsofmeasure.org",
          "value": 27.4,
          "unit": "mg/dL",
          "code": "mg/dL"
        },
        "referenceRange": [
          {
            "low": {
              "value": 40,
              "code": "mg/dL",
              "system": "http://unitsofmeasure.org"
            }
          },
          {
            "high": {
              "value": 100,
              "code": "mg/dL",
              "system": "http://unitsofmeasure.org"
            }
          }
        ],
        "interpretation": [
          {
            "coding": [
              {
                "code": "L",
                "system": "http://terminology.hl7.org/CodeSystem/v3-ObservationInterpretation",
                "display": "Low"
              }
            ]
          }
        ],
        "text": {
          "status": "generated",
          "div": "<div xmlns=\"http://www.w3.org/1999/xhtml\"><table class=\"hl7__eu__lab__report\"><tr><th>Test</th><th>22-Mar-2020</th><th>Reference&#xA0;Range</th><th>Unit</th></tr><tr><td>Cholesterol in HDL [Mass/volume] in Serum or Plasma</td><td>27.4</td><td>40 - 100</td><td>L</td><td>mg/dL</td></tr></table></div>"
        },
        "status": "final",
        "subject": {
          "reference": "urn:uuid:0cbbfd0a-88dd-4aba-906c-fd086cdf064c",
          "display": "Benedetto Lombroso"
        },
        "effectiveDateTime": "2020-03-22T07:22:02Z",
        "specimen": {
          "reference": "urn:uuid:260e5be0-0567-49e1-8d3c-54302578a131"
        }
      }
    },
    {
      "fullUrl": "urn:uuid:11fdca50-5b65-488e-9350-a90679957d6a",
      "resource": {
        "resourceType": "Device",
        "id": "11fdca50-5b65-488e-9350-a90679957d6a",
        "deviceName": [
          {
            "name": "SYNDERAI Synthetic Generator",
            "type": "manufacturer-name"
          }
        ],
        "version": [
          {
            "value": "5.0"
          }
        ],
        "text": {
          "status": "generated",
          "div": "<div xmlns=\"http://www.w3.org/1999/xhtml\">SYNDERAI Synthetic Generator v5.0</div>"
        },
        "status": "active\"",
        "distinctIdentifier": "synderai-generator-50",
        "manufacturer": "SYNDERAI Project"
      }
    },
    {
      "fullUrl": "urn:uuid:baac81c9-331f-484e-9535-4457e3600720",
      "resource": {
        "resourceType": "Provenance",
        "id": "baac81c9-331f-484e-9535-4457e3600720",
        "target": [
          {
            "reference": "Patient/0cbbfd0a-88dd-4aba-906c-fd086cdf064c"
          },
          {
            "reference": "Bundle/90efc0d7-7d1b-46d0-8570-23f1fb5b1235"
          },
          {
            "reference": "Composition/08b6a7ec-1d42-498b-9970-f51e64652162"
          },
          {
            "reference": "PractitionerRole/0039bf7a-ecc2-4e57-885e-d8a45e0da397"
          },
          {
            "reference": "Practitioner/47cd056b-be96-436e-b2d4-8fcc9a214e4f"
          },
          {
            "reference": "PractitionerRole/546c052b-a7e9-46b4-87db-661d53c903d7"
          },
          {
            "reference": "Organization/0b5ca72a-ec59-45ed-9b75-af9c1706bce8"
          }
        ],
        "activity": {
          "text": "Synthetic Example Data Generation"
        },
        "policy": [
          "https://synderai.net/synderai-synthetic-data-policy"
        ],
        "agent": [
          {
            "type": {
              "text": "author"
            },
            "who": {
              "reference": "Device/11fdca50-5b65-488e-9350-a90679957d6a"
            }
          }
        ],
        "reason": [
          {
            "text": "Interoperability Testing and Training (non-clinical use)"
          }
        ],
        "text": {
          "status": "generated",
          "div": "<div xmlns=\"http://www.w3.org/1999/xhtml\">Provenance for SYNDERAI Synthetic Example Data Resource</div>"
        },
        "recorded": "2020-03-22T08:22:02Z"
      }
    },
    {
      "fullUrl": "urn:uuid:0039bf7a-ecc2-4e57-885e-d8a45e0da397",
      "resource": {
        "resourceType": "PractitionerRole",
        "id": "0039bf7a-ecc2-4e57-885e-d8a45e0da397",
        "meta": {
          "profile": [
            "http://hl7.eu/fhir/base/StructureDefinition/practitionerRole-eu"
          ]
        },
        "text": {
          "status": "generated",
          "div": "<div xmlns=\"http://www.w3.org/1999/xhtml\">Laboratory Role Id: 0039bf7a-ecc2-4e57-885e-d8a45e0da397</div>"
        },
        "practitioner": {
          "reference": "urn:uuid:47cd056b-be96-436e-b2d4-8fcc9a214e4f"
        }
      }
    },
    {
      "fullUrl": "urn:uuid:47cd056b-be96-436e-b2d4-8fcc9a214e4f",
      "resource": {
        "resourceType": "Practitioner",
        "id": "47cd056b-be96-436e-b2d4-8fcc9a214e4f",
        "meta": {
          "profile": [
            "http://hl7.eu/fhir/base/StructureDefinition/practitioner-eu"
          ]
        },
        "identifier": [
          {
            "assigner": {
              "display": "HL7 Europe"
            },
            "system": "urn:oid:2.16.840.1.113883.2.51.999",
            "value": "eb8c628d-6f4e-432a-9fb0-750309b69115"
          }
        ],
        "name": [
          {
            "prefix": [
              "dr"
            ],
            "given": [
              "Ex"
            ],
            "family": "Ample"
          }
        ],
        "address": [
          {
            "line": [
              "Laboratoire Central Européenne",
              "Boulevard du Jardin Botanique 32"
            ],
            "postalCode": "1000",
            "city": "Brussels",
            "country": "Belgium"
          }
        ],
        "text": {
          "status": "generated",
          "div": "<div xmlns=\"http://www.w3.org/1999/xhtml\">Laboratory: Laboratoire Central Européenne, 1000 Brussels, Belgium</div>"
        }
      }
    }
  ],
  "type": "document",
  "timestamp": "2020-03-22T08:22:02Z"
}
