{
  "resourceType": "Bundle",
  "id": "8b3ff40d-3f8a-4d5f-a360-495efa0f1058",
  "meta": {
    "profile": [
      "http://hl7.eu/fhir/laboratory/StructureDefinition/Bundle-eu-lab"
    ]
  },
  "identifier": {
    "assigner": {
      "display": "HL7 Europe"
    },
    "system": "urn:oid:2.16.840.1.113883.2.51.999",
    "value": "028192ea-4b8d-44b3-945f-afd713a48320"
  },
  "entry": [
    {
      "fullUrl": "urn:uuid:d05b1025-6645-4070-9c4d-95f7cc765711",
      "resource": {
        "resourceType": "Composition",
        "id": "d05b1025-6645-4070-9c4d-95f7cc765711",
        "meta": {
          "profile": [
            "http://hl7.eu/fhir/laboratory/StructureDefinition/Composition-eu-lab"
          ]
        },
        "identifier": {
          "assigner": {
            "display": "HL7 Europe"
          },
          "system": "urn:oid:2.16.840.1.113883.2.51.999",
          "value": "6557333f-a129-434b-a514-58a746d2d1ca"
        },
        "author": [
          {
            "reference": "urn:uuid:293b3d2f-be48-4472-abd6-dc02cf40a951"
          }
        ],
        "category": [
          {
            "coding": [
              {
                "code": "26436-6",
                "system": "http://loinc.org",
                "display": "Laboratory studies (set)"
              }
            ]
          }
        ],
        "type": {
          "coding": [
            {
              "code": "11502-2",
              "system": "http://loinc.org",
              "display": "Laboratory report"
            }
          ],
          "text": "Laboratory Report"
        },
        "section": [
          {
            "code": {
              "coding": [
                {
                  "code": "26436-6",
                  "system": "http://loinc.org",
                  "display": "Laboratory studies (set)"
                }
              ],
              "text": "Laboratory studies"
            },
            "section": [
              {
                "code": {
                  "coding": [
                    {
                      "code": "$18719-5",
                      "system": "http://loinc.org",
                      "display": "Chemistry studies (set)"
                    }
                  ],
                  "text": "Chemistry"
                },
                "entry": [
                  {
                    "reference": "urn:uuid:558f46c4-727f-4e14-b919-4e7a2144edc1"
                  },
                  {
                    "reference": "urn:uuid:cbda89eb-22d0-4425-8bcd-b91586c7aad8"
                  },
                  {
                    "reference": "urn:uuid:4118c1c6-7f97-4fab-98e3-1e9c756b5280"
                  },
                  {
                    "reference": "urn:uuid:d638184f-88e1-40b9-aa98-5d8bb9015ef9"
                  },
                  {
                    "reference": "urn:uuid:d6568873-1c3c-4e78-b362-024d44e67aa8"
                  },
                  {
                    "reference": "urn:uuid:5c40eb94-511c-4ec8-8a18-92c8cdd7f4d6"
                  },
                  {
                    "reference": "urn:uuid:9b42efcb-08e9-4709-a977-5be3866d43a0"
                  },
                  {
                    "reference": "urn:uuid:eb2d6b37-4092-457c-847c-6ff722c700c8"
                  },
                  {
                    "reference": "urn:uuid:d6c1cb7b-70da-42ea-b18c-e930e5f13252"
                  },
                  {
                    "reference": "urn:uuid:ec0cd567-c531-48ad-acbf-4548d0dd8535"
                  },
                  {
                    "reference": "urn:uuid:655b50a9-1b5f-44f5-8012-1bec4d3b0f34"
                  },
                  {
                    "reference": "urn:uuid:ea5462e4-f5c8-4dd0-aee9-e9aa75da9c7f"
                  },
                  {
                    "reference": "urn:uuid:2e370f22-46c0-409c-81c2-93f2e6b2490f"
                  }
                ],
                "text": {
                  "status": "generated",
                  "div": "<div xmlns=\"http://www.w3.org/1999/xhtml\"><h3>Chemistry</h3><table class=\"hl7__eu__lab__report\"><thead><tr><th>Test</th><th>06-AUG-2022</th><th>Reference&#xA0;Range</th><th>Unit</th></tr></thead><tbody><tr><td>Hemoglobin A1c/Hemoglobin.total in Blood</td><td>6.0</td><td>4.3 - 6.4</td><td>%</td></tr><tr><td>Glucose [Mass/volume] in Blood</td><td>99.9</td><td>70 - 140</td><td>mg/dL</td></tr><tr><td>Urea nitrogen [Mass/volume] in Blood</td><td>14.8</td><td>7 - 20</td><td>mg/dL</td></tr><tr><td>Creatinine [Mass/volume] in Blood</td><td><strong>1.4 H</strong></td><td>0.6 - 1.3</td><td>mg/dL</td></tr><tr><td>Calcium [Mass/volume] in Blood</td><td>10.1</td><td>8.5 - 10.5</td><td>mg/dL</td></tr><tr><td>Sodium [Moles/volume] in Blood</td><td>138.8</td><td>135 - 145</td><td>mmol/L</td></tr><tr><td>Potassium [Moles/volume] in Blood</td><td>4.0</td><td>3.5 - 5.3</td><td>mmol/L</td></tr><tr><td>Chloride [Moles/volume] in Blood</td><td>108.3</td><td>98 - 110</td><td>mmol/L</td></tr><tr><td>Carbon dioxide, total [Moles/volume] in Blood</td><td>23.2</td><td>22 - 29</td><td>mmol/L</td></tr><tr><td>Cholesterol [Mass/volume] in Serum or Plasma</td><td>161.0</td><td>125 - 200</td><td>mg/dL</td></tr><tr><td>Triglyceride [Mass/volume] in Serum or Plasma</td><td>135.5</td><td>0 - 150</td><td>mg/dL</td></tr><tr><td>Cholesterol in LDL [Mass/volume] in Serum or Plasma by Direct assay</td><td>74.2</td><td>0 - 130</td><td>mg/dL</td></tr><tr><td>Cholesterol in HDL [Mass/volume] in Serum or Plasma</td><td>59.7</td><td>40 - 60</td><td>mg/dL</td></tr></tbody></table></div>"
                },
                "title": "Chemistry"
              }
            ],
            "title": "Laboratory Report"
          },
          {
            "text": {
              "status": "generated",
              "div": "<div xmlns=\"http://www.w3.org/1999/xhtml\"><h3>Annotation</h3><table class=\"hl7__eu__lab__report\"><tr><th>Conclusion and Recommendations based on this report and previous findings known to us</th></tr><tr><td>All results are within normal limits except for a mildly elevated creatinine, which may suggest early renal impairment or dehydration. Glucose metabolism and lipid profile are within target ranges. Recommend correlating creatinine with clinical context, reviewing renal function trend, and ensuring adequate hydration. No acute laboratory concerns identified.</td></tr></table></div>"
            },
            "code": {
              "coding": [
                {
                  "system": "http://loinc.org",
                  "code": "48767-8",
                  "display": "Annotation comment"
                }
              ]
            },
            "title": "Annotation comment"
          }
        ],
        "status": "final",
        "subject": {
          "reference": "urn:uuid:05a3f8fe-2cbe-44dc-906c-60b37f41d626",
          "display": "Andrzej Frydrychowicz"
        },
        "date": "2022-08-06T23:33:04Z",
        "title": "Laboratory Report",
        "confidentiality": "N"
      }
    },
    {
      "fullUrl": "urn:uuid:571028ec-c8fa-415e-9488-ba721b599bf1",
      "resource": {
        "resourceType": "DiagnosticReport",
        "id": "571028ec-c8fa-415e-9488-ba721b599bf1",
        "meta": {
          "profile": [
            "http://hl7.eu/fhir/laboratory/StructureDefinition/DiagnosticReport-eu-lab"
          ]
        },
        "identifier": [
          {
            "assigner": {
              "display": "HL7 Europe"
            },
            "system": "urn:oid:2.16.840.1.113883.2.51.999",
            "value": "261ca326-84ab-4462-9610-49b5b06d27df"
          }
        ],
        "extension": [
          {
            "url": "http://hl7.org/fhir/5.0/StructureDefinition/extension-DiagnosticReport.composition",
            "valueReference": {
              "reference": "urn:uuid:6557333f-a129-434b-a514-58a746d2d1ca"
            }
          }
        ],
        "category": [
          {
            "coding": [
              {
                "code": "26436-6",
                "system": "http://loinc.org",
                "display": "Laboratory studies (set)"
              }
            ]
          }
        ],
        "specimen": [
          {
            "reference": "urn:uuid:8e8c4f9d-a2f6-4d0e-8f7f-4dc3989d54c6"
          },
          {
            "reference": "urn:uuid:db441dfe-ced8-4893-842a-909ecc449e12"
          }
        ],
        "result": [
          {
            "reference": "urn:uuid:558f46c4-727f-4e14-b919-4e7a2144edc1"
          },
          {
            "reference": "urn:uuid:cbda89eb-22d0-4425-8bcd-b91586c7aad8"
          },
          {
            "reference": "urn:uuid:4118c1c6-7f97-4fab-98e3-1e9c756b5280"
          },
          {
            "reference": "urn:uuid:d638184f-88e1-40b9-aa98-5d8bb9015ef9"
          },
          {
            "reference": "urn:uuid:d6568873-1c3c-4e78-b362-024d44e67aa8"
          },
          {
            "reference": "urn:uuid:5c40eb94-511c-4ec8-8a18-92c8cdd7f4d6"
          },
          {
            "reference": "urn:uuid:9b42efcb-08e9-4709-a977-5be3866d43a0"
          },
          {
            "reference": "urn:uuid:eb2d6b37-4092-457c-847c-6ff722c700c8"
          },
          {
            "reference": "urn:uuid:d6c1cb7b-70da-42ea-b18c-e930e5f13252"
          },
          {
            "reference": "urn:uuid:ec0cd567-c531-48ad-acbf-4548d0dd8535"
          },
          {
            "reference": "urn:uuid:655b50a9-1b5f-44f5-8012-1bec4d3b0f34"
          },
          {
            "reference": "urn:uuid:ea5462e4-f5c8-4dd0-aee9-e9aa75da9c7f"
          },
          {
            "reference": "urn:uuid:2e370f22-46c0-409c-81c2-93f2e6b2490f"
          }
        ],
        "status": "registered",
        "code": {
          "coding": [
            {
              "code": "11502-2",
              "system": "http://loinc.org",
              "display": "Laboratory report"
            }
          ]
        },
        "subject": {
          "reference": "urn:uuid:05a3f8fe-2cbe-44dc-906c-60b37f41d626",
          "display": "Andrzej Frydrychowicz"
        }
      }
    },
    {
      "fullUrl": "urn:uuid:05a3f8fe-2cbe-44dc-906c-60b37f41d626",
      "resource": {
        "resourceType": "Patient",
        "id": "05a3f8fe-2cbe-44dc-906c-60b37f41d626",
        "meta": {
          "security": [
            {
              "system": "http://terminology.hl7.org/CodeSystem/v3-ActReason",
              "code": "HTEST"
            },
            {
              "system": "http://terminology.hl7.org/CodeSystem/v3-ActReason",
              "code": "TRAIN"
            }
          ],
          "tag": [
            {
              "system": "https://synderai.net/fhir/CodeSystem/tags",
              "code": "synthetic",
              "display": "SYNDERAI Synthetic data"
            }
          ],
          "profile": [
            "http://hl7.eu/fhir/base/StructureDefinition/patient-eu-core"
          ]
        },
        "identifier": [
          {
            "type": {
              "coding": [
                {
                  "code": "PT",
                  "system": "http://terminology.hl7.org/CodeSystem/v2-0203"
                }
              ]
            },
            "system": "http://ec.europa.eu/identifier/eci",
            "value": "7036-931598-4"
          },
          {
            "type": {
              "coding": [
                {
                  "code": "MR",
                  "system": "http://terminology.hl7.org/CodeSystem/v2-0203"
                }
              ]
            },
            "system": "http://local.setting.eu/identifier",
            "value": "c84bd820-cdcf-9bc1-d9ba-aa083a5eb400"
          }
        ],
        "name": [
          {
            "family": "Frydrychowicz"
          },
          {
            "given": [
              "Andrzej"
            ]
          },
          {
            "text": "Andrzej Frydrychowicz"
          }
        ],
        "address": [
          {
            "line": [
              "aleja Tulipanowa 94"
            ],
            "use": "home",
            "type": "physical",
            "postalCode": "21-040",
            "city": "Świdnik",
            "country": "Poland"
          }
        ],
        "telecom": [
          {
            "system": "phone",
            "value": "516 092 560"
          }
        ],
        "extension": [
          {
            "url": "http://hl7.org/fhir/StructureDefinition/patient-nationality",
            "valueCodeableConcept": {
              "coding": [
                {
                  "code": "PL",
                  "system": "http://hl7.org/fhir/ValueSet/country"
                }
              ]
            }
          }
        ],
        "text": {
          "status": "generated",
          "div": "<div xmlns=\"http://www.w3.org/1999/xhtml\"><table class=\"hl7__ips\"><tr><td>Andrzej Frydrychowicz</td><td>male</td><td>12-Apr-1974</td></tr></table></div>"
        },
        "gender": "male",
        "birthDate": "1974-04-12"
      }
    },
    {
      "fullUrl": "urn:uuid:c9f29576-0d35-4129-9d20-58b6e0929bc7",
      "resource": {
        "resourceType": "ServiceRequest",
        "id": "c9f29576-0d35-4129-9d20-58b6e0929bc7",
        "meta": {
          "profile": [
            "http://hl7.eu/fhir/laboratory/StructureDefinition/ServiceRequest-eu-lab"
          ]
        },
        "identifier": [
          {
            "system": "http://example.org",
            "value": "848a6870-7c8c-4a6b-9215-edfbff06f394"
          }
        ],
        "specimen": [
          {
            "reference": "urn:uuid:8e8c4f9d-a2f6-4d0e-8f7f-4dc3989d54c6"
          },
          {
            "reference": "urn:uuid:db441dfe-ced8-4893-842a-909ecc449e12"
          }
        ],
        "reasonCode": [
          {
            "coding": [
              {
                "code": "414545008",
                "system": "http://snomed.info/sct",
                "display": "Ischemic heart disease"
              }
            ]
          },
          {
            "coding": [
              {
                "code": "239873007",
                "system": "http://snomed.info/sct",
                "display": "Osteoarthritis of knee"
              }
            ]
          },
          {
            "coding": [
              {
                "code": "15777000",
                "system": "http://snomed.info/sct",
                "display": "Prediabetes"
              }
            ]
          },
          {
            "coding": [
              {
                "code": "271737000",
                "system": "http://snomed.info/sct",
                "display": "Anemia"
              }
            ]
          }
        ],
        "status": "active",
        "intent": "order",
        "code": {
          "coding": [
            {
              "code": "108252007",
              "system": "http://snomed.info/sct",
              "display": "Laboratory procedure"
            }
          ]
        },
        "subject": {
          "reference": "urn:uuid:05a3f8fe-2cbe-44dc-906c-60b37f41d626",
          "display": "Andrzej Frydrychowicz"
        },
        "requester": {
          "reference": "urn:uuid:6d20c900-be81-48f2-a20c-58abbe538a1c"
        }
      }
    },
    {
      "fullUrl": "urn:uuid:6d20c900-be81-48f2-a20c-58abbe538a1c",
      "resource": {
        "resourceType": "PractitionerRole",
        "id": "6d20c900-be81-48f2-a20c-58abbe538a1c",
        "meta": {
          "profile": [
            "http://hl7.eu/fhir/base/StructureDefinition/practitionerRole-eu"
          ]
        },
        "text": {
          "status": "generated",
          "div": "<div xmlns=\"http://www.w3.org/1999/xhtml\">Provider Role Id: 6d20c900-be81-48f2-a20c-58abbe538a1c</div>"
        },
        "organization": {
          "reference": "urn:uuid:45bd9a7c-21e2-4f39-9c40-8de5d81c33d3"
        }
      }
    },
    {
      "fullUrl": "urn:uuid:45bd9a7c-21e2-4f39-9c40-8de5d81c33d3",
      "resource": {
        "resourceType": "Organization",
        "id": "45bd9a7c-21e2-4f39-9c40-8de5d81c33d3",
        "meta": {
          "profile": [
            "http://hl7.eu/fhir/base/StructureDefinition/organization-eu"
          ]
        },
        "identifier": [
          {
            "assigner": {
              "display": "HL7 Europe"
            },
            "system": "urn:oid:2.16.840.1.113883.2.51.999",
            "value": "abe4058e-4bc6-4413-b008-3a8e8f291be3"
          }
        ],
        "address": [
          {
            "line": [
              "Aleja Lotników Polskich 82"
            ],
            "city": "Świdnik",
            "postalCode": "21-040",
            "country": "Poland"
          }
        ],
        "text": {
          "status": "generated",
          "div": "<div xmlns=\"http://www.w3.org/1999/xhtml\">Provider Organization: Lubelskie Centrum Diagnostyczne</div>"
        },
        "name": "Lubelskie Centrum Diagnostyczne"
      }
    },
    {
      "fullUrl": "urn:uuid:8e8c4f9d-a2f6-4d0e-8f7f-4dc3989d54c6",
      "resource": {
        "resourceType": "Specimen",
        "id": "8e8c4f9d-a2f6-4d0e-8f7f-4dc3989d54c6",
        "meta": {
          "profile": [
            "http://hl7.eu/fhir/laboratory/StructureDefinition/Specimen-eu-lab"
          ]
        },
        "collection": {
          "collectedDateTime": "2022-08-06"
        },
        "text": {
          "status": "generated",
          "div": "<div xmlns=\"http://www.w3.org/1999/xhtml\"><table class=\"hl7__eu__lab__report\"><tr><th>Specimen</th><th>Collection Date</th></tr><tr><td>Whole blood specimen (specimen)</td><td><span class=\"nb\">06-Aug-2022</span></td></tr></table></div>"
        },
        "type": {
          "coding": [
            {
              "code": "258580003",
              "system": "http://snomed.info/sct",
              "display": "Whole blood specimen (specimen)"
            }
          ]
        }
      }
    },
    {
      "fullUrl": "urn:uuid:db441dfe-ced8-4893-842a-909ecc449e12",
      "resource": {
        "resourceType": "Specimen",
        "id": "db441dfe-ced8-4893-842a-909ecc449e12",
        "meta": {
          "profile": [
            "http://hl7.eu/fhir/laboratory/StructureDefinition/Specimen-eu-lab"
          ]
        },
        "collection": {
          "collectedDateTime": "2022-08-06"
        },
        "text": {
          "status": "generated",
          "div": "<div xmlns=\"http://www.w3.org/1999/xhtml\"><table class=\"hl7__eu__lab__report\"><tr><th>Specimen</th><th>Collection Date</th></tr><tr><td>Acellular blood (serum or plasma) specimen</td><td><span class=\"nb\">06-Aug-2022</span></td></tr></table></div>"
        },
        "type": {
          "coding": [
            {
              "code": "122592007",
              "system": "http://snomed.info/sct",
              "display": "Acellular blood (serum or plasma) specimen"
            }
          ]
        }
      }
    },
    {
      "fullUrl": "urn:uuid:558f46c4-727f-4e14-b919-4e7a2144edc1",
      "resource": {
        "resourceType": "Observation",
        "id": "558f46c4-727f-4e14-b919-4e7a2144edc1",
        "meta": {
          "profile": [
            "http://hl7.eu/fhir/laboratory/StructureDefinition/Observation-resultslab-eu-lab"
          ]
        },
        "performer": [
          {
            "display": "The Central European Lab"
          }
        ],
        "category": [
          {
            "coding": [
              {
                "system": "http://terminology.hl7.org/CodeSystem/observation-category",
                "code": "laboratory"
              }
            ]
          }
        ],
        "code": {
          "coding": [
            {
              "code": "4548-4",
              "system": "http://loinc.org",
              "display": "Hemoglobin A1c/Hemoglobin.total in Blood"
            }
          ],
          "text": "Hemoglobin A1c/Hemoglobin.total in Blood"
        },
        "valueQuantity": {
          "system": "http://unitsofmeasure.org",
          "value": 6,
          "unit": "%",
          "code": "%"
        },
        "referenceRange": [
          {
            "low": {
              "value": 4.3,
              "code": "%",
              "system": "http://unitsofmeasure.org"
            }
          },
          {
            "high": {
              "value": 6.4,
              "code": "%",
              "system": "http://unitsofmeasure.org"
            }
          }
        ],
        "text": {
          "status": "generated",
          "div": "<div xmlns=\"http://www.w3.org/1999/xhtml\"><table class=\"hl7__eu__lab__report\"><tr><th>Test</th><th>06-Aug-2022</th><th>Reference&#xA0;Range</th><th>Unit</th></tr><tr><td>Hemoglobin A1c/Hemoglobin.total in Blood</td><td>6.0</td><td>4.3 - 6.4</td><td></td><td>%</td></tr></table></div>"
        },
        "status": "final",
        "subject": {
          "reference": "urn:uuid:05a3f8fe-2cbe-44dc-906c-60b37f41d626",
          "display": "Andrzej Frydrychowicz"
        },
        "effectiveDateTime": "2022-08-06T21:33:04Z",
        "specimen": {
          "reference": "urn:uuid:8e8c4f9d-a2f6-4d0e-8f7f-4dc3989d54c6"
        }
      }
    },
    {
      "fullUrl": "urn:uuid:cbda89eb-22d0-4425-8bcd-b91586c7aad8",
      "resource": {
        "resourceType": "Observation",
        "id": "cbda89eb-22d0-4425-8bcd-b91586c7aad8",
        "meta": {
          "profile": [
            "http://hl7.eu/fhir/laboratory/StructureDefinition/Observation-resultslab-eu-lab"
          ]
        },
        "performer": [
          {
            "display": "The Central European Lab"
          }
        ],
        "category": [
          {
            "coding": [
              {
                "system": "http://terminology.hl7.org/CodeSystem/observation-category",
                "code": "laboratory"
              }
            ]
          }
        ],
        "code": {
          "coding": [
            {
              "code": "2339-0",
              "system": "http://loinc.org",
              "display": "Glucose [Mass/volume] in Blood"
            }
          ],
          "text": "Glucose [Mass/volume] in Blood"
        },
        "valueQuantity": {
          "system": "http://unitsofmeasure.org",
          "value": 99.9,
          "unit": "mg/dL",
          "code": "mg/dL"
        },
        "referenceRange": [
          {
            "low": {
              "value": 70,
              "code": "mg/dL",
              "system": "http://unitsofmeasure.org"
            }
          },
          {
            "high": {
              "value": 140,
              "code": "mg/dL",
              "system": "http://unitsofmeasure.org"
            }
          }
        ],
        "text": {
          "status": "generated",
          "div": "<div xmlns=\"http://www.w3.org/1999/xhtml\"><table class=\"hl7__eu__lab__report\"><tr><th>Test</th><th>06-Aug-2022</th><th>Reference&#xA0;Range</th><th>Unit</th></tr><tr><td>Glucose [Mass/volume] in Blood</td><td>99.9</td><td>70 - 140</td><td></td><td>mg/dL</td></tr></table></div>"
        },
        "status": "final",
        "subject": {
          "reference": "urn:uuid:05a3f8fe-2cbe-44dc-906c-60b37f41d626",
          "display": "Andrzej Frydrychowicz"
        },
        "effectiveDateTime": "2022-08-06T21:33:04Z",
        "specimen": {
          "reference": "urn:uuid:8e8c4f9d-a2f6-4d0e-8f7f-4dc3989d54c6"
        }
      }
    },
    {
      "fullUrl": "urn:uuid:4118c1c6-7f97-4fab-98e3-1e9c756b5280",
      "resource": {
        "resourceType": "Observation",
        "id": "4118c1c6-7f97-4fab-98e3-1e9c756b5280",
        "meta": {
          "profile": [
            "http://hl7.eu/fhir/laboratory/StructureDefinition/Observation-resultslab-eu-lab"
          ]
        },
        "performer": [
          {
            "display": "The Central European Lab"
          }
        ],
        "category": [
          {
            "coding": [
              {
                "system": "http://terminology.hl7.org/CodeSystem/observation-category",
                "code": "laboratory"
              }
            ]
          }
        ],
        "code": {
          "coding": [
            {
              "code": "6299-2",
              "system": "http://loinc.org",
              "display": "Urea nitrogen [Mass/volume] in Blood"
            }
          ],
          "text": "Urea nitrogen [Mass/volume] in Blood"
        },
        "valueQuantity": {
          "system": "http://unitsofmeasure.org",
          "value": 14.8,
          "unit": "mg/dL",
          "code": "mg/dL"
        },
        "referenceRange": [
          {
            "low": {
              "value": 7,
              "code": "mg/dL",
              "system": "http://unitsofmeasure.org"
            }
          },
          {
            "high": {
              "value": 20,
              "code": "mg/dL",
              "system": "http://unitsofmeasure.org"
            }
          }
        ],
        "text": {
          "status": "generated",
          "div": "<div xmlns=\"http://www.w3.org/1999/xhtml\"><table class=\"hl7__eu__lab__report\"><tr><th>Test</th><th>06-Aug-2022</th><th>Reference&#xA0;Range</th><th>Unit</th></tr><tr><td>Urea nitrogen [Mass/volume] in Blood</td><td>14.8</td><td>7 - 20</td><td></td><td>mg/dL</td></tr></table></div>"
        },
        "status": "final",
        "subject": {
          "reference": "urn:uuid:05a3f8fe-2cbe-44dc-906c-60b37f41d626",
          "display": "Andrzej Frydrychowicz"
        },
        "effectiveDateTime": "2022-08-06T21:33:04Z",
        "specimen": {
          "reference": "urn:uuid:8e8c4f9d-a2f6-4d0e-8f7f-4dc3989d54c6"
        }
      }
    },
    {
      "fullUrl": "urn:uuid:d638184f-88e1-40b9-aa98-5d8bb9015ef9",
      "resource": {
        "resourceType": "Observation",
        "id": "d638184f-88e1-40b9-aa98-5d8bb9015ef9",
        "meta": {
          "profile": [
            "http://hl7.eu/fhir/laboratory/StructureDefinition/Observation-resultslab-eu-lab"
          ]
        },
        "performer": [
          {
            "display": "The Central European Lab"
          }
        ],
        "category": [
          {
            "coding": [
              {
                "system": "http://terminology.hl7.org/CodeSystem/observation-category",
                "code": "laboratory"
              }
            ]
          }
        ],
        "code": {
          "coding": [
            {
              "code": "38483-4",
              "system": "http://loinc.org",
              "display": "Creatinine [Mass/volume] in Blood"
            }
          ],
          "text": "Creatinine [Mass/volume] in Blood"
        },
        "valueQuantity": {
          "system": "http://unitsofmeasure.org",
          "value": 1.4,
          "unit": "mg/dL",
          "code": "mg/dL"
        },
        "referenceRange": [
          {
            "low": {
              "value": 0.6,
              "code": "mg/dL",
              "system": "http://unitsofmeasure.org"
            }
          },
          {
            "high": {
              "value": 1.3,
              "code": "mg/dL",
              "system": "http://unitsofmeasure.org"
            }
          }
        ],
        "interpretation": [
          {
            "coding": [
              {
                "code": "H",
                "system": "http://terminology.hl7.org/CodeSystem/v3-ObservationInterpretation",
                "display": "High"
              }
            ]
          }
        ],
        "text": {
          "status": "generated",
          "div": "<div xmlns=\"http://www.w3.org/1999/xhtml\"><table class=\"hl7__eu__lab__report\"><tr><th>Test</th><th>06-Aug-2022</th><th>Reference&#xA0;Range</th><th>Unit</th></tr><tr><td>Creatinine [Mass/volume] in Blood</td><td>1.4</td><td>0.6 - 1.3</td><td>H</td><td>mg/dL</td></tr></table></div>"
        },
        "status": "final",
        "subject": {
          "reference": "urn:uuid:05a3f8fe-2cbe-44dc-906c-60b37f41d626",
          "display": "Andrzej Frydrychowicz"
        },
        "effectiveDateTime": "2022-08-06T21:33:04Z",
        "specimen": {
          "reference": "urn:uuid:8e8c4f9d-a2f6-4d0e-8f7f-4dc3989d54c6"
        }
      }
    },
    {
      "fullUrl": "urn:uuid:d6568873-1c3c-4e78-b362-024d44e67aa8",
      "resource": {
        "resourceType": "Observation",
        "id": "d6568873-1c3c-4e78-b362-024d44e67aa8",
        "meta": {
          "profile": [
            "http://hl7.eu/fhir/laboratory/StructureDefinition/Observation-resultslab-eu-lab"
          ]
        },
        "performer": [
          {
            "display": "The Central European Lab"
          }
        ],
        "category": [
          {
            "coding": [
              {
                "system": "http://terminology.hl7.org/CodeSystem/observation-category",
                "code": "laboratory"
              }
            ]
          }
        ],
        "code": {
          "coding": [
            {
              "code": "49765-1",
              "system": "http://loinc.org",
              "display": "Calcium [Mass/volume] in Blood"
            }
          ],
          "text": "Calcium [Mass/volume] in Blood"
        },
        "valueQuantity": {
          "system": "http://unitsofmeasure.org",
          "value": 10.1,
          "unit": "mg/dL",
          "code": "mg/dL"
        },
        "referenceRange": [
          {
            "low": {
              "value": 8.5,
              "code": "mg/dL",
              "system": "http://unitsofmeasure.org"
            }
          },
          {
            "high": {
              "value": 10.5,
              "code": "mg/dL",
              "system": "http://unitsofmeasure.org"
            }
          }
        ],
        "text": {
          "status": "generated",
          "div": "<div xmlns=\"http://www.w3.org/1999/xhtml\"><table class=\"hl7__eu__lab__report\"><tr><th>Test</th><th>06-Aug-2022</th><th>Reference&#xA0;Range</th><th>Unit</th></tr><tr><td>Calcium [Mass/volume] in Blood</td><td>10.1</td><td>8.5 - 10.5</td><td></td><td>mg/dL</td></tr></table></div>"
        },
        "status": "final",
        "subject": {
          "reference": "urn:uuid:05a3f8fe-2cbe-44dc-906c-60b37f41d626",
          "display": "Andrzej Frydrychowicz"
        },
        "effectiveDateTime": "2022-08-06T21:33:04Z",
        "specimen": {
          "reference": "urn:uuid:8e8c4f9d-a2f6-4d0e-8f7f-4dc3989d54c6"
        }
      }
    },
    {
      "fullUrl": "urn:uuid:5c40eb94-511c-4ec8-8a18-92c8cdd7f4d6",
      "resource": {
        "resourceType": "Observation",
        "id": "5c40eb94-511c-4ec8-8a18-92c8cdd7f4d6",
        "meta": {
          "profile": [
            "http://hl7.eu/fhir/laboratory/StructureDefinition/Observation-resultslab-eu-lab"
          ]
        },
        "performer": [
          {
            "display": "The Central European Lab"
          }
        ],
        "category": [
          {
            "coding": [
              {
                "system": "http://terminology.hl7.org/CodeSystem/observation-category",
                "code": "laboratory"
              }
            ]
          }
        ],
        "code": {
          "coding": [
            {
              "code": "2947-0",
              "system": "http://loinc.org",
              "display": "Sodium [Moles/volume] in Blood"
            }
          ],
          "text": "Sodium [Moles/volume] in Blood"
        },
        "valueQuantity": {
          "system": "http://unitsofmeasure.org",
          "value": 138.8,
          "unit": "mmol/L",
          "code": "mmol/L"
        },
        "referenceRange": [
          {
            "low": {
              "value": 135,
              "code": "mmol/L",
              "system": "http://unitsofmeasure.org"
            }
          },
          {
            "high": {
              "value": 145,
              "code": "mmol/L",
              "system": "http://unitsofmeasure.org"
            }
          }
        ],
        "text": {
          "status": "generated",
          "div": "<div xmlns=\"http://www.w3.org/1999/xhtml\"><table class=\"hl7__eu__lab__report\"><tr><th>Test</th><th>06-Aug-2022</th><th>Reference&#xA0;Range</th><th>Unit</th></tr><tr><td>Sodium [Moles/volume] in Blood</td><td>138.8</td><td>135 - 145</td><td></td><td>mmol/L</td></tr></table></div>"
        },
        "status": "final",
        "subject": {
          "reference": "urn:uuid:05a3f8fe-2cbe-44dc-906c-60b37f41d626",
          "display": "Andrzej Frydrychowicz"
        },
        "effectiveDateTime": "2022-08-06T21:33:04Z",
        "specimen": {
          "reference": "urn:uuid:8e8c4f9d-a2f6-4d0e-8f7f-4dc3989d54c6"
        }
      }
    },
    {
      "fullUrl": "urn:uuid:9b42efcb-08e9-4709-a977-5be3866d43a0",
      "resource": {
        "resourceType": "Observation",
        "id": "9b42efcb-08e9-4709-a977-5be3866d43a0",
        "meta": {
          "profile": [
            "http://hl7.eu/fhir/laboratory/StructureDefinition/Observation-resultslab-eu-lab"
          ]
        },
        "performer": [
          {
            "display": "The Central European Lab"
          }
        ],
        "category": [
          {
            "coding": [
              {
                "system": "http://terminology.hl7.org/CodeSystem/observation-category",
                "code": "laboratory"
              }
            ]
          }
        ],
        "code": {
          "coding": [
            {
              "code": "6298-4",
              "system": "http://loinc.org",
              "display": "Potassium [Moles/volume] in Blood"
            }
          ],
          "text": "Potassium [Moles/volume] in Blood"
        },
        "valueQuantity": {
          "system": "http://unitsofmeasure.org",
          "value": 4,
          "unit": "mmol/L",
          "code": "mmol/L"
        },
        "referenceRange": [
          {
            "low": {
              "value": 3.5,
              "code": "mmol/L",
              "system": "http://unitsofmeasure.org"
            }
          },
          {
            "high": {
              "value": 5.3,
              "code": "mmol/L",
              "system": "http://unitsofmeasure.org"
            }
          }
        ],
        "text": {
          "status": "generated",
          "div": "<div xmlns=\"http://www.w3.org/1999/xhtml\"><table class=\"hl7__eu__lab__report\"><tr><th>Test</th><th>06-Aug-2022</th><th>Reference&#xA0;Range</th><th>Unit</th></tr><tr><td>Potassium [Moles/volume] in Blood</td><td>4.0</td><td>3.5 - 5.3</td><td></td><td>mmol/L</td></tr></table></div>"
        },
        "status": "final",
        "subject": {
          "reference": "urn:uuid:05a3f8fe-2cbe-44dc-906c-60b37f41d626",
          "display": "Andrzej Frydrychowicz"
        },
        "effectiveDateTime": "2022-08-06T21:33:04Z",
        "specimen": {
          "reference": "urn:uuid:8e8c4f9d-a2f6-4d0e-8f7f-4dc3989d54c6"
        }
      }
    },
    {
      "fullUrl": "urn:uuid:eb2d6b37-4092-457c-847c-6ff722c700c8",
      "resource": {
        "resourceType": "Observation",
        "id": "eb2d6b37-4092-457c-847c-6ff722c700c8",
        "meta": {
          "profile": [
            "http://hl7.eu/fhir/laboratory/StructureDefinition/Observation-resultslab-eu-lab"
          ]
        },
        "performer": [
          {
            "display": "The Central European Lab"
          }
        ],
        "category": [
          {
            "coding": [
              {
                "system": "http://terminology.hl7.org/CodeSystem/observation-category",
                "code": "laboratory"
              }
            ]
          }
        ],
        "code": {
          "coding": [
            {
              "code": "2069-3",
              "system": "http://loinc.org",
              "display": "Chloride [Moles/volume] in Blood"
            }
          ],
          "text": "Chloride [Moles/volume] in Blood"
        },
        "valueQuantity": {
          "system": "http://unitsofmeasure.org",
          "value": 108.3,
          "unit": "mmol/L",
          "code": "mmol/L"
        },
        "referenceRange": [
          {
            "low": {
              "value": 98,
              "code": "mmol/L",
              "system": "http://unitsofmeasure.org"
            }
          },
          {
            "high": {
              "value": 110,
              "code": "mmol/L",
              "system": "http://unitsofmeasure.org"
            }
          }
        ],
        "text": {
          "status": "generated",
          "div": "<div xmlns=\"http://www.w3.org/1999/xhtml\"><table class=\"hl7__eu__lab__report\"><tr><th>Test</th><th>06-Aug-2022</th><th>Reference&#xA0;Range</th><th>Unit</th></tr><tr><td>Chloride [Moles/volume] in Blood</td><td>108.3</td><td>98 - 110</td><td></td><td>mmol/L</td></tr></table></div>"
        },
        "status": "final",
        "subject": {
          "reference": "urn:uuid:05a3f8fe-2cbe-44dc-906c-60b37f41d626",
          "display": "Andrzej Frydrychowicz"
        },
        "effectiveDateTime": "2022-08-06T21:33:04Z",
        "specimen": {
          "reference": "urn:uuid:8e8c4f9d-a2f6-4d0e-8f7f-4dc3989d54c6"
        }
      }
    },
    {
      "fullUrl": "urn:uuid:d6c1cb7b-70da-42ea-b18c-e930e5f13252",
      "resource": {
        "resourceType": "Observation",
        "id": "d6c1cb7b-70da-42ea-b18c-e930e5f13252",
        "meta": {
          "profile": [
            "http://hl7.eu/fhir/laboratory/StructureDefinition/Observation-resultslab-eu-lab"
          ]
        },
        "performer": [
          {
            "display": "The Central European Lab"
          }
        ],
        "category": [
          {
            "coding": [
              {
                "system": "http://terminology.hl7.org/CodeSystem/observation-category",
                "code": "laboratory"
              }
            ]
          }
        ],
        "code": {
          "coding": [
            {
              "code": "20565-8",
              "system": "http://loinc.org",
              "display": "Carbon dioxide, total [Moles/volume] in Blood"
            }
          ],
          "text": "Carbon dioxide, total [Moles/volume] in Blood"
        },
        "valueQuantity": {
          "system": "http://unitsofmeasure.org",
          "value": 23.2,
          "unit": "mmol/L",
          "code": "mmol/L"
        },
        "referenceRange": [
          {
            "low": {
              "value": 22,
              "code": "mmol/L",
              "system": "http://unitsofmeasure.org"
            }
          },
          {
            "high": {
              "value": 29,
              "code": "mmol/L",
              "system": "http://unitsofmeasure.org"
            }
          }
        ],
        "text": {
          "status": "generated",
          "div": "<div xmlns=\"http://www.w3.org/1999/xhtml\"><table class=\"hl7__eu__lab__report\"><tr><th>Test</th><th>06-Aug-2022</th><th>Reference&#xA0;Range</th><th>Unit</th></tr><tr><td>Carbon dioxide, total [Moles/volume] in Blood</td><td>23.2</td><td>22 - 29</td><td></td><td>mmol/L</td></tr></table></div>"
        },
        "status": "final",
        "subject": {
          "reference": "urn:uuid:05a3f8fe-2cbe-44dc-906c-60b37f41d626",
          "display": "Andrzej Frydrychowicz"
        },
        "effectiveDateTime": "2022-08-06T21:33:04Z",
        "specimen": {
          "reference": "urn:uuid:8e8c4f9d-a2f6-4d0e-8f7f-4dc3989d54c6"
        }
      }
    },
    {
      "fullUrl": "urn:uuid:ec0cd567-c531-48ad-acbf-4548d0dd8535",
      "resource": {
        "resourceType": "Observation",
        "id": "ec0cd567-c531-48ad-acbf-4548d0dd8535",
        "meta": {
          "profile": [
            "http://hl7.eu/fhir/laboratory/StructureDefinition/Observation-resultslab-eu-lab"
          ]
        },
        "performer": [
          {
            "display": "The Central European Lab"
          }
        ],
        "category": [
          {
            "coding": [
              {
                "system": "http://terminology.hl7.org/CodeSystem/observation-category",
                "code": "laboratory"
              }
            ]
          }
        ],
        "code": {
          "coding": [
            {
              "code": "2093-3",
              "system": "http://loinc.org",
              "display": "Cholesterol [Mass/volume] in Serum or Plasma"
            }
          ],
          "text": "Cholesterol [Mass/volume] in Serum or Plasma"
        },
        "valueQuantity": {
          "system": "http://unitsofmeasure.org",
          "value": 161,
          "unit": "mg/dL",
          "code": "mg/dL"
        },
        "referenceRange": [
          {
            "low": {
              "value": 125,
              "code": "mg/dL",
              "system": "http://unitsofmeasure.org"
            }
          },
          {
            "high": {
              "value": 200,
              "code": "mg/dL",
              "system": "http://unitsofmeasure.org"
            }
          }
        ],
        "text": {
          "status": "generated",
          "div": "<div xmlns=\"http://www.w3.org/1999/xhtml\"><table class=\"hl7__eu__lab__report\"><tr><th>Test</th><th>06-Aug-2022</th><th>Reference&#xA0;Range</th><th>Unit</th></tr><tr><td>Cholesterol [Mass/volume] in Serum or Plasma</td><td>161.0</td><td>125 - 200</td><td></td><td>mg/dL</td></tr></table></div>"
        },
        "status": "final",
        "subject": {
          "reference": "urn:uuid:05a3f8fe-2cbe-44dc-906c-60b37f41d626",
          "display": "Andrzej Frydrychowicz"
        },
        "effectiveDateTime": "2022-08-06T21:33:04Z",
        "specimen": {
          "reference": "urn:uuid:db441dfe-ced8-4893-842a-909ecc449e12"
        }
      }
    },
    {
      "fullUrl": "urn:uuid:655b50a9-1b5f-44f5-8012-1bec4d3b0f34",
      "resource": {
        "resourceType": "Observation",
        "id": "655b50a9-1b5f-44f5-8012-1bec4d3b0f34",
        "meta": {
          "profile": [
            "http://hl7.eu/fhir/laboratory/StructureDefinition/Observation-resultslab-eu-lab"
          ]
        },
        "performer": [
          {
            "display": "The Central European Lab"
          }
        ],
        "category": [
          {
            "coding": [
              {
                "system": "http://terminology.hl7.org/CodeSystem/observation-category",
                "code": "laboratory"
              }
            ]
          }
        ],
        "code": {
          "coding": [
            {
              "code": "2571-8",
              "system": "http://loinc.org",
              "display": "Triglyceride [Mass/volume] in Serum or Plasma"
            }
          ],
          "text": "Triglyceride [Mass/volume] in Serum or Plasma"
        },
        "valueQuantity": {
          "system": "http://unitsofmeasure.org",
          "value": 135.5,
          "unit": "mg/dL",
          "code": "mg/dL"
        },
        "referenceRange": [
          {
            "low": {
              "value": 0,
              "code": "mg/dL",
              "system": "http://unitsofmeasure.org"
            }
          },
          {
            "high": {
              "value": 150,
              "code": "mg/dL",
              "system": "http://unitsofmeasure.org"
            }
          }
        ],
        "text": {
          "status": "generated",
          "div": "<div xmlns=\"http://www.w3.org/1999/xhtml\"><table class=\"hl7__eu__lab__report\"><tr><th>Test</th><th>06-Aug-2022</th><th>Reference&#xA0;Range</th><th>Unit</th></tr><tr><td>Triglyceride [Mass/volume] in Serum or Plasma</td><td>135.5</td><td>0 - 150</td><td></td><td>mg/dL</td></tr></table></div>"
        },
        "status": "final",
        "subject": {
          "reference": "urn:uuid:05a3f8fe-2cbe-44dc-906c-60b37f41d626",
          "display": "Andrzej Frydrychowicz"
        },
        "effectiveDateTime": "2022-08-06T21:33:04Z",
        "specimen": {
          "reference": "urn:uuid:db441dfe-ced8-4893-842a-909ecc449e12"
        }
      }
    },
    {
      "fullUrl": "urn:uuid:ea5462e4-f5c8-4dd0-aee9-e9aa75da9c7f",
      "resource": {
        "resourceType": "Observation",
        "id": "ea5462e4-f5c8-4dd0-aee9-e9aa75da9c7f",
        "meta": {
          "profile": [
            "http://hl7.eu/fhir/laboratory/StructureDefinition/Observation-resultslab-eu-lab"
          ]
        },
        "performer": [
          {
            "display": "The Central European Lab"
          }
        ],
        "category": [
          {
            "coding": [
              {
                "system": "http://terminology.hl7.org/CodeSystem/observation-category",
                "code": "laboratory"
              }
            ]
          }
        ],
        "code": {
          "coding": [
            {
              "code": "18262-6",
              "system": "http://loinc.org",
              "display": "Cholesterol in LDL [Mass/volume] in Serum or Plasma by Direct assay"
            }
          ],
          "text": "Cholesterol in LDL [Mass/volume] in Serum or Plasma by Direct assay"
        },
        "valueQuantity": {
          "system": "http://unitsofmeasure.org",
          "value": 74.2,
          "unit": "mg/dL",
          "code": "mg/dL"
        },
        "referenceRange": [
          {
            "low": {
              "value": 0,
              "code": "mg/dL",
              "system": "http://unitsofmeasure.org"
            }
          },
          {
            "high": {
              "value": 130,
              "code": "mg/dL",
              "system": "http://unitsofmeasure.org"
            }
          }
        ],
        "text": {
          "status": "generated",
          "div": "<div xmlns=\"http://www.w3.org/1999/xhtml\"><table class=\"hl7__eu__lab__report\"><tr><th>Test</th><th>06-Aug-2022</th><th>Reference&#xA0;Range</th><th>Unit</th></tr><tr><td>Cholesterol in LDL [Mass/volume] in Serum or Plasma by Direct assay</td><td>74.2</td><td>0 - 130</td><td></td><td>mg/dL</td></tr></table></div>"
        },
        "status": "final",
        "subject": {
          "reference": "urn:uuid:05a3f8fe-2cbe-44dc-906c-60b37f41d626",
          "display": "Andrzej Frydrychowicz"
        },
        "effectiveDateTime": "2022-08-06T21:33:04Z",
        "specimen": {
          "reference": "urn:uuid:db441dfe-ced8-4893-842a-909ecc449e12"
        }
      }
    },
    {
      "fullUrl": "urn:uuid:2e370f22-46c0-409c-81c2-93f2e6b2490f",
      "resource": {
        "resourceType": "Observation",
        "id": "2e370f22-46c0-409c-81c2-93f2e6b2490f",
        "meta": {
          "profile": [
            "http://hl7.eu/fhir/laboratory/StructureDefinition/Observation-resultslab-eu-lab"
          ]
        },
        "performer": [
          {
            "display": "The Central European Lab"
          }
        ],
        "category": [
          {
            "coding": [
              {
                "system": "http://terminology.hl7.org/CodeSystem/observation-category",
                "code": "laboratory"
              }
            ]
          }
        ],
        "code": {
          "coding": [
            {
              "code": "2085-9",
              "system": "http://loinc.org",
              "display": "Cholesterol in HDL [Mass/volume] in Serum or Plasma"
            }
          ],
          "text": "Cholesterol in HDL [Mass/volume] in Serum or Plasma"
        },
        "valueQuantity": {
          "system": "http://unitsofmeasure.org",
          "value": 59.7,
          "unit": "mg/dL",
          "code": "mg/dL"
        },
        "referenceRange": [
          {
            "low": {
              "value": 40,
              "code": "mg/dL",
              "system": "http://unitsofmeasure.org"
            }
          },
          {
            "high": {
              "value": 60,
              "code": "mg/dL",
              "system": "http://unitsofmeasure.org"
            }
          }
        ],
        "text": {
          "status": "generated",
          "div": "<div xmlns=\"http://www.w3.org/1999/xhtml\"><table class=\"hl7__eu__lab__report\"><tr><th>Test</th><th>06-Aug-2022</th><th>Reference&#xA0;Range</th><th>Unit</th></tr><tr><td>Cholesterol in HDL [Mass/volume] in Serum or Plasma</td><td>59.7</td><td>40 - 60</td><td></td><td>mg/dL</td></tr></table></div>"
        },
        "status": "final",
        "subject": {
          "reference": "urn:uuid:05a3f8fe-2cbe-44dc-906c-60b37f41d626",
          "display": "Andrzej Frydrychowicz"
        },
        "effectiveDateTime": "2022-08-06T21:33:04Z",
        "specimen": {
          "reference": "urn:uuid:db441dfe-ced8-4893-842a-909ecc449e12"
        }
      }
    },
    {
      "fullUrl": "urn:uuid:cf4ea5b1-1329-4c77-be26-6ed4c838eb35",
      "resource": {
        "resourceType": "Device",
        "id": "cf4ea5b1-1329-4c77-be26-6ed4c838eb35",
        "deviceName": [
          {
            "name": "SYNDERAI Synthetic Generator",
            "type": "manufacturer-name"
          }
        ],
        "version": [
          {
            "value": "5.0"
          }
        ],
        "text": {
          "status": "generated",
          "div": "<div xmlns=\"http://www.w3.org/1999/xhtml\">SYNDERAI Synthetic Generator v5.0</div>"
        },
        "status": "active\"",
        "distinctIdentifier": "synderai-generator-50",
        "manufacturer": "SYNDERAI Project"
      }
    },
    {
      "fullUrl": "urn:uuid:d6cc3f15-6fe1-44c5-8abc-0262e7c1377c",
      "resource": {
        "resourceType": "Provenance",
        "id": "d6cc3f15-6fe1-44c5-8abc-0262e7c1377c",
        "target": [
          {
            "reference": "Patient/05a3f8fe-2cbe-44dc-906c-60b37f41d626"
          },
          {
            "reference": "Bundle/8b3ff40d-3f8a-4d5f-a360-495efa0f1058"
          },
          {
            "reference": "Composition/d05b1025-6645-4070-9c4d-95f7cc765711"
          },
          {
            "reference": "PractitionerRole/293b3d2f-be48-4472-abd6-dc02cf40a951"
          },
          {
            "reference": "Practitioner/f9eafd2c-61d5-4a6c-a39a-530866b85b2c"
          },
          {
            "reference": "PractitionerRole/6d20c900-be81-48f2-a20c-58abbe538a1c"
          },
          {
            "reference": "Organization/45bd9a7c-21e2-4f39-9c40-8de5d81c33d3"
          }
        ],
        "activity": {
          "text": "Synthetic Example Data Generation"
        },
        "policy": [
          "https://synderai.net/synderai-synthetic-data-policy"
        ],
        "agent": [
          {
            "type": {
              "text": "author"
            },
            "who": {
              "reference": "Device/cf4ea5b1-1329-4c77-be26-6ed4c838eb35"
            }
          }
        ],
        "reason": [
          {
            "text": "Interoperability Testing and Training (non-clinical use)"
          }
        ],
        "text": {
          "status": "generated",
          "div": "<div xmlns=\"http://www.w3.org/1999/xhtml\">Provenance for SYNDERAI Synthetic Example Data Resource</div>"
        },
        "recorded": "2022-08-06T23:33:04Z"
      }
    },
    {
      "fullUrl": "urn:uuid:293b3d2f-be48-4472-abd6-dc02cf40a951",
      "resource": {
        "resourceType": "PractitionerRole",
        "id": "293b3d2f-be48-4472-abd6-dc02cf40a951",
        "meta": {
          "profile": [
            "http://hl7.eu/fhir/base/StructureDefinition/practitionerRole-eu"
          ]
        },
        "text": {
          "status": "generated",
          "div": "<div xmlns=\"http://www.w3.org/1999/xhtml\">Laboratory Role Id: 293b3d2f-be48-4472-abd6-dc02cf40a951</div>"
        },
        "practitioner": {
          "reference": "urn:uuid:f9eafd2c-61d5-4a6c-a39a-530866b85b2c"
        }
      }
    },
    {
      "fullUrl": "urn:uuid:f9eafd2c-61d5-4a6c-a39a-530866b85b2c",
      "resource": {
        "resourceType": "Practitioner",
        "id": "f9eafd2c-61d5-4a6c-a39a-530866b85b2c",
        "meta": {
          "profile": [
            "http://hl7.eu/fhir/base/StructureDefinition/practitioner-eu"
          ]
        },
        "identifier": [
          {
            "assigner": {
              "display": "HL7 Europe"
            },
            "system": "urn:oid:2.16.840.1.113883.2.51.999",
            "value": "f5d84cad-d0ef-4bb3-8fb6-451f4a3cbd36"
          }
        ],
        "name": [
          {
            "prefix": [
              "dr"
            ],
            "given": [
              "Ex"
            ],
            "family": "Ample"
          }
        ],
        "address": [
          {
            "line": [
              "Laboratoire Central Européenne",
              "Boulevard du Jardin Botanique 32"
            ],
            "postalCode": "1000",
            "city": "Brussels",
            "country": "Belgium"
          }
        ],
        "text": {
          "status": "generated",
          "div": "<div xmlns=\"http://www.w3.org/1999/xhtml\">Laboratory: Laboratoire Central Européenne, 1000 Brussels, Belgium</div>"
        }
      }
    }
  ],
  "type": "document",
  "timestamp": "2022-08-06T23:33:04Z"
}
