{
  "resourceType": "Bundle",
  "id": "ea5e8723-1515-4917-af0b-133139da2eb5",
  "meta": {
    "profile": [
      "http://hl7.eu/fhir/laboratory/StructureDefinition/Bundle-eu-lab"
    ]
  },
  "identifier": {
    "assigner": {
      "display": "HL7 Europe"
    },
    "system": "urn:oid:2.16.840.1.113883.2.51.999",
    "value": "44e6080c-5977-4d67-ad9e-7970b1da0fbe"
  },
  "entry": [
    {
      "fullUrl": "urn:uuid:b472b75b-13bf-4000-bbde-1d9498a3b581",
      "resource": {
        "resourceType": "Composition",
        "id": "b472b75b-13bf-4000-bbde-1d9498a3b581",
        "meta": {
          "profile": [
            "http://hl7.eu/fhir/laboratory/StructureDefinition/Composition-eu-lab"
          ]
        },
        "identifier": {
          "assigner": {
            "display": "HL7 Europe"
          },
          "system": "urn:oid:2.16.840.1.113883.2.51.999",
          "value": "deb9f672-77fb-4f4f-908b-0358856a2a91"
        },
        "author": [
          {
            "reference": "urn:uuid:0de3a146-757a-46b5-951a-c562ef6d6fb3"
          }
        ],
        "category": [
          {
            "coding": [
              {
                "code": "26436-6",
                "system": "http://loinc.org",
                "display": "Laboratory studies (set)"
              }
            ]
          }
        ],
        "type": {
          "coding": [
            {
              "code": "11502-2",
              "system": "http://loinc.org",
              "display": "Laboratory report"
            }
          ],
          "text": "Laboratory Report"
        },
        "section": [
          {
            "code": {
              "coding": [
                {
                  "code": "26436-6",
                  "system": "http://loinc.org",
                  "display": "Laboratory studies (set)"
                }
              ],
              "text": "Laboratory studies"
            },
            "section": [
              {
                "code": {
                  "coding": [
                    {
                      "code": "$18723-7",
                      "system": "http://loinc.org",
                      "display": "Hematology studies (set)"
                    }
                  ],
                  "text": "Hematology"
                },
                "entry": [
                  {
                    "reference": "urn:uuid:e78568f4-7d5d-463b-8996-92150ad2cd27"
                  },
                  {
                    "reference": "urn:uuid:346d6de4-c001-4a23-8ac8-3969ae636ba4"
                  },
                  {
                    "reference": "urn:uuid:f4a0cfea-2239-4d17-bae8-07d9997bb006"
                  },
                  {
                    "reference": "urn:uuid:bd43f16f-382c-4aa2-9289-0c918c10a371"
                  },
                  {
                    "reference": "urn:uuid:f29625b0-0a27-41c9-b353-6382187bf626"
                  },
                  {
                    "reference": "urn:uuid:c0d939a6-9fee-4cb4-9f89-caf0e26ed25c"
                  },
                  {
                    "reference": "urn:uuid:9fcc41ec-567b-4cbc-824d-58e7576175df"
                  },
                  {
                    "reference": "urn:uuid:f9119721-00dc-4fdb-8c61-665486255c37"
                  },
                  {
                    "reference": "urn:uuid:0bfb7e33-eeb2-4824-9243-4c41dacbc5ca"
                  },
                  {
                    "reference": "urn:uuid:14998083-4918-4070-8094-4b5a9f04df7c"
                  },
                  {
                    "reference": "urn:uuid:f74b4ef3-59e8-46cc-a8c5-39930f914549"
                  }
                ],
                "text": {
                  "status": "generated",
                  "div": "<div xmlns=\"http://www.w3.org/1999/xhtml\"><h3>Hematology</h3><table class=\"hl7__eu__lab__report\"><thead><tr><th>Test</th><th>18-AUG-2018</th><th>Reference&#xA0;Range</th><th>Unit</th></tr></thead><tbody><tr><td>Leukocytes [#/volume] in Blood by Automated count</td><td>6.3</td><td>3.5 - 10.5</td><td>10*3/uL</td></tr><tr><td>Erythrocytes [#/volume] in Blood by Automated count</td><td>4.8</td><td>4.5 - 6.2</td><td>10*6/uL</td></tr><tr><td>Hemoglobin [Mass/volume] in Blood</td><td><strong>12.5 L</strong></td><td>14 - 18</td><td>g/dL</td></tr><tr><td>Hematocrit [Volume Fraction] of Blood by Automated count</td><td><strong>41.0 L</strong></td><td>42 - 52</td><td>%</td></tr><tr><td>MCV [Entitic volume] by Automated count</td><td>83.2</td><td>82 - 98</td><td>fL</td></tr><tr><td>MCH [Entitic mass] by Automated count</td><td>29.9</td><td>27 - 33.4</td><td>pg</td></tr><tr><td>MCHC [Mass/volume] by Automated count</td><td>34.6</td><td>31 - 37</td><td>g/dL</td></tr><tr><td>Erythrocyte distribution width [Entitic volume] by Automated count</td><td>41.5</td><td>35 - 55</td><td>fL</td></tr><tr><td>Platelets [#/volume] in Blood by Automated count</td><td>426.0</td><td>150 - 450</td><td>10*3/uL</td></tr><tr><td>Platelet distribution width [Entitic volume] in Blood by Automated count</td><td><strong>231.4 H</strong></td><td>13.4 - 17.4</td><td>fL</td></tr><tr><td>Platelet mean volume [Entitic volume] in Blood by Automated count</td><td>10.1</td><td>7.2 - 13.8</td><td>fL</td></tr></tbody></table></div>"
                },
                "title": "Hematology"
              }
            ],
            "title": "Laboratory Report"
          },
          {
            "text": {
              "status": "generated",
              "div": "<div xmlns=\"http://www.w3.org/1999/xhtml\"><h3>Annotation</h3><table class=\"hl7__eu__lab__report\"><tr><th>Conclusion and Recommendations based on this report and previous findings known to us</th></tr><tr><td>The patient shows mild normocytic, normochromic anemia (low hemoglobin and hematocrit, normal MCV and MCH), with normal leukocyte and platelet counts. The markedly elevated platelet distribution width may indicate increased platelet size variability, possibly reflecting reactive changes. Correlation with clinical context and further evaluation for anemia etiology is recommended.</td></tr></table></div>"
            },
            "code": {
              "coding": [
                {
                  "system": "http://loinc.org",
                  "code": "48767-8",
                  "display": "Annotation comment"
                }
              ]
            },
            "title": "Annotation comment"
          }
        ],
        "status": "final",
        "subject": {
          "reference": "urn:uuid:4d080b88-0ee5-442d-b3ef-dbdc30066ed1",
          "display": "Ondrej Machová"
        },
        "date": "2018-08-18T14:49:06Z",
        "title": "Laboratory Report",
        "confidentiality": "N"
      }
    },
    {
      "fullUrl": "urn:uuid:12adc215-2bf7-4636-aeba-33827c1c655b",
      "resource": {
        "resourceType": "DiagnosticReport",
        "id": "12adc215-2bf7-4636-aeba-33827c1c655b",
        "meta": {
          "profile": [
            "http://hl7.eu/fhir/laboratory/StructureDefinition/DiagnosticReport-eu-lab"
          ]
        },
        "identifier": [
          {
            "assigner": {
              "display": "HL7 Europe"
            },
            "system": "urn:oid:2.16.840.1.113883.2.51.999",
            "value": "1f3e36dd-5224-43b6-bdac-93c87521f656"
          }
        ],
        "extension": [
          {
            "url": "http://hl7.org/fhir/5.0/StructureDefinition/extension-DiagnosticReport.composition",
            "valueReference": {
              "reference": "urn:uuid:deb9f672-77fb-4f4f-908b-0358856a2a91"
            }
          }
        ],
        "category": [
          {
            "coding": [
              {
                "code": "26436-6",
                "system": "http://loinc.org",
                "display": "Laboratory studies (set)"
              }
            ]
          }
        ],
        "specimen": [
          {
            "reference": "urn:uuid:6a4eca43-bf82-4ba7-ace3-2b92f564f18e"
          },
          {
            "reference": "urn:uuid:6a4eca43-bf82-4ba7-ace3-2b92f564f18e"
          }
        ],
        "result": [
          {
            "reference": "urn:uuid:e78568f4-7d5d-463b-8996-92150ad2cd27"
          },
          {
            "reference": "urn:uuid:346d6de4-c001-4a23-8ac8-3969ae636ba4"
          },
          {
            "reference": "urn:uuid:f4a0cfea-2239-4d17-bae8-07d9997bb006"
          },
          {
            "reference": "urn:uuid:bd43f16f-382c-4aa2-9289-0c918c10a371"
          },
          {
            "reference": "urn:uuid:f29625b0-0a27-41c9-b353-6382187bf626"
          },
          {
            "reference": "urn:uuid:c0d939a6-9fee-4cb4-9f89-caf0e26ed25c"
          },
          {
            "reference": "urn:uuid:9fcc41ec-567b-4cbc-824d-58e7576175df"
          },
          {
            "reference": "urn:uuid:f9119721-00dc-4fdb-8c61-665486255c37"
          },
          {
            "reference": "urn:uuid:0bfb7e33-eeb2-4824-9243-4c41dacbc5ca"
          },
          {
            "reference": "urn:uuid:14998083-4918-4070-8094-4b5a9f04df7c"
          },
          {
            "reference": "urn:uuid:f74b4ef3-59e8-46cc-a8c5-39930f914549"
          }
        ],
        "status": "registered",
        "code": {
          "coding": [
            {
              "code": "11502-2",
              "system": "http://loinc.org",
              "display": "Laboratory report"
            }
          ]
        },
        "subject": {
          "reference": "urn:uuid:4d080b88-0ee5-442d-b3ef-dbdc30066ed1",
          "display": "Ondrej Machová"
        }
      }
    },
    {
      "fullUrl": "urn:uuid:4d080b88-0ee5-442d-b3ef-dbdc30066ed1",
      "resource": {
        "resourceType": "Patient",
        "id": "4d080b88-0ee5-442d-b3ef-dbdc30066ed1",
        "meta": {
          "security": [
            {
              "system": "http://terminology.hl7.org/CodeSystem/v3-ActReason",
              "code": "HTEST"
            },
            {
              "system": "http://terminology.hl7.org/CodeSystem/v3-ActReason",
              "code": "TRAIN"
            }
          ],
          "tag": [
            {
              "system": "https://synderai.net/fhir/CodeSystem/tags",
              "code": "synthetic",
              "display": "SYNDERAI Synthetic data"
            }
          ],
          "profile": [
            "http://hl7.eu/fhir/base/StructureDefinition/patient-eu-core"
          ]
        },
        "identifier": [
          {
            "type": {
              "coding": [
                {
                  "code": "PT",
                  "system": "http://terminology.hl7.org/CodeSystem/v2-0203"
                }
              ]
            },
            "system": "http://ec.europa.eu/identifier/eci",
            "value": "8798-429370-1"
          },
          {
            "type": {
              "coding": [
                {
                  "code": "MR",
                  "system": "http://terminology.hl7.org/CodeSystem/v2-0203"
                }
              ]
            },
            "system": "http://local.setting.eu/identifier",
            "value": "2b8bf475-e001-39fc-9880-7b5894bf6991"
          }
        ],
        "name": [
          {
            "family": "Machová"
          },
          {
            "given": [
              "Ondrej"
            ]
          },
          {
            "text": "Ondrej Machová"
          }
        ],
        "address": [
          {
            "line": [
              "Staromestská 5"
            ],
            "use": "home",
            "type": "physical",
            "postalCode": "95103",
            "city": "Hrušov",
            "country": "Slovakia"
          }
        ],
        "telecom": [
          {
            "system": "phone",
            "value": "00421 944 296 102"
          }
        ],
        "extension": [
          {
            "url": "http://hl7.org/fhir/StructureDefinition/patient-nationality",
            "valueCodeableConcept": {
              "coding": [
                {
                  "code": "SK",
                  "system": "http://hl7.org/fhir/ValueSet/country"
                }
              ]
            }
          }
        ],
        "text": {
          "status": "generated",
          "div": "<div xmlns=\"http://www.w3.org/1999/xhtml\"><table class=\"hl7__ips\"><tr><td>Ondrej Machová</td><td>male</td><td>31-Jul-1997</td></tr></table></div>"
        },
        "gender": "male",
        "birthDate": "1997-07-31"
      }
    },
    {
      "fullUrl": "urn:uuid:cf34d3f6-123b-4a16-9218-98e4b0ef7a4f",
      "resource": {
        "resourceType": "ServiceRequest",
        "id": "cf34d3f6-123b-4a16-9218-98e4b0ef7a4f",
        "meta": {
          "profile": [
            "http://hl7.eu/fhir/laboratory/StructureDefinition/ServiceRequest-eu-lab"
          ]
        },
        "identifier": [
          {
            "system": "http://example.org",
            "value": "3f1ab5f6-f65f-4cb6-81fd-210efc49820d"
          }
        ],
        "specimen": [
          {
            "reference": "urn:uuid:6a4eca43-bf82-4ba7-ace3-2b92f564f18e"
          }
        ],
        "reasonCode": [
          {
            "coding": [
              {
                "code": "40055000",
                "system": "http://snomed.info/sct",
                "display": "Chronic sinusitis"
              }
            ]
          }
        ],
        "status": "active",
        "intent": "order",
        "code": {
          "coding": [
            {
              "code": "108252007",
              "system": "http://snomed.info/sct",
              "display": "Laboratory procedure"
            }
          ]
        },
        "subject": {
          "reference": "urn:uuid:4d080b88-0ee5-442d-b3ef-dbdc30066ed1",
          "display": "Ondrej Machová"
        },
        "requester": {
          "reference": "urn:uuid:3b434e60-558d-437b-b488-fed93036c719"
        }
      }
    },
    {
      "fullUrl": "urn:uuid:3b434e60-558d-437b-b488-fed93036c719",
      "resource": {
        "resourceType": "PractitionerRole",
        "id": "3b434e60-558d-437b-b488-fed93036c719",
        "meta": {
          "profile": [
            "http://hl7.eu/fhir/base/StructureDefinition/practitionerRole-eu"
          ]
        },
        "text": {
          "status": "generated",
          "div": "<div xmlns=\"http://www.w3.org/1999/xhtml\">Provider Role Id: 3b434e60-558d-437b-b488-fed93036c719</div>"
        },
        "organization": {
          "reference": "urn:uuid:10262bc4-ba47-4fec-8b37-05fd0f691f4a"
        }
      }
    },
    {
      "fullUrl": "urn:uuid:10262bc4-ba47-4fec-8b37-05fd0f691f4a",
      "resource": {
        "resourceType": "Organization",
        "id": "10262bc4-ba47-4fec-8b37-05fd0f691f4a",
        "meta": {
          "profile": [
            "http://hl7.eu/fhir/base/StructureDefinition/organization-eu"
          ]
        },
        "identifier": [
          {
            "assigner": {
              "display": "HL7 Europe"
            },
            "system": "urn:oid:2.16.840.1.113883.2.51.999",
            "value": "9675069b-afc7-43c2-a182-357e96fb7f1c"
          }
        ],
        "address": [
          {
            "city": "Kremnica",
            "postalCode": "967 01",
            "country": "Slovakia"
          }
        ],
        "text": {
          "status": "generated",
          "div": "<div xmlns=\"http://www.w3.org/1999/xhtml\">Provider Organization: Územná poliklinika</div>"
        },
        "name": "Územná poliklinika"
      }
    },
    {
      "fullUrl": "urn:uuid:6a4eca43-bf82-4ba7-ace3-2b92f564f18e",
      "resource": {
        "resourceType": "Specimen",
        "id": "6a4eca43-bf82-4ba7-ace3-2b92f564f18e",
        "meta": {
          "profile": [
            "http://hl7.eu/fhir/laboratory/StructureDefinition/Specimen-eu-lab"
          ]
        },
        "collection": {
          "collectedDateTime": "2018-08-18"
        },
        "text": {
          "status": "generated",
          "div": "<div xmlns=\"http://www.w3.org/1999/xhtml\"><table class=\"hl7__eu__lab__report\"><tr><th>Specimen</th><th>Collection Date</th></tr><tr><td>Whole blood specimen (specimen)</td><td><span class=\"nb\">18-Aug-2018</span></td></tr></table></div>"
        },
        "type": {
          "coding": [
            {
              "code": "258580003",
              "system": "http://snomed.info/sct",
              "display": "Whole blood specimen (specimen)"
            }
          ]
        }
      }
    },
    {
      "fullUrl": "urn:uuid:6a4eca43-bf82-4ba7-ace3-2b92f564f18e",
      "resource": {
        "resourceType": "Specimen",
        "id": "6a4eca43-bf82-4ba7-ace3-2b92f564f18e",
        "meta": {
          "profile": [
            "http://hl7.eu/fhir/laboratory/StructureDefinition/Specimen-eu-lab"
          ]
        },
        "collection": {
          "collectedDateTime": "2018-08-18"
        },
        "text": {
          "status": "generated",
          "div": "<div xmlns=\"http://www.w3.org/1999/xhtml\"><table class=\"hl7__eu__lab__report\"><tr><th>Specimen</th><th>Collection Date</th></tr><tr><td>Whole blood specimen (specimen)</td><td><span class=\"nb\">18-Aug-2018</span></td></tr></table></div>"
        },
        "type": {
          "coding": [
            {
              "code": "258580003",
              "system": "http://snomed.info/sct",
              "display": "Whole blood specimen (specimen)"
            }
          ]
        }
      }
    },
    {
      "fullUrl": "urn:uuid:e78568f4-7d5d-463b-8996-92150ad2cd27",
      "resource": {
        "resourceType": "Observation",
        "id": "e78568f4-7d5d-463b-8996-92150ad2cd27",
        "meta": {
          "profile": [
            "http://hl7.eu/fhir/laboratory/StructureDefinition/Observation-resultslab-eu-lab"
          ]
        },
        "performer": [
          {
            "display": "The Central European Lab"
          }
        ],
        "category": [
          {
            "coding": [
              {
                "system": "http://terminology.hl7.org/CodeSystem/observation-category",
                "code": "laboratory"
              }
            ]
          }
        ],
        "code": {
          "coding": [
            {
              "code": "6690-2",
              "system": "http://loinc.org",
              "display": "Leukocytes [#/volume] in Blood by Automated count"
            }
          ],
          "text": "Leukocytes [#/volume] in Blood by Automated count"
        },
        "valueQuantity": {
          "system": "http://unitsofmeasure.org",
          "value": 6.3,
          "unit": "10*3/uL",
          "code": "10*3/uL"
        },
        "referenceRange": [
          {
            "low": {
              "value": 3.5,
              "code": "10*3/uL",
              "system": "http://unitsofmeasure.org"
            }
          },
          {
            "high": {
              "value": 10.5,
              "code": "10*3/uL",
              "system": "http://unitsofmeasure.org"
            }
          }
        ],
        "text": {
          "status": "generated",
          "div": "<div xmlns=\"http://www.w3.org/1999/xhtml\"><table class=\"hl7__eu__lab__report\"><tr><th>Test</th><th>18-Aug-2018</th><th>Reference&#xA0;Range</th><th>Unit</th></tr><tr><td>Leukocytes [#/volume] in Blood by Automated count</td><td>6.3</td><td>3.5 - 10.5</td><td></td><td>10*3/uL</td></tr></table></div>"
        },
        "status": "final",
        "subject": {
          "reference": "urn:uuid:4d080b88-0ee5-442d-b3ef-dbdc30066ed1",
          "display": "Ondrej Machová"
        },
        "effectiveDateTime": "2018-08-18T12:49:06Z",
        "specimen": {
          "reference": "urn:uuid:6a4eca43-bf82-4ba7-ace3-2b92f564f18e"
        }
      }
    },
    {
      "fullUrl": "urn:uuid:346d6de4-c001-4a23-8ac8-3969ae636ba4",
      "resource": {
        "resourceType": "Observation",
        "id": "346d6de4-c001-4a23-8ac8-3969ae636ba4",
        "meta": {
          "profile": [
            "http://hl7.eu/fhir/laboratory/StructureDefinition/Observation-resultslab-eu-lab"
          ]
        },
        "performer": [
          {
            "display": "The Central European Lab"
          }
        ],
        "category": [
          {
            "coding": [
              {
                "system": "http://terminology.hl7.org/CodeSystem/observation-category",
                "code": "laboratory"
              }
            ]
          }
        ],
        "code": {
          "coding": [
            {
              "code": "789-8",
              "system": "http://loinc.org",
              "display": "Erythrocytes [#/volume] in Blood by Automated count"
            }
          ],
          "text": "Erythrocytes [#/volume] in Blood by Automated count"
        },
        "valueQuantity": {
          "system": "http://unitsofmeasure.org",
          "value": 4.8,
          "unit": "10*6/uL",
          "code": "10*6/uL"
        },
        "referenceRange": [
          {
            "low": {
              "value": 4.5,
              "code": "10*6/uL",
              "system": "http://unitsofmeasure.org"
            }
          },
          {
            "high": {
              "value": 6.2,
              "code": "10*6/uL",
              "system": "http://unitsofmeasure.org"
            }
          }
        ],
        "text": {
          "status": "generated",
          "div": "<div xmlns=\"http://www.w3.org/1999/xhtml\"><table class=\"hl7__eu__lab__report\"><tr><th>Test</th><th>18-Aug-2018</th><th>Reference&#xA0;Range</th><th>Unit</th></tr><tr><td>Erythrocytes [#/volume] in Blood by Automated count</td><td>4.8</td><td>4.5 - 6.2</td><td></td><td>10*6/uL</td></tr></table></div>"
        },
        "status": "final",
        "subject": {
          "reference": "urn:uuid:4d080b88-0ee5-442d-b3ef-dbdc30066ed1",
          "display": "Ondrej Machová"
        },
        "effectiveDateTime": "2018-08-18T12:49:06Z",
        "specimen": {
          "reference": "urn:uuid:6a4eca43-bf82-4ba7-ace3-2b92f564f18e"
        }
      }
    },
    {
      "fullUrl": "urn:uuid:f4a0cfea-2239-4d17-bae8-07d9997bb006",
      "resource": {
        "resourceType": "Observation",
        "id": "f4a0cfea-2239-4d17-bae8-07d9997bb006",
        "meta": {
          "profile": [
            "http://hl7.eu/fhir/laboratory/StructureDefinition/Observation-resultslab-eu-lab"
          ]
        },
        "performer": [
          {
            "display": "The Central European Lab"
          }
        ],
        "category": [
          {
            "coding": [
              {
                "system": "http://terminology.hl7.org/CodeSystem/observation-category",
                "code": "laboratory"
              }
            ]
          }
        ],
        "code": {
          "coding": [
            {
              "code": "718-7",
              "system": "http://loinc.org",
              "display": "Hemoglobin [Mass/volume] in Blood"
            }
          ],
          "text": "Hemoglobin [Mass/volume] in Blood"
        },
        "valueQuantity": {
          "system": "http://unitsofmeasure.org",
          "value": 12.5,
          "unit": "g/dL",
          "code": "g/dL"
        },
        "referenceRange": [
          {
            "low": {
              "value": 14,
              "code": "g/dL",
              "system": "http://unitsofmeasure.org"
            }
          },
          {
            "high": {
              "value": 18,
              "code": "g/dL",
              "system": "http://unitsofmeasure.org"
            }
          }
        ],
        "interpretation": [
          {
            "coding": [
              {
                "code": "L",
                "system": "http://terminology.hl7.org/CodeSystem/v3-ObservationInterpretation",
                "display": "Low"
              }
            ]
          }
        ],
        "text": {
          "status": "generated",
          "div": "<div xmlns=\"http://www.w3.org/1999/xhtml\"><table class=\"hl7__eu__lab__report\"><tr><th>Test</th><th>18-Aug-2018</th><th>Reference&#xA0;Range</th><th>Unit</th></tr><tr><td>Hemoglobin [Mass/volume] in Blood</td><td>12.5</td><td>14 - 18</td><td>L</td><td>g/dL</td></tr></table></div>"
        },
        "status": "final",
        "subject": {
          "reference": "urn:uuid:4d080b88-0ee5-442d-b3ef-dbdc30066ed1",
          "display": "Ondrej Machová"
        },
        "effectiveDateTime": "2018-08-18T12:49:06Z",
        "specimen": {
          "reference": "urn:uuid:6a4eca43-bf82-4ba7-ace3-2b92f564f18e"
        }
      }
    },
    {
      "fullUrl": "urn:uuid:bd43f16f-382c-4aa2-9289-0c918c10a371",
      "resource": {
        "resourceType": "Observation",
        "id": "bd43f16f-382c-4aa2-9289-0c918c10a371",
        "meta": {
          "profile": [
            "http://hl7.eu/fhir/laboratory/StructureDefinition/Observation-resultslab-eu-lab"
          ]
        },
        "performer": [
          {
            "display": "The Central European Lab"
          }
        ],
        "category": [
          {
            "coding": [
              {
                "system": "http://terminology.hl7.org/CodeSystem/observation-category",
                "code": "laboratory"
              }
            ]
          }
        ],
        "code": {
          "coding": [
            {
              "code": "4544-3",
              "system": "http://loinc.org",
              "display": "Hematocrit [Volume Fraction] of Blood by Automated count"
            }
          ],
          "text": "Hematocrit [Volume Fraction] of Blood by Automated count"
        },
        "valueQuantity": {
          "system": "http://unitsofmeasure.org",
          "value": 41,
          "unit": "%",
          "code": "%"
        },
        "referenceRange": [
          {
            "low": {
              "value": 42,
              "code": "%",
              "system": "http://unitsofmeasure.org"
            }
          },
          {
            "high": {
              "value": 52,
              "code": "%",
              "system": "http://unitsofmeasure.org"
            }
          }
        ],
        "interpretation": [
          {
            "coding": [
              {
                "code": "L",
                "system": "http://terminology.hl7.org/CodeSystem/v3-ObservationInterpretation",
                "display": "Low"
              }
            ]
          }
        ],
        "text": {
          "status": "generated",
          "div": "<div xmlns=\"http://www.w3.org/1999/xhtml\"><table class=\"hl7__eu__lab__report\"><tr><th>Test</th><th>18-Aug-2018</th><th>Reference&#xA0;Range</th><th>Unit</th></tr><tr><td>Hematocrit [Volume Fraction] of Blood by Automated count</td><td>41.0</td><td>42 - 52</td><td>L</td><td>%</td></tr></table></div>"
        },
        "status": "final",
        "subject": {
          "reference": "urn:uuid:4d080b88-0ee5-442d-b3ef-dbdc30066ed1",
          "display": "Ondrej Machová"
        },
        "effectiveDateTime": "2018-08-18T12:49:06Z",
        "specimen": {
          "reference": "urn:uuid:6a4eca43-bf82-4ba7-ace3-2b92f564f18e"
        }
      }
    },
    {
      "fullUrl": "urn:uuid:f29625b0-0a27-41c9-b353-6382187bf626",
      "resource": {
        "resourceType": "Observation",
        "id": "f29625b0-0a27-41c9-b353-6382187bf626",
        "meta": {
          "profile": [
            "http://hl7.eu/fhir/laboratory/StructureDefinition/Observation-resultslab-eu-lab"
          ]
        },
        "performer": [
          {
            "display": "The Central European Lab"
          }
        ],
        "category": [
          {
            "coding": [
              {
                "system": "http://terminology.hl7.org/CodeSystem/observation-category",
                "code": "laboratory"
              }
            ]
          }
        ],
        "code": {
          "coding": [
            {
              "code": "787-2",
              "system": "http://loinc.org",
              "display": "MCV [Entitic volume] by Automated count"
            }
          ],
          "text": "MCV [Entitic volume] by Automated count"
        },
        "valueQuantity": {
          "system": "http://unitsofmeasure.org",
          "value": 83.2,
          "unit": "fL",
          "code": "fL"
        },
        "referenceRange": [
          {
            "low": {
              "value": 82,
              "code": "fL",
              "system": "http://unitsofmeasure.org"
            }
          },
          {
            "high": {
              "value": 98,
              "code": "fL",
              "system": "http://unitsofmeasure.org"
            }
          }
        ],
        "text": {
          "status": "generated",
          "div": "<div xmlns=\"http://www.w3.org/1999/xhtml\"><table class=\"hl7__eu__lab__report\"><tr><th>Test</th><th>18-Aug-2018</th><th>Reference&#xA0;Range</th><th>Unit</th></tr><tr><td>MCV [Entitic volume] by Automated count</td><td>83.2</td><td>82 - 98</td><td></td><td>fL</td></tr></table></div>"
        },
        "status": "final",
        "subject": {
          "reference": "urn:uuid:4d080b88-0ee5-442d-b3ef-dbdc30066ed1",
          "display": "Ondrej Machová"
        },
        "effectiveDateTime": "2018-08-18T12:49:06Z",
        "specimen": {
          "reference": "urn:uuid:6a4eca43-bf82-4ba7-ace3-2b92f564f18e"
        }
      }
    },
    {
      "fullUrl": "urn:uuid:c0d939a6-9fee-4cb4-9f89-caf0e26ed25c",
      "resource": {
        "resourceType": "Observation",
        "id": "c0d939a6-9fee-4cb4-9f89-caf0e26ed25c",
        "meta": {
          "profile": [
            "http://hl7.eu/fhir/laboratory/StructureDefinition/Observation-resultslab-eu-lab"
          ]
        },
        "performer": [
          {
            "display": "The Central European Lab"
          }
        ],
        "category": [
          {
            "coding": [
              {
                "system": "http://terminology.hl7.org/CodeSystem/observation-category",
                "code": "laboratory"
              }
            ]
          }
        ],
        "code": {
          "coding": [
            {
              "code": "785-6",
              "system": "http://loinc.org",
              "display": "MCH [Entitic mass] by Automated count"
            }
          ],
          "text": "MCH [Entitic mass] by Automated count"
        },
        "valueQuantity": {
          "system": "http://unitsofmeasure.org",
          "value": 29.9,
          "unit": "pg",
          "code": "pg"
        },
        "referenceRange": [
          {
            "low": {
              "value": 27,
              "code": "pg",
              "system": "http://unitsofmeasure.org"
            }
          },
          {
            "high": {
              "value": 33.4,
              "code": "pg",
              "system": "http://unitsofmeasure.org"
            }
          }
        ],
        "text": {
          "status": "generated",
          "div": "<div xmlns=\"http://www.w3.org/1999/xhtml\"><table class=\"hl7__eu__lab__report\"><tr><th>Test</th><th>18-Aug-2018</th><th>Reference&#xA0;Range</th><th>Unit</th></tr><tr><td>MCH [Entitic mass] by Automated count</td><td>29.9</td><td>27 - 33.4</td><td></td><td>pg</td></tr></table></div>"
        },
        "status": "final",
        "subject": {
          "reference": "urn:uuid:4d080b88-0ee5-442d-b3ef-dbdc30066ed1",
          "display": "Ondrej Machová"
        },
        "effectiveDateTime": "2018-08-18T12:49:06Z",
        "specimen": {
          "reference": "urn:uuid:6a4eca43-bf82-4ba7-ace3-2b92f564f18e"
        }
      }
    },
    {
      "fullUrl": "urn:uuid:9fcc41ec-567b-4cbc-824d-58e7576175df",
      "resource": {
        "resourceType": "Observation",
        "id": "9fcc41ec-567b-4cbc-824d-58e7576175df",
        "meta": {
          "profile": [
            "http://hl7.eu/fhir/laboratory/StructureDefinition/Observation-resultslab-eu-lab"
          ]
        },
        "performer": [
          {
            "display": "The Central European Lab"
          }
        ],
        "category": [
          {
            "coding": [
              {
                "system": "http://terminology.hl7.org/CodeSystem/observation-category",
                "code": "laboratory"
              }
            ]
          }
        ],
        "code": {
          "coding": [
            {
              "code": "786-4",
              "system": "http://loinc.org",
              "display": "MCHC [Mass/volume] by Automated count"
            }
          ],
          "text": "MCHC [Mass/volume] by Automated count"
        },
        "valueQuantity": {
          "system": "http://unitsofmeasure.org",
          "value": 34.6,
          "unit": "g/dL",
          "code": "g/dL"
        },
        "referenceRange": [
          {
            "low": {
              "value": 31,
              "code": "g/dL",
              "system": "http://unitsofmeasure.org"
            }
          },
          {
            "high": {
              "value": 37,
              "code": "g/dL",
              "system": "http://unitsofmeasure.org"
            }
          }
        ],
        "text": {
          "status": "generated",
          "div": "<div xmlns=\"http://www.w3.org/1999/xhtml\"><table class=\"hl7__eu__lab__report\"><tr><th>Test</th><th>18-Aug-2018</th><th>Reference&#xA0;Range</th><th>Unit</th></tr><tr><td>MCHC [Mass/volume] by Automated count</td><td>34.6</td><td>31 - 37</td><td></td><td>g/dL</td></tr></table></div>"
        },
        "status": "final",
        "subject": {
          "reference": "urn:uuid:4d080b88-0ee5-442d-b3ef-dbdc30066ed1",
          "display": "Ondrej Machová"
        },
        "effectiveDateTime": "2018-08-18T12:49:06Z",
        "specimen": {
          "reference": "urn:uuid:6a4eca43-bf82-4ba7-ace3-2b92f564f18e"
        }
      }
    },
    {
      "fullUrl": "urn:uuid:f9119721-00dc-4fdb-8c61-665486255c37",
      "resource": {
        "resourceType": "Observation",
        "id": "f9119721-00dc-4fdb-8c61-665486255c37",
        "meta": {
          "profile": [
            "http://hl7.eu/fhir/laboratory/StructureDefinition/Observation-resultslab-eu-lab"
          ]
        },
        "performer": [
          {
            "display": "The Central European Lab"
          }
        ],
        "category": [
          {
            "coding": [
              {
                "system": "http://terminology.hl7.org/CodeSystem/observation-category",
                "code": "laboratory"
              }
            ]
          }
        ],
        "code": {
          "coding": [
            {
              "code": "21000-5",
              "system": "http://loinc.org",
              "display": "Erythrocyte distribution width [Entitic volume] by Automated count"
            }
          ],
          "text": "Erythrocyte distribution width [Entitic volume] by Automated count"
        },
        "valueQuantity": {
          "system": "http://unitsofmeasure.org",
          "value": 41.5,
          "unit": "fL",
          "code": "fL"
        },
        "referenceRange": [
          {
            "low": {
              "value": 35,
              "code": "fL",
              "system": "http://unitsofmeasure.org"
            }
          },
          {
            "high": {
              "value": 55,
              "code": "fL",
              "system": "http://unitsofmeasure.org"
            }
          }
        ],
        "text": {
          "status": "generated",
          "div": "<div xmlns=\"http://www.w3.org/1999/xhtml\"><table class=\"hl7__eu__lab__report\"><tr><th>Test</th><th>18-Aug-2018</th><th>Reference&#xA0;Range</th><th>Unit</th></tr><tr><td>Erythrocyte distribution width [Entitic volume] by Automated count</td><td>41.5</td><td>35 - 55</td><td></td><td>fL</td></tr></table></div>"
        },
        "status": "final",
        "subject": {
          "reference": "urn:uuid:4d080b88-0ee5-442d-b3ef-dbdc30066ed1",
          "display": "Ondrej Machová"
        },
        "effectiveDateTime": "2018-08-18T12:49:06Z",
        "specimen": {
          "reference": "urn:uuid:6a4eca43-bf82-4ba7-ace3-2b92f564f18e"
        }
      }
    },
    {
      "fullUrl": "urn:uuid:0bfb7e33-eeb2-4824-9243-4c41dacbc5ca",
      "resource": {
        "resourceType": "Observation",
        "id": "0bfb7e33-eeb2-4824-9243-4c41dacbc5ca",
        "meta": {
          "profile": [
            "http://hl7.eu/fhir/laboratory/StructureDefinition/Observation-resultslab-eu-lab"
          ]
        },
        "performer": [
          {
            "display": "The Central European Lab"
          }
        ],
        "category": [
          {
            "coding": [
              {
                "system": "http://terminology.hl7.org/CodeSystem/observation-category",
                "code": "laboratory"
              }
            ]
          }
        ],
        "code": {
          "coding": [
            {
              "code": "777-3",
              "system": "http://loinc.org",
              "display": "Platelets [#/volume] in Blood by Automated count"
            }
          ],
          "text": "Platelets [#/volume] in Blood by Automated count"
        },
        "valueQuantity": {
          "system": "http://unitsofmeasure.org",
          "value": 426,
          "unit": "10*3/uL",
          "code": "10*3/uL"
        },
        "referenceRange": [
          {
            "low": {
              "value": 150,
              "code": "10*3/uL",
              "system": "http://unitsofmeasure.org"
            }
          },
          {
            "high": {
              "value": 450,
              "code": "10*3/uL",
              "system": "http://unitsofmeasure.org"
            }
          }
        ],
        "text": {
          "status": "generated",
          "div": "<div xmlns=\"http://www.w3.org/1999/xhtml\"><table class=\"hl7__eu__lab__report\"><tr><th>Test</th><th>18-Aug-2018</th><th>Reference&#xA0;Range</th><th>Unit</th></tr><tr><td>Platelets [#/volume] in Blood by Automated count</td><td>426.0</td><td>150 - 450</td><td></td><td>10*3/uL</td></tr></table></div>"
        },
        "status": "final",
        "subject": {
          "reference": "urn:uuid:4d080b88-0ee5-442d-b3ef-dbdc30066ed1",
          "display": "Ondrej Machová"
        },
        "effectiveDateTime": "2018-08-18T12:49:06Z",
        "specimen": {
          "reference": "urn:uuid:6a4eca43-bf82-4ba7-ace3-2b92f564f18e"
        }
      }
    },
    {
      "fullUrl": "urn:uuid:14998083-4918-4070-8094-4b5a9f04df7c",
      "resource": {
        "resourceType": "Observation",
        "id": "14998083-4918-4070-8094-4b5a9f04df7c",
        "meta": {
          "profile": [
            "http://hl7.eu/fhir/laboratory/StructureDefinition/Observation-resultslab-eu-lab"
          ]
        },
        "performer": [
          {
            "display": "The Central European Lab"
          }
        ],
        "category": [
          {
            "coding": [
              {
                "system": "http://terminology.hl7.org/CodeSystem/observation-category",
                "code": "laboratory"
              }
            ]
          }
        ],
        "code": {
          "coding": [
            {
              "code": "32207-3",
              "system": "http://loinc.org",
              "display": "Platelet distribution width [Entitic volume] in Blood by Automated count"
            }
          ],
          "text": "Platelet distribution width [Entitic volume] in Blood by Automated count"
        },
        "valueQuantity": {
          "system": "http://unitsofmeasure.org",
          "value": 231.4,
          "unit": "fL",
          "code": "fL"
        },
        "referenceRange": [
          {
            "low": {
              "value": 13.4,
              "code": "fL",
              "system": "http://unitsofmeasure.org"
            }
          },
          {
            "high": {
              "value": 17.4,
              "code": "fL",
              "system": "http://unitsofmeasure.org"
            }
          }
        ],
        "interpretation": [
          {
            "coding": [
              {
                "code": "H",
                "system": "http://terminology.hl7.org/CodeSystem/v3-ObservationInterpretation",
                "display": "High"
              }
            ]
          }
        ],
        "text": {
          "status": "generated",
          "div": "<div xmlns=\"http://www.w3.org/1999/xhtml\"><table class=\"hl7__eu__lab__report\"><tr><th>Test</th><th>18-Aug-2018</th><th>Reference&#xA0;Range</th><th>Unit</th></tr><tr><td>Platelet distribution width [Entitic volume] in Blood by Automated count</td><td>231.4</td><td>13.4 - 17.4</td><td>H</td><td>fL</td></tr></table></div>"
        },
        "status": "final",
        "subject": {
          "reference": "urn:uuid:4d080b88-0ee5-442d-b3ef-dbdc30066ed1",
          "display": "Ondrej Machová"
        },
        "effectiveDateTime": "2018-08-18T12:49:06Z",
        "specimen": {
          "reference": "urn:uuid:6a4eca43-bf82-4ba7-ace3-2b92f564f18e"
        }
      }
    },
    {
      "fullUrl": "urn:uuid:f74b4ef3-59e8-46cc-a8c5-39930f914549",
      "resource": {
        "resourceType": "Observation",
        "id": "f74b4ef3-59e8-46cc-a8c5-39930f914549",
        "meta": {
          "profile": [
            "http://hl7.eu/fhir/laboratory/StructureDefinition/Observation-resultslab-eu-lab"
          ]
        },
        "performer": [
          {
            "display": "The Central European Lab"
          }
        ],
        "category": [
          {
            "coding": [
              {
                "system": "http://terminology.hl7.org/CodeSystem/observation-category",
                "code": "laboratory"
              }
            ]
          }
        ],
        "code": {
          "coding": [
            {
              "code": "32623-1",
              "system": "http://loinc.org",
              "display": "Platelet mean volume [Entitic volume] in Blood by Automated count"
            }
          ],
          "text": "Platelet mean volume [Entitic volume] in Blood by Automated count"
        },
        "valueQuantity": {
          "system": "http://unitsofmeasure.org",
          "value": 10.1,
          "unit": "fL",
          "code": "fL"
        },
        "referenceRange": [
          {
            "low": {
              "value": 7.2,
              "code": "fL",
              "system": "http://unitsofmeasure.org"
            }
          },
          {
            "high": {
              "value": 13.8,
              "code": "fL",
              "system": "http://unitsofmeasure.org"
            }
          }
        ],
        "text": {
          "status": "generated",
          "div": "<div xmlns=\"http://www.w3.org/1999/xhtml\"><table class=\"hl7__eu__lab__report\"><tr><th>Test</th><th>18-Aug-2018</th><th>Reference&#xA0;Range</th><th>Unit</th></tr><tr><td>Platelet mean volume [Entitic volume] in Blood by Automated count</td><td>10.1</td><td>7.2 - 13.8</td><td></td><td>fL</td></tr></table></div>"
        },
        "status": "final",
        "subject": {
          "reference": "urn:uuid:4d080b88-0ee5-442d-b3ef-dbdc30066ed1",
          "display": "Ondrej Machová"
        },
        "effectiveDateTime": "2018-08-18T12:49:06Z",
        "specimen": {
          "reference": "urn:uuid:6a4eca43-bf82-4ba7-ace3-2b92f564f18e"
        }
      }
    },
    {
      "fullUrl": "urn:uuid:64399ba6-2fc9-419f-b86a-37ecf9b0d93a",
      "resource": {
        "resourceType": "Device",
        "id": "64399ba6-2fc9-419f-b86a-37ecf9b0d93a",
        "deviceName": [
          {
            "name": "SYNDERAI Synthetic Generator",
            "type": "manufacturer-name"
          }
        ],
        "version": [
          {
            "value": "5.0"
          }
        ],
        "text": {
          "status": "generated",
          "div": "<div xmlns=\"http://www.w3.org/1999/xhtml\">SYNDERAI Synthetic Generator v5.0</div>"
        },
        "status": "active\"",
        "distinctIdentifier": "synderai-generator-50",
        "manufacturer": "SYNDERAI Project"
      }
    },
    {
      "fullUrl": "urn:uuid:13eae911-80d1-4ed1-af39-57046c4ab614",
      "resource": {
        "resourceType": "Provenance",
        "id": "13eae911-80d1-4ed1-af39-57046c4ab614",
        "target": [
          {
            "reference": "Patient/4d080b88-0ee5-442d-b3ef-dbdc30066ed1"
          },
          {
            "reference": "Bundle/ea5e8723-1515-4917-af0b-133139da2eb5"
          },
          {
            "reference": "Composition/b472b75b-13bf-4000-bbde-1d9498a3b581"
          },
          {
            "reference": "PractitionerRole/0de3a146-757a-46b5-951a-c562ef6d6fb3"
          },
          {
            "reference": "Practitioner/4766315f-4bba-49cc-9109-cce127d3a6a6"
          },
          {
            "reference": "PractitionerRole/3b434e60-558d-437b-b488-fed93036c719"
          },
          {
            "reference": "Organization/10262bc4-ba47-4fec-8b37-05fd0f691f4a"
          }
        ],
        "activity": {
          "text": "Synthetic Example Data Generation"
        },
        "policy": [
          "https://synderai.net/synderai-synthetic-data-policy"
        ],
        "agent": [
          {
            "type": {
              "text": "author"
            },
            "who": {
              "reference": "Device/64399ba6-2fc9-419f-b86a-37ecf9b0d93a"
            }
          }
        ],
        "reason": [
          {
            "text": "Interoperability Testing and Training (non-clinical use)"
          }
        ],
        "text": {
          "status": "generated",
          "div": "<div xmlns=\"http://www.w3.org/1999/xhtml\">Provenance for SYNDERAI Synthetic Example Data Resource</div>"
        },
        "recorded": "2018-08-18T14:49:06Z"
      }
    },
    {
      "fullUrl": "urn:uuid:0de3a146-757a-46b5-951a-c562ef6d6fb3",
      "resource": {
        "resourceType": "PractitionerRole",
        "id": "0de3a146-757a-46b5-951a-c562ef6d6fb3",
        "meta": {
          "profile": [
            "http://hl7.eu/fhir/base/StructureDefinition/practitionerRole-eu"
          ]
        },
        "text": {
          "status": "generated",
          "div": "<div xmlns=\"http://www.w3.org/1999/xhtml\">Laboratory Role Id: 0de3a146-757a-46b5-951a-c562ef6d6fb3</div>"
        },
        "practitioner": {
          "reference": "urn:uuid:4766315f-4bba-49cc-9109-cce127d3a6a6"
        }
      }
    },
    {
      "fullUrl": "urn:uuid:4766315f-4bba-49cc-9109-cce127d3a6a6",
      "resource": {
        "resourceType": "Practitioner",
        "id": "4766315f-4bba-49cc-9109-cce127d3a6a6",
        "meta": {
          "profile": [
            "http://hl7.eu/fhir/base/StructureDefinition/practitioner-eu"
          ]
        },
        "identifier": [
          {
            "assigner": {
              "display": "HL7 Europe"
            },
            "system": "urn:oid:2.16.840.1.113883.2.51.999",
            "value": "a4d113b4-3746-441e-8246-bda936ec5e48"
          }
        ],
        "name": [
          {
            "prefix": [
              "dr"
            ],
            "given": [
              "Ex"
            ],
            "family": "Ample"
          }
        ],
        "address": [
          {
            "line": [
              "Laboratoire Central Européenne",
              "Boulevard du Jardin Botanique 32"
            ],
            "postalCode": "1000",
            "city": "Brussels",
            "country": "Belgium"
          }
        ],
        "text": {
          "status": "generated",
          "div": "<div xmlns=\"http://www.w3.org/1999/xhtml\">Laboratory: Laboratoire Central Européenne, 1000 Brussels, Belgium</div>"
        }
      }
    }
  ],
  "type": "document",
  "timestamp": "2018-08-18T14:49:06Z"
}
