{
  "resourceType": "Bundle",
  "id": "0ed9b018-124f-4b4c-a403-bb12548c4027",
  "meta": {
    "profile": [
      "http://hl7.eu/fhir/laboratory/StructureDefinition/Bundle-eu-lab"
    ]
  },
  "identifier": {
    "assigner": {
      "display": "HL7 Europe"
    },
    "system": "urn:oid:2.16.840.1.113883.2.51.999",
    "value": "68061d60-432e-4de0-8116-f573bf2080e0"
  },
  "entry": [
    {
      "fullUrl": "urn:uuid:31d036e0-9d9a-4a72-b97c-66e99cf6bb99",
      "resource": {
        "resourceType": "Composition",
        "id": "31d036e0-9d9a-4a72-b97c-66e99cf6bb99",
        "meta": {
          "profile": [
            "http://hl7.eu/fhir/laboratory/StructureDefinition/Composition-eu-lab"
          ]
        },
        "identifier": {
          "assigner": {
            "display": "HL7 Europe"
          },
          "system": "urn:oid:2.16.840.1.113883.2.51.999",
          "value": "7c1e7fde-02e9-48b5-9ae4-47660ad544c9"
        },
        "author": [
          {
            "reference": "urn:uuid:201ed70b-beb9-4672-9016-ceb3e1b35cf9"
          }
        ],
        "category": [
          {
            "coding": [
              {
                "code": "26436-6",
                "system": "http://loinc.org",
                "display": "Laboratory studies (set)"
              }
            ]
          }
        ],
        "type": {
          "coding": [
            {
              "code": "11502-2",
              "system": "http://loinc.org",
              "display": "Laboratory report"
            }
          ],
          "text": "Laboratory Report"
        },
        "section": [
          {
            "code": {
              "coding": [
                {
                  "code": "26436-6",
                  "system": "http://loinc.org",
                  "display": "Laboratory studies (set)"
                }
              ],
              "text": "Laboratory studies"
            },
            "section": [
              {
                "code": {
                  "coding": [
                    {
                      "code": "$18719-5",
                      "system": "http://loinc.org",
                      "display": "Chemistry studies (set)"
                    }
                  ],
                  "text": "Chemistry"
                },
                "entry": [
                  {
                    "reference": "urn:uuid:70e00970-3637-40cb-9a4b-18e1971f4943"
                  },
                  {
                    "reference": "urn:uuid:bd6af63a-3bc2-4d9e-8d77-ce695fdb072c"
                  },
                  {
                    "reference": "urn:uuid:4a8e33cb-1c5b-4c2d-bfe4-13b96336bce4"
                  },
                  {
                    "reference": "urn:uuid:441c0694-3bba-44fa-bb0d-47e5c5f0f075"
                  },
                  {
                    "reference": "urn:uuid:3811961d-115c-483b-8f7f-0a5f4fa88a3e"
                  },
                  {
                    "reference": "urn:uuid:e0967158-4c22-4233-9391-d693f290c56c"
                  },
                  {
                    "reference": "urn:uuid:898493df-3fd1-4ca4-a7f7-3ffbf7549368"
                  },
                  {
                    "reference": "urn:uuid:5573f3ee-4365-46cf-9a85-10c8323fddb4"
                  },
                  {
                    "reference": "urn:uuid:e3a264c0-1f5a-4471-a7bb-4469b036cf2b"
                  },
                  {
                    "reference": "urn:uuid:b2a12082-34df-4089-baed-057ce09fa46e"
                  },
                  {
                    "reference": "urn:uuid:515acb2a-4c67-4c97-883f-b7f802d4e0d7"
                  },
                  {
                    "reference": "urn:uuid:8c22a214-e4d0-42fc-95fa-febd8c340cd0"
                  },
                  {
                    "reference": "urn:uuid:4de901e7-584f-4861-bdf7-018b92037c93"
                  },
                  {
                    "reference": "urn:uuid:f1ac48ae-268b-41e3-8b5c-3086cfe3c81d"
                  },
                  {
                    "reference": "urn:uuid:bc587e45-7324-48df-b71d-48db04e3f3bb"
                  },
                  {
                    "reference": "urn:uuid:9d09d9fc-032c-48e8-99bd-51ec8adcca54"
                  },
                  {
                    "reference": "urn:uuid:14f90b17-808e-4270-b6f7-534e10b5dbc4"
                  },
                  {
                    "reference": "urn:uuid:6cc9c1cc-cc3e-4517-8236-8149bf7f8e5c"
                  },
                  {
                    "reference": "urn:uuid:4bce1765-ad54-47da-b489-02316cf1b1cd"
                  }
                ],
                "text": {
                  "status": "generated",
                  "div": "<div xmlns=\"http://www.w3.org/1999/xhtml\"><h3>Chemistry</h3><table class=\"hl7__eu__lab__report\"><thead><tr><th>Test</th><th>04-APR-2024</th><th>Reference&#xA0;Range</th><th>Unit</th></tr></thead><tbody><tr><td>Glucose [Mass/volume] in Blood</td><td><strong>64.1 L</strong></td><td>70 - 99</td><td>mg/dL</td></tr><tr><td>Urea nitrogen [Mass/volume] in Blood</td><td>18.4</td><td>7 - 45</td><td>mg/dL</td></tr><tr><td>Creatinine [Mass/volume] in Blood</td><td><strong>2.7 H</strong></td><td>0.6 - 1.1</td><td>mg/dL</td></tr><tr><td>Calcium [Mass/volume] in Blood</td><td>9.6</td><td>8.5 - 10.4</td><td>mg/dL</td></tr><tr><td>Sodium [Moles/volume] in Blood</td><td>138.5</td><td>135 - 145</td><td>mmol/L</td></tr><tr><td>Potassium [Moles/volume] in Blood</td><td>3.9</td><td>3.5 - 5.1</td><td>mmol/L</td></tr><tr><td>Chloride [Moles/volume] in Blood</td><td>102.7</td><td>98 - 110</td><td>mmol/L</td></tr><tr><td>Carbon dioxide, total [Moles/volume] in Blood</td><td>27.1</td><td>22 - 29</td><td>mmol/L</td></tr><tr><td>Protein [Mass/volume] in Serum or Plasma</td><td>6.6</td><td>6 - 8.3</td><td>g/dL</td></tr><tr><td>Albumin [Mass/volume] in Serum or Plasma</td><td>3.9</td><td>3.5 - 5.5</td><td>g/dL</td></tr><tr><td>Globulin [Mass/volume] in Serum by calculation</td><td>3.2</td><td>2 - 3.5</td><td>g/L</td></tr><tr><td>Bilirubin.total [Mass/volume] in Serum or Plasma</td><td><strong>0.1 L</strong></td><td>0.3 - 1.2</td><td>mg/dL</td></tr><tr><td>Alkaline phosphatase [Enzymatic activity/volume] in Serum or Plasma</td><td>88.5</td><td>44 - 130</td><td>U/L</td></tr><tr><td>Alanine aminotransferase [Enzymatic activity/volume] in Serum or Plasma</td><td>23.8</td><td>7 - 33</td><td>U/L</td></tr><tr><td>Aspartate aminotransferase [Enzymatic activity/volume] in Serum or Plasma</td><td>22.3</td><td>10 - 40</td><td>U/L</td></tr><tr><td>Cholesterol [Mass/volume] in Serum or Plasma</td><td>187.5</td><td>125 - 200</td><td>mg/dL</td></tr><tr><td>Triglyceride [Mass/volume] in Serum or Plasma</td><td>163.5</td><td>10 - 175</td><td>mg/dL</td></tr><tr><td>Cholesterol in LDL [Mass/volume] in Serum or Plasma by Direct assay</td><td>99.7</td><td>0 - 130</td><td>mg/dL</td></tr><tr><td>Cholesterol in HDL [Mass/volume] in Serum or Plasma</td><td>67.0</td><td>40 - 100</td><td>mg/dL</td></tr></tbody></table></div>"
                },
                "title": "Chemistry"
              }
            ],
            "title": "Laboratory Report"
          },
          {
            "text": {
              "status": "generated",
              "div": "<div xmlns=\"http://www.w3.org/1999/xhtml\"><h3>Annotation</h3><table class=\"hl7__eu__lab__report\"><tr><th>Conclusion and Recommendations based on this report and previous findings known to us</th></tr><tr><td>The patient shows mild hypoglycemia and significantly elevated creatinine, suggesting impaired renal function. Other parameters, including electrolytes, liver enzymes, and lipid profile, are within normal limits. Total bilirubin is slightly low but not clinically significant. Recommend clinical correlation for renal impairment and assessment for causes of low blood glucose.</td></tr></table></div>"
            },
            "code": {
              "coding": [
                {
                  "system": "http://loinc.org",
                  "code": "48767-8",
                  "display": "Annotation comment"
                }
              ]
            },
            "title": "Annotation comment"
          }
        ],
        "status": "final",
        "subject": {
          "reference": "urn:uuid:d2fea0d0-f2cf-4a9a-8533-3cd5a626cf51",
          "display": "Marthe Gallet"
        },
        "date": "2024-04-04T21:05:43Z",
        "title": "Laboratory Report",
        "confidentiality": "N"
      }
    },
    {
      "fullUrl": "urn:uuid:01366e88-e725-42f1-94bb-e671befb1fda",
      "resource": {
        "resourceType": "DiagnosticReport",
        "id": "01366e88-e725-42f1-94bb-e671befb1fda",
        "meta": {
          "profile": [
            "http://hl7.eu/fhir/laboratory/StructureDefinition/DiagnosticReport-eu-lab"
          ]
        },
        "identifier": [
          {
            "assigner": {
              "display": "HL7 Europe"
            },
            "system": "urn:oid:2.16.840.1.113883.2.51.999",
            "value": "644dd1cb-f7cd-42ac-8b75-e0477e1fbe00"
          }
        ],
        "extension": [
          {
            "url": "http://hl7.org/fhir/5.0/StructureDefinition/extension-DiagnosticReport.composition",
            "valueReference": {
              "reference": "urn:uuid:7c1e7fde-02e9-48b5-9ae4-47660ad544c9"
            }
          }
        ],
        "category": [
          {
            "coding": [
              {
                "code": "26436-6",
                "system": "http://loinc.org",
                "display": "Laboratory studies (set)"
              }
            ]
          }
        ],
        "specimen": [
          {
            "reference": "urn:uuid:63e28435-d09b-436a-914a-5217da20cae1"
          },
          {
            "reference": "urn:uuid:6a08c62f-47a2-493f-8ed8-aa204ff3420e"
          },
          {
            "reference": "urn:uuid:a0e8c939-8dc2-4e55-969c-c2b4da931944"
          }
        ],
        "result": [
          {
            "reference": "urn:uuid:70e00970-3637-40cb-9a4b-18e1971f4943"
          },
          {
            "reference": "urn:uuid:bd6af63a-3bc2-4d9e-8d77-ce695fdb072c"
          },
          {
            "reference": "urn:uuid:4a8e33cb-1c5b-4c2d-bfe4-13b96336bce4"
          },
          {
            "reference": "urn:uuid:441c0694-3bba-44fa-bb0d-47e5c5f0f075"
          },
          {
            "reference": "urn:uuid:3811961d-115c-483b-8f7f-0a5f4fa88a3e"
          },
          {
            "reference": "urn:uuid:e0967158-4c22-4233-9391-d693f290c56c"
          },
          {
            "reference": "urn:uuid:898493df-3fd1-4ca4-a7f7-3ffbf7549368"
          },
          {
            "reference": "urn:uuid:5573f3ee-4365-46cf-9a85-10c8323fddb4"
          },
          {
            "reference": "urn:uuid:e3a264c0-1f5a-4471-a7bb-4469b036cf2b"
          },
          {
            "reference": "urn:uuid:b2a12082-34df-4089-baed-057ce09fa46e"
          },
          {
            "reference": "urn:uuid:515acb2a-4c67-4c97-883f-b7f802d4e0d7"
          },
          {
            "reference": "urn:uuid:8c22a214-e4d0-42fc-95fa-febd8c340cd0"
          },
          {
            "reference": "urn:uuid:4de901e7-584f-4861-bdf7-018b92037c93"
          },
          {
            "reference": "urn:uuid:f1ac48ae-268b-41e3-8b5c-3086cfe3c81d"
          },
          {
            "reference": "urn:uuid:bc587e45-7324-48df-b71d-48db04e3f3bb"
          },
          {
            "reference": "urn:uuid:9d09d9fc-032c-48e8-99bd-51ec8adcca54"
          },
          {
            "reference": "urn:uuid:14f90b17-808e-4270-b6f7-534e10b5dbc4"
          },
          {
            "reference": "urn:uuid:6cc9c1cc-cc3e-4517-8236-8149bf7f8e5c"
          },
          {
            "reference": "urn:uuid:4bce1765-ad54-47da-b489-02316cf1b1cd"
          }
        ],
        "status": "registered",
        "code": {
          "coding": [
            {
              "code": "11502-2",
              "system": "http://loinc.org",
              "display": "Laboratory report"
            }
          ]
        },
        "subject": {
          "reference": "urn:uuid:d2fea0d0-f2cf-4a9a-8533-3cd5a626cf51",
          "display": "Marthe Gallet"
        }
      }
    },
    {
      "fullUrl": "urn:uuid:d2fea0d0-f2cf-4a9a-8533-3cd5a626cf51",
      "resource": {
        "resourceType": "Patient",
        "id": "d2fea0d0-f2cf-4a9a-8533-3cd5a626cf51",
        "meta": {
          "security": [
            {
              "system": "http://terminology.hl7.org/CodeSystem/v3-ActReason",
              "code": "HTEST"
            },
            {
              "system": "http://terminology.hl7.org/CodeSystem/v3-ActReason",
              "code": "TRAIN"
            }
          ],
          "tag": [
            {
              "system": "https://synderai.net/fhir/CodeSystem/tags",
              "code": "synthetic",
              "display": "SYNDERAI Synthetic data"
            }
          ],
          "profile": [
            "http://hl7.eu/fhir/base/StructureDefinition/patient-eu-core"
          ]
        },
        "identifier": [
          {
            "type": {
              "coding": [
                {
                  "code": "PT",
                  "system": "http://terminology.hl7.org/CodeSystem/v2-0203"
                }
              ]
            },
            "system": "http://ec.europa.eu/identifier/eci",
            "value": "9444-947487-6"
          },
          {
            "type": {
              "coding": [
                {
                  "code": "MR",
                  "system": "http://terminology.hl7.org/CodeSystem/v2-0203"
                }
              ]
            },
            "system": "http://local.setting.eu/identifier",
            "value": "854228d5-a476-2d9c-a1d7-c3202375a617"
          }
        ],
        "name": [
          {
            "family": "Gallet"
          },
          {
            "given": [
              "Marthe"
            ]
          },
          {
            "text": "Marthe Gallet"
          }
        ],
        "address": [
          {
            "line": [
              "3, rue Emmanuel Goncalves"
            ],
            "use": "home",
            "type": "physical",
            "postalCode": "49490",
            "city": "Briand",
            "country": "France"
          }
        ],
        "telecom": [
          {
            "system": "phone",
            "value": "+33 1 70 99 82 74"
          }
        ],
        "extension": [
          {
            "url": "http://hl7.org/fhir/StructureDefinition/patient-nationality",
            "valueCodeableConcept": {
              "coding": [
                {
                  "code": "FR",
                  "system": "http://hl7.org/fhir/ValueSet/country"
                }
              ]
            }
          }
        ],
        "text": {
          "status": "generated",
          "div": "<div xmlns=\"http://www.w3.org/1999/xhtml\"><table class=\"hl7__ips\"><tr><td>Marthe Gallet</td><td>female</td><td>29-Oct-1950</td></tr></table></div>"
        },
        "gender": "female",
        "birthDate": "1950-10-29"
      }
    },
    {
      "fullUrl": "urn:uuid:e987485a-c010-46f6-802f-ae407a5c18a4",
      "resource": {
        "resourceType": "ServiceRequest",
        "id": "e987485a-c010-46f6-802f-ae407a5c18a4",
        "meta": {
          "profile": [
            "http://hl7.eu/fhir/laboratory/StructureDefinition/ServiceRequest-eu-lab"
          ]
        },
        "identifier": [
          {
            "system": "http://example.org",
            "value": "c9aa3a89-5b29-470d-b11d-f54638332215"
          }
        ],
        "specimen": [
          {
            "reference": "urn:uuid:63e28435-d09b-436a-914a-5217da20cae1"
          },
          {
            "reference": "urn:uuid:6a08c62f-47a2-493f-8ed8-aa204ff3420e"
          },
          {
            "reference": "urn:uuid:a0e8c939-8dc2-4e55-969c-c2b4da931944"
          }
        ],
        "reasonCode": [
          {
            "coding": [
              {
                "code": "431856006",
                "system": "http://snomed.info/sct",
                "display": "Chronic kidney disease stage 2"
              }
            ]
          },
          {
            "coding": [
              {
                "code": "90781000119102",
                "system": "http://snomed.info/sct",
                "display": "Microalbuminuria due to type 2 diabetes mellitus"
              }
            ]
          },
          {
            "coding": [
              {
                "code": "127013003",
                "system": "http://snomed.info/sct",
                "display": "Disorder of kidney due to diabetes mellitus"
              }
            ]
          },
          {
            "coding": [
              {
                "code": "431855005",
                "system": "http://snomed.info/sct",
                "display": "Chronic kidney disease stage 1"
              }
            ]
          },
          {
            "coding": [
              {
                "code": "55822004",
                "system": "http://snomed.info/sct",
                "display": "Hyperlipidemia"
              }
            ]
          },
          {
            "coding": [
              {
                "code": "59621000",
                "system": "http://snomed.info/sct",
                "display": "Essential hypertension"
              }
            ]
          }
        ],
        "status": "active",
        "intent": "order",
        "code": {
          "coding": [
            {
              "code": "108252007",
              "system": "http://snomed.info/sct",
              "display": "Laboratory procedure"
            }
          ]
        },
        "subject": {
          "reference": "urn:uuid:d2fea0d0-f2cf-4a9a-8533-3cd5a626cf51",
          "display": "Marthe Gallet"
        },
        "requester": {
          "reference": "urn:uuid:41d97bea-2712-4fb4-ae37-f822d7109a67"
        }
      }
    },
    {
      "fullUrl": "urn:uuid:41d97bea-2712-4fb4-ae37-f822d7109a67",
      "resource": {
        "resourceType": "PractitionerRole",
        "id": "41d97bea-2712-4fb4-ae37-f822d7109a67",
        "meta": {
          "profile": [
            "http://hl7.eu/fhir/base/StructureDefinition/practitionerRole-eu"
          ]
        },
        "text": {
          "status": "generated",
          "div": "<div xmlns=\"http://www.w3.org/1999/xhtml\">Provider Role Id: 41d97bea-2712-4fb4-ae37-f822d7109a67</div>"
        },
        "organization": {
          "reference": "urn:uuid:7f48bd56-6431-462a-b218-f027ea70ff9e"
        }
      }
    },
    {
      "fullUrl": "urn:uuid:7f48bd56-6431-462a-b218-f027ea70ff9e",
      "resource": {
        "resourceType": "Organization",
        "id": "7f48bd56-6431-462a-b218-f027ea70ff9e",
        "meta": {
          "profile": [
            "http://hl7.eu/fhir/base/StructureDefinition/organization-eu"
          ]
        },
        "identifier": [
          {
            "assigner": {
              "display": "HL7 Europe"
            },
            "system": "urn:oid:2.16.840.1.113883.2.51.999",
            "value": "4ee4f3c6-e7dc-42b1-bb09-23fac5e5087b"
          }
        ],
        "address": [
          {
            "line": [
              "Rue Larrey nan"
            ],
            "city": "Angers",
            "postalCode": "49100",
            "country": "France"
          }
        ],
        "text": {
          "status": "generated",
          "div": "<div xmlns=\"http://www.w3.org/1999/xhtml\">Provider Organization: CHU d&#039;Angers</div>"
        },
        "name": "CHU d&#039;Angers"
      }
    },
    {
      "fullUrl": "urn:uuid:63e28435-d09b-436a-914a-5217da20cae1",
      "resource": {
        "resourceType": "Specimen",
        "id": "63e28435-d09b-436a-914a-5217da20cae1",
        "meta": {
          "profile": [
            "http://hl7.eu/fhir/laboratory/StructureDefinition/Specimen-eu-lab"
          ]
        },
        "collection": {
          "collectedDateTime": "2024-04-04"
        },
        "text": {
          "status": "generated",
          "div": "<div xmlns=\"http://www.w3.org/1999/xhtml\"><table class=\"hl7__eu__lab__report\"><tr><th>Specimen</th><th>Collection Date</th></tr><tr><td>Whole blood specimen (specimen)</td><td><span class=\"nb\">04-Apr-2024</span></td></tr></table></div>"
        },
        "type": {
          "coding": [
            {
              "code": "258580003",
              "system": "http://snomed.info/sct",
              "display": "Whole blood specimen (specimen)"
            }
          ]
        }
      }
    },
    {
      "fullUrl": "urn:uuid:6a08c62f-47a2-493f-8ed8-aa204ff3420e",
      "resource": {
        "resourceType": "Specimen",
        "id": "6a08c62f-47a2-493f-8ed8-aa204ff3420e",
        "meta": {
          "profile": [
            "http://hl7.eu/fhir/laboratory/StructureDefinition/Specimen-eu-lab"
          ]
        },
        "collection": {
          "collectedDateTime": "2024-04-04"
        },
        "text": {
          "status": "generated",
          "div": "<div xmlns=\"http://www.w3.org/1999/xhtml\"><table class=\"hl7__eu__lab__report\"><tr><th>Specimen</th><th>Collection Date</th></tr><tr><td>Acellular blood (serum or plasma) specimen</td><td><span class=\"nb\">04-Apr-2024</span></td></tr></table></div>"
        },
        "type": {
          "coding": [
            {
              "code": "122592007",
              "system": "http://snomed.info/sct",
              "display": "Acellular blood (serum or plasma) specimen"
            }
          ]
        }
      }
    },
    {
      "fullUrl": "urn:uuid:a0e8c939-8dc2-4e55-969c-c2b4da931944",
      "resource": {
        "resourceType": "Specimen",
        "id": "a0e8c939-8dc2-4e55-969c-c2b4da931944",
        "meta": {
          "profile": [
            "http://hl7.eu/fhir/laboratory/StructureDefinition/Specimen-eu-lab"
          ]
        },
        "collection": {
          "collectedDateTime": "2024-04-04"
        },
        "text": {
          "status": "generated",
          "div": "<div xmlns=\"http://www.w3.org/1999/xhtml\"><table class=\"hl7__eu__lab__report\"><tr><th>Specimen</th><th>Collection Date</th></tr><tr><td>Serum specimen</td><td><span class=\"nb\">04-Apr-2024</span></td></tr></table></div>"
        },
        "type": {
          "coding": [
            {
              "code": "119364003",
              "system": "http://snomed.info/sct",
              "display": "Serum specimen"
            }
          ]
        }
      }
    },
    {
      "fullUrl": "urn:uuid:70e00970-3637-40cb-9a4b-18e1971f4943",
      "resource": {
        "resourceType": "Observation",
        "id": "70e00970-3637-40cb-9a4b-18e1971f4943",
        "meta": {
          "profile": [
            "http://hl7.eu/fhir/laboratory/StructureDefinition/Observation-resultslab-eu-lab"
          ]
        },
        "performer": [
          {
            "display": "The Central European Lab"
          }
        ],
        "category": [
          {
            "coding": [
              {
                "system": "http://terminology.hl7.org/CodeSystem/observation-category",
                "code": "laboratory"
              }
            ]
          }
        ],
        "code": {
          "coding": [
            {
              "code": "2339-0",
              "system": "http://loinc.org",
              "display": "Glucose [Mass/volume] in Blood"
            }
          ],
          "text": "Glucose [Mass/volume] in Blood"
        },
        "valueQuantity": {
          "system": "http://unitsofmeasure.org",
          "value": 64.1,
          "unit": "mg/dL",
          "code": "mg/dL"
        },
        "referenceRange": [
          {
            "low": {
              "value": 70,
              "code": "mg/dL",
              "system": "http://unitsofmeasure.org"
            }
          },
          {
            "high": {
              "value": 99,
              "code": "mg/dL",
              "system": "http://unitsofmeasure.org"
            }
          }
        ],
        "interpretation": [
          {
            "coding": [
              {
                "code": "L",
                "system": "http://terminology.hl7.org/CodeSystem/v3-ObservationInterpretation",
                "display": "Low"
              }
            ]
          }
        ],
        "text": {
          "status": "generated",
          "div": "<div xmlns=\"http://www.w3.org/1999/xhtml\"><table class=\"hl7__eu__lab__report\"><tr><th>Test</th><th>04-Apr-2024</th><th>Reference&#xA0;Range</th><th>Unit</th></tr><tr><td>Glucose [Mass/volume] in Blood</td><td>64.1</td><td>70 - 99</td><td>L</td><td>mg/dL</td></tr></table></div>"
        },
        "status": "final",
        "subject": {
          "reference": "urn:uuid:d2fea0d0-f2cf-4a9a-8533-3cd5a626cf51",
          "display": "Marthe Gallet"
        },
        "effectiveDateTime": "2024-04-04T19:05:43Z",
        "specimen": {
          "reference": "urn:uuid:63e28435-d09b-436a-914a-5217da20cae1"
        }
      }
    },
    {
      "fullUrl": "urn:uuid:bd6af63a-3bc2-4d9e-8d77-ce695fdb072c",
      "resource": {
        "resourceType": "Observation",
        "id": "bd6af63a-3bc2-4d9e-8d77-ce695fdb072c",
        "meta": {
          "profile": [
            "http://hl7.eu/fhir/laboratory/StructureDefinition/Observation-resultslab-eu-lab"
          ]
        },
        "performer": [
          {
            "display": "The Central European Lab"
          }
        ],
        "category": [
          {
            "coding": [
              {
                "system": "http://terminology.hl7.org/CodeSystem/observation-category",
                "code": "laboratory"
              }
            ]
          }
        ],
        "code": {
          "coding": [
            {
              "code": "6299-2",
              "system": "http://loinc.org",
              "display": "Urea nitrogen [Mass/volume] in Blood"
            }
          ],
          "text": "Urea nitrogen [Mass/volume] in Blood"
        },
        "valueQuantity": {
          "system": "http://unitsofmeasure.org",
          "value": 18.4,
          "unit": "mg/dL",
          "code": "mg/dL"
        },
        "referenceRange": [
          {
            "low": {
              "value": 7,
              "code": "mg/dL",
              "system": "http://unitsofmeasure.org"
            }
          },
          {
            "high": {
              "value": 45,
              "code": "mg/dL",
              "system": "http://unitsofmeasure.org"
            }
          }
        ],
        "text": {
          "status": "generated",
          "div": "<div xmlns=\"http://www.w3.org/1999/xhtml\"><table class=\"hl7__eu__lab__report\"><tr><th>Test</th><th>04-Apr-2024</th><th>Reference&#xA0;Range</th><th>Unit</th></tr><tr><td>Urea nitrogen [Mass/volume] in Blood</td><td>18.4</td><td>7 - 45</td><td></td><td>mg/dL</td></tr></table></div>"
        },
        "status": "final",
        "subject": {
          "reference": "urn:uuid:d2fea0d0-f2cf-4a9a-8533-3cd5a626cf51",
          "display": "Marthe Gallet"
        },
        "effectiveDateTime": "2024-04-04T19:05:43Z",
        "specimen": {
          "reference": "urn:uuid:63e28435-d09b-436a-914a-5217da20cae1"
        }
      }
    },
    {
      "fullUrl": "urn:uuid:4a8e33cb-1c5b-4c2d-bfe4-13b96336bce4",
      "resource": {
        "resourceType": "Observation",
        "id": "4a8e33cb-1c5b-4c2d-bfe4-13b96336bce4",
        "meta": {
          "profile": [
            "http://hl7.eu/fhir/laboratory/StructureDefinition/Observation-resultslab-eu-lab"
          ]
        },
        "performer": [
          {
            "display": "The Central European Lab"
          }
        ],
        "category": [
          {
            "coding": [
              {
                "system": "http://terminology.hl7.org/CodeSystem/observation-category",
                "code": "laboratory"
              }
            ]
          }
        ],
        "code": {
          "coding": [
            {
              "code": "38483-4",
              "system": "http://loinc.org",
              "display": "Creatinine [Mass/volume] in Blood"
            }
          ],
          "text": "Creatinine [Mass/volume] in Blood"
        },
        "valueQuantity": {
          "system": "http://unitsofmeasure.org",
          "value": 2.7,
          "unit": "mg/dL",
          "code": "mg/dL"
        },
        "referenceRange": [
          {
            "low": {
              "value": 0.6,
              "code": "mg/dL",
              "system": "http://unitsofmeasure.org"
            }
          },
          {
            "high": {
              "value": 1.1,
              "code": "mg/dL",
              "system": "http://unitsofmeasure.org"
            }
          }
        ],
        "interpretation": [
          {
            "coding": [
              {
                "code": "H",
                "system": "http://terminology.hl7.org/CodeSystem/v3-ObservationInterpretation",
                "display": "High"
              }
            ]
          }
        ],
        "text": {
          "status": "generated",
          "div": "<div xmlns=\"http://www.w3.org/1999/xhtml\"><table class=\"hl7__eu__lab__report\"><tr><th>Test</th><th>04-Apr-2024</th><th>Reference&#xA0;Range</th><th>Unit</th></tr><tr><td>Creatinine [Mass/volume] in Blood</td><td>2.7</td><td>0.6 - 1.1</td><td>H</td><td>mg/dL</td></tr></table></div>"
        },
        "status": "final",
        "subject": {
          "reference": "urn:uuid:d2fea0d0-f2cf-4a9a-8533-3cd5a626cf51",
          "display": "Marthe Gallet"
        },
        "effectiveDateTime": "2024-04-04T19:05:43Z",
        "specimen": {
          "reference": "urn:uuid:63e28435-d09b-436a-914a-5217da20cae1"
        }
      }
    },
    {
      "fullUrl": "urn:uuid:441c0694-3bba-44fa-bb0d-47e5c5f0f075",
      "resource": {
        "resourceType": "Observation",
        "id": "441c0694-3bba-44fa-bb0d-47e5c5f0f075",
        "meta": {
          "profile": [
            "http://hl7.eu/fhir/laboratory/StructureDefinition/Observation-resultslab-eu-lab"
          ]
        },
        "performer": [
          {
            "display": "The Central European Lab"
          }
        ],
        "category": [
          {
            "coding": [
              {
                "system": "http://terminology.hl7.org/CodeSystem/observation-category",
                "code": "laboratory"
              }
            ]
          }
        ],
        "code": {
          "coding": [
            {
              "code": "49765-1",
              "system": "http://loinc.org",
              "display": "Calcium [Mass/volume] in Blood"
            }
          ],
          "text": "Calcium [Mass/volume] in Blood"
        },
        "valueQuantity": {
          "system": "http://unitsofmeasure.org",
          "value": 9.6,
          "unit": "mg/dL",
          "code": "mg/dL"
        },
        "referenceRange": [
          {
            "low": {
              "value": 8.5,
              "code": "mg/dL",
              "system": "http://unitsofmeasure.org"
            }
          },
          {
            "high": {
              "value": 10.4,
              "code": "mg/dL",
              "system": "http://unitsofmeasure.org"
            }
          }
        ],
        "text": {
          "status": "generated",
          "div": "<div xmlns=\"http://www.w3.org/1999/xhtml\"><table class=\"hl7__eu__lab__report\"><tr><th>Test</th><th>04-Apr-2024</th><th>Reference&#xA0;Range</th><th>Unit</th></tr><tr><td>Calcium [Mass/volume] in Blood</td><td>9.6</td><td>8.5 - 10.4</td><td></td><td>mg/dL</td></tr></table></div>"
        },
        "status": "final",
        "subject": {
          "reference": "urn:uuid:d2fea0d0-f2cf-4a9a-8533-3cd5a626cf51",
          "display": "Marthe Gallet"
        },
        "effectiveDateTime": "2024-04-04T19:05:43Z",
        "specimen": {
          "reference": "urn:uuid:63e28435-d09b-436a-914a-5217da20cae1"
        }
      }
    },
    {
      "fullUrl": "urn:uuid:3811961d-115c-483b-8f7f-0a5f4fa88a3e",
      "resource": {
        "resourceType": "Observation",
        "id": "3811961d-115c-483b-8f7f-0a5f4fa88a3e",
        "meta": {
          "profile": [
            "http://hl7.eu/fhir/laboratory/StructureDefinition/Observation-resultslab-eu-lab"
          ]
        },
        "performer": [
          {
            "display": "The Central European Lab"
          }
        ],
        "category": [
          {
            "coding": [
              {
                "system": "http://terminology.hl7.org/CodeSystem/observation-category",
                "code": "laboratory"
              }
            ]
          }
        ],
        "code": {
          "coding": [
            {
              "code": "2947-0",
              "system": "http://loinc.org",
              "display": "Sodium [Moles/volume] in Blood"
            }
          ],
          "text": "Sodium [Moles/volume] in Blood"
        },
        "valueQuantity": {
          "system": "http://unitsofmeasure.org",
          "value": 138.5,
          "unit": "mmol/L",
          "code": "mmol/L"
        },
        "referenceRange": [
          {
            "low": {
              "value": 135,
              "code": "mmol/L",
              "system": "http://unitsofmeasure.org"
            }
          },
          {
            "high": {
              "value": 145,
              "code": "mmol/L",
              "system": "http://unitsofmeasure.org"
            }
          }
        ],
        "text": {
          "status": "generated",
          "div": "<div xmlns=\"http://www.w3.org/1999/xhtml\"><table class=\"hl7__eu__lab__report\"><tr><th>Test</th><th>04-Apr-2024</th><th>Reference&#xA0;Range</th><th>Unit</th></tr><tr><td>Sodium [Moles/volume] in Blood</td><td>138.5</td><td>135 - 145</td><td></td><td>mmol/L</td></tr></table></div>"
        },
        "status": "final",
        "subject": {
          "reference": "urn:uuid:d2fea0d0-f2cf-4a9a-8533-3cd5a626cf51",
          "display": "Marthe Gallet"
        },
        "effectiveDateTime": "2024-04-04T19:05:43Z",
        "specimen": {
          "reference": "urn:uuid:63e28435-d09b-436a-914a-5217da20cae1"
        }
      }
    },
    {
      "fullUrl": "urn:uuid:e0967158-4c22-4233-9391-d693f290c56c",
      "resource": {
        "resourceType": "Observation",
        "id": "e0967158-4c22-4233-9391-d693f290c56c",
        "meta": {
          "profile": [
            "http://hl7.eu/fhir/laboratory/StructureDefinition/Observation-resultslab-eu-lab"
          ]
        },
        "performer": [
          {
            "display": "The Central European Lab"
          }
        ],
        "category": [
          {
            "coding": [
              {
                "system": "http://terminology.hl7.org/CodeSystem/observation-category",
                "code": "laboratory"
              }
            ]
          }
        ],
        "code": {
          "coding": [
            {
              "code": "6298-4",
              "system": "http://loinc.org",
              "display": "Potassium [Moles/volume] in Blood"
            }
          ],
          "text": "Potassium [Moles/volume] in Blood"
        },
        "valueQuantity": {
          "system": "http://unitsofmeasure.org",
          "value": 3.9,
          "unit": "mmol/L",
          "code": "mmol/L"
        },
        "referenceRange": [
          {
            "low": {
              "value": 3.5,
              "code": "mmol/L",
              "system": "http://unitsofmeasure.org"
            }
          },
          {
            "high": {
              "value": 5.1,
              "code": "mmol/L",
              "system": "http://unitsofmeasure.org"
            }
          }
        ],
        "text": {
          "status": "generated",
          "div": "<div xmlns=\"http://www.w3.org/1999/xhtml\"><table class=\"hl7__eu__lab__report\"><tr><th>Test</th><th>04-Apr-2024</th><th>Reference&#xA0;Range</th><th>Unit</th></tr><tr><td>Potassium [Moles/volume] in Blood</td><td>3.9</td><td>3.5 - 5.1</td><td></td><td>mmol/L</td></tr></table></div>"
        },
        "status": "final",
        "subject": {
          "reference": "urn:uuid:d2fea0d0-f2cf-4a9a-8533-3cd5a626cf51",
          "display": "Marthe Gallet"
        },
        "effectiveDateTime": "2024-04-04T19:05:43Z",
        "specimen": {
          "reference": "urn:uuid:63e28435-d09b-436a-914a-5217da20cae1"
        }
      }
    },
    {
      "fullUrl": "urn:uuid:898493df-3fd1-4ca4-a7f7-3ffbf7549368",
      "resource": {
        "resourceType": "Observation",
        "id": "898493df-3fd1-4ca4-a7f7-3ffbf7549368",
        "meta": {
          "profile": [
            "http://hl7.eu/fhir/laboratory/StructureDefinition/Observation-resultslab-eu-lab"
          ]
        },
        "performer": [
          {
            "display": "The Central European Lab"
          }
        ],
        "category": [
          {
            "coding": [
              {
                "system": "http://terminology.hl7.org/CodeSystem/observation-category",
                "code": "laboratory"
              }
            ]
          }
        ],
        "code": {
          "coding": [
            {
              "code": "2069-3",
              "system": "http://loinc.org",
              "display": "Chloride [Moles/volume] in Blood"
            }
          ],
          "text": "Chloride [Moles/volume] in Blood"
        },
        "valueQuantity": {
          "system": "http://unitsofmeasure.org",
          "value": 102.7,
          "unit": "mmol/L",
          "code": "mmol/L"
        },
        "referenceRange": [
          {
            "low": {
              "value": 98,
              "code": "mmol/L",
              "system": "http://unitsofmeasure.org"
            }
          },
          {
            "high": {
              "value": 110,
              "code": "mmol/L",
              "system": "http://unitsofmeasure.org"
            }
          }
        ],
        "text": {
          "status": "generated",
          "div": "<div xmlns=\"http://www.w3.org/1999/xhtml\"><table class=\"hl7__eu__lab__report\"><tr><th>Test</th><th>04-Apr-2024</th><th>Reference&#xA0;Range</th><th>Unit</th></tr><tr><td>Chloride [Moles/volume] in Blood</td><td>102.7</td><td>98 - 110</td><td></td><td>mmol/L</td></tr></table></div>"
        },
        "status": "final",
        "subject": {
          "reference": "urn:uuid:d2fea0d0-f2cf-4a9a-8533-3cd5a626cf51",
          "display": "Marthe Gallet"
        },
        "effectiveDateTime": "2024-04-04T19:05:43Z",
        "specimen": {
          "reference": "urn:uuid:63e28435-d09b-436a-914a-5217da20cae1"
        }
      }
    },
    {
      "fullUrl": "urn:uuid:5573f3ee-4365-46cf-9a85-10c8323fddb4",
      "resource": {
        "resourceType": "Observation",
        "id": "5573f3ee-4365-46cf-9a85-10c8323fddb4",
        "meta": {
          "profile": [
            "http://hl7.eu/fhir/laboratory/StructureDefinition/Observation-resultslab-eu-lab"
          ]
        },
        "performer": [
          {
            "display": "The Central European Lab"
          }
        ],
        "category": [
          {
            "coding": [
              {
                "system": "http://terminology.hl7.org/CodeSystem/observation-category",
                "code": "laboratory"
              }
            ]
          }
        ],
        "code": {
          "coding": [
            {
              "code": "20565-8",
              "system": "http://loinc.org",
              "display": "Carbon dioxide, total [Moles/volume] in Blood"
            }
          ],
          "text": "Carbon dioxide, total [Moles/volume] in Blood"
        },
        "valueQuantity": {
          "system": "http://unitsofmeasure.org",
          "value": 27.1,
          "unit": "mmol/L",
          "code": "mmol/L"
        },
        "referenceRange": [
          {
            "low": {
              "value": 22,
              "code": "mmol/L",
              "system": "http://unitsofmeasure.org"
            }
          },
          {
            "high": {
              "value": 29,
              "code": "mmol/L",
              "system": "http://unitsofmeasure.org"
            }
          }
        ],
        "text": {
          "status": "generated",
          "div": "<div xmlns=\"http://www.w3.org/1999/xhtml\"><table class=\"hl7__eu__lab__report\"><tr><th>Test</th><th>04-Apr-2024</th><th>Reference&#xA0;Range</th><th>Unit</th></tr><tr><td>Carbon dioxide, total [Moles/volume] in Blood</td><td>27.1</td><td>22 - 29</td><td></td><td>mmol/L</td></tr></table></div>"
        },
        "status": "final",
        "subject": {
          "reference": "urn:uuid:d2fea0d0-f2cf-4a9a-8533-3cd5a626cf51",
          "display": "Marthe Gallet"
        },
        "effectiveDateTime": "2024-04-04T19:05:43Z",
        "specimen": {
          "reference": "urn:uuid:63e28435-d09b-436a-914a-5217da20cae1"
        }
      }
    },
    {
      "fullUrl": "urn:uuid:e3a264c0-1f5a-4471-a7bb-4469b036cf2b",
      "resource": {
        "resourceType": "Observation",
        "id": "e3a264c0-1f5a-4471-a7bb-4469b036cf2b",
        "meta": {
          "profile": [
            "http://hl7.eu/fhir/laboratory/StructureDefinition/Observation-resultslab-eu-lab"
          ]
        },
        "performer": [
          {
            "display": "The Central European Lab"
          }
        ],
        "category": [
          {
            "coding": [
              {
                "system": "http://terminology.hl7.org/CodeSystem/observation-category",
                "code": "laboratory"
              }
            ]
          }
        ],
        "code": {
          "coding": [
            {
              "code": "2885-2",
              "system": "http://loinc.org",
              "display": "Protein [Mass/volume] in Serum or Plasma"
            }
          ],
          "text": "Protein [Mass/volume] in Serum or Plasma"
        },
        "valueQuantity": {
          "system": "http://unitsofmeasure.org",
          "value": 6.6,
          "unit": "g/dL",
          "code": "g/dL"
        },
        "referenceRange": [
          {
            "low": {
              "value": 6,
              "code": "g/dL",
              "system": "http://unitsofmeasure.org"
            }
          },
          {
            "high": {
              "value": 8.3,
              "code": "g/dL",
              "system": "http://unitsofmeasure.org"
            }
          }
        ],
        "text": {
          "status": "generated",
          "div": "<div xmlns=\"http://www.w3.org/1999/xhtml\"><table class=\"hl7__eu__lab__report\"><tr><th>Test</th><th>04-Apr-2024</th><th>Reference&#xA0;Range</th><th>Unit</th></tr><tr><td>Protein [Mass/volume] in Serum or Plasma</td><td>6.6</td><td>6 - 8.3</td><td></td><td>g/dL</td></tr></table></div>"
        },
        "status": "final",
        "subject": {
          "reference": "urn:uuid:d2fea0d0-f2cf-4a9a-8533-3cd5a626cf51",
          "display": "Marthe Gallet"
        },
        "effectiveDateTime": "2024-04-04T19:05:43Z",
        "specimen": {
          "reference": "urn:uuid:6a08c62f-47a2-493f-8ed8-aa204ff3420e"
        }
      }
    },
    {
      "fullUrl": "urn:uuid:b2a12082-34df-4089-baed-057ce09fa46e",
      "resource": {
        "resourceType": "Observation",
        "id": "b2a12082-34df-4089-baed-057ce09fa46e",
        "meta": {
          "profile": [
            "http://hl7.eu/fhir/laboratory/StructureDefinition/Observation-resultslab-eu-lab"
          ]
        },
        "performer": [
          {
            "display": "The Central European Lab"
          }
        ],
        "category": [
          {
            "coding": [
              {
                "system": "http://terminology.hl7.org/CodeSystem/observation-category",
                "code": "laboratory"
              }
            ]
          }
        ],
        "code": {
          "coding": [
            {
              "code": "1751-7",
              "system": "http://loinc.org",
              "display": "Albumin [Mass/volume] in Serum or Plasma"
            }
          ],
          "text": "Albumin [Mass/volume] in Serum or Plasma"
        },
        "valueQuantity": {
          "system": "http://unitsofmeasure.org",
          "value": 3.9,
          "unit": "g/dL",
          "code": "g/dL"
        },
        "referenceRange": [
          {
            "low": {
              "value": 3.5,
              "code": "g/dL",
              "system": "http://unitsofmeasure.org"
            }
          },
          {
            "high": {
              "value": 5.5,
              "code": "g/dL",
              "system": "http://unitsofmeasure.org"
            }
          }
        ],
        "text": {
          "status": "generated",
          "div": "<div xmlns=\"http://www.w3.org/1999/xhtml\"><table class=\"hl7__eu__lab__report\"><tr><th>Test</th><th>04-Apr-2024</th><th>Reference&#xA0;Range</th><th>Unit</th></tr><tr><td>Albumin [Mass/volume] in Serum or Plasma</td><td>3.9</td><td>3.5 - 5.5</td><td></td><td>g/dL</td></tr></table></div>"
        },
        "status": "final",
        "subject": {
          "reference": "urn:uuid:d2fea0d0-f2cf-4a9a-8533-3cd5a626cf51",
          "display": "Marthe Gallet"
        },
        "effectiveDateTime": "2024-04-04T19:05:43Z",
        "specimen": {
          "reference": "urn:uuid:6a08c62f-47a2-493f-8ed8-aa204ff3420e"
        }
      }
    },
    {
      "fullUrl": "urn:uuid:515acb2a-4c67-4c97-883f-b7f802d4e0d7",
      "resource": {
        "resourceType": "Observation",
        "id": "515acb2a-4c67-4c97-883f-b7f802d4e0d7",
        "meta": {
          "profile": [
            "http://hl7.eu/fhir/laboratory/StructureDefinition/Observation-resultslab-eu-lab"
          ]
        },
        "performer": [
          {
            "display": "The Central European Lab"
          }
        ],
        "category": [
          {
            "coding": [
              {
                "system": "http://terminology.hl7.org/CodeSystem/observation-category",
                "code": "laboratory"
              }
            ]
          }
        ],
        "code": {
          "coding": [
            {
              "code": "10834-0",
              "system": "http://loinc.org",
              "display": "Globulin [Mass/volume] in Serum by calculation"
            }
          ],
          "text": "Globulin [Mass/volume] in Serum by calculation"
        },
        "valueQuantity": {
          "system": "http://unitsofmeasure.org",
          "value": 3.2,
          "unit": "g/L",
          "code": "g/L"
        },
        "referenceRange": [
          {
            "low": {
              "value": 2,
              "code": "g/L",
              "system": "http://unitsofmeasure.org"
            }
          },
          {
            "high": {
              "value": 3.5,
              "code": "g/L",
              "system": "http://unitsofmeasure.org"
            }
          }
        ],
        "text": {
          "status": "generated",
          "div": "<div xmlns=\"http://www.w3.org/1999/xhtml\"><table class=\"hl7__eu__lab__report\"><tr><th>Test</th><th>04-Apr-2024</th><th>Reference&#xA0;Range</th><th>Unit</th></tr><tr><td>Globulin [Mass/volume] in Serum by calculation</td><td>3.2</td><td>2 - 3.5</td><td></td><td>g/L</td></tr></table></div>"
        },
        "status": "final",
        "subject": {
          "reference": "urn:uuid:d2fea0d0-f2cf-4a9a-8533-3cd5a626cf51",
          "display": "Marthe Gallet"
        },
        "effectiveDateTime": "2024-04-04T19:05:43Z",
        "specimen": {
          "reference": "urn:uuid:a0e8c939-8dc2-4e55-969c-c2b4da931944"
        }
      }
    },
    {
      "fullUrl": "urn:uuid:8c22a214-e4d0-42fc-95fa-febd8c340cd0",
      "resource": {
        "resourceType": "Observation",
        "id": "8c22a214-e4d0-42fc-95fa-febd8c340cd0",
        "meta": {
          "profile": [
            "http://hl7.eu/fhir/laboratory/StructureDefinition/Observation-resultslab-eu-lab"
          ]
        },
        "performer": [
          {
            "display": "The Central European Lab"
          }
        ],
        "category": [
          {
            "coding": [
              {
                "system": "http://terminology.hl7.org/CodeSystem/observation-category",
                "code": "laboratory"
              }
            ]
          }
        ],
        "code": {
          "coding": [
            {
              "code": "1975-2",
              "system": "http://loinc.org",
              "display": "Bilirubin.total [Mass/volume] in Serum or Plasma"
            }
          ],
          "text": "Bilirubin.total [Mass/volume] in Serum or Plasma"
        },
        "valueQuantity": {
          "system": "http://unitsofmeasure.org",
          "value": 0.1,
          "unit": "mg/dL",
          "code": "mg/dL"
        },
        "referenceRange": [
          {
            "low": {
              "value": 0.3,
              "code": "mg/dL",
              "system": "http://unitsofmeasure.org"
            }
          },
          {
            "high": {
              "value": 1.2,
              "code": "mg/dL",
              "system": "http://unitsofmeasure.org"
            }
          }
        ],
        "interpretation": [
          {
            "coding": [
              {
                "code": "L",
                "system": "http://terminology.hl7.org/CodeSystem/v3-ObservationInterpretation",
                "display": "Low"
              }
            ]
          }
        ],
        "text": {
          "status": "generated",
          "div": "<div xmlns=\"http://www.w3.org/1999/xhtml\"><table class=\"hl7__eu__lab__report\"><tr><th>Test</th><th>04-Apr-2024</th><th>Reference&#xA0;Range</th><th>Unit</th></tr><tr><td>Bilirubin.total [Mass/volume] in Serum or Plasma</td><td>0.1</td><td>0.3 - 1.2</td><td>L</td><td>mg/dL</td></tr></table></div>"
        },
        "status": "final",
        "subject": {
          "reference": "urn:uuid:d2fea0d0-f2cf-4a9a-8533-3cd5a626cf51",
          "display": "Marthe Gallet"
        },
        "effectiveDateTime": "2024-04-04T19:05:43Z",
        "specimen": {
          "reference": "urn:uuid:6a08c62f-47a2-493f-8ed8-aa204ff3420e"
        }
      }
    },
    {
      "fullUrl": "urn:uuid:4de901e7-584f-4861-bdf7-018b92037c93",
      "resource": {
        "resourceType": "Observation",
        "id": "4de901e7-584f-4861-bdf7-018b92037c93",
        "meta": {
          "profile": [
            "http://hl7.eu/fhir/laboratory/StructureDefinition/Observation-resultslab-eu-lab"
          ]
        },
        "performer": [
          {
            "display": "The Central European Lab"
          }
        ],
        "category": [
          {
            "coding": [
              {
                "system": "http://terminology.hl7.org/CodeSystem/observation-category",
                "code": "laboratory"
              }
            ]
          }
        ],
        "code": {
          "coding": [
            {
              "code": "6768-6",
              "system": "http://loinc.org",
              "display": "Alkaline phosphatase [Enzymatic activity/volume] in Serum or Plasma"
            }
          ],
          "text": "Alkaline phosphatase [Enzymatic activity/volume] in Serum or Plasma"
        },
        "valueQuantity": {
          "system": "http://unitsofmeasure.org",
          "value": 88.5,
          "unit": "U/L",
          "code": "U/L"
        },
        "referenceRange": [
          {
            "low": {
              "value": 44,
              "code": "U/L",
              "system": "http://unitsofmeasure.org"
            }
          },
          {
            "high": {
              "value": 130,
              "code": "U/L",
              "system": "http://unitsofmeasure.org"
            }
          }
        ],
        "text": {
          "status": "generated",
          "div": "<div xmlns=\"http://www.w3.org/1999/xhtml\"><table class=\"hl7__eu__lab__report\"><tr><th>Test</th><th>04-Apr-2024</th><th>Reference&#xA0;Range</th><th>Unit</th></tr><tr><td>Alkaline phosphatase [Enzymatic activity/volume] in Serum or Plasma</td><td>88.5</td><td>44 - 130</td><td></td><td>U/L</td></tr></table></div>"
        },
        "status": "final",
        "subject": {
          "reference": "urn:uuid:d2fea0d0-f2cf-4a9a-8533-3cd5a626cf51",
          "display": "Marthe Gallet"
        },
        "effectiveDateTime": "2024-04-04T19:05:43Z",
        "specimen": {
          "reference": "urn:uuid:6a08c62f-47a2-493f-8ed8-aa204ff3420e"
        }
      }
    },
    {
      "fullUrl": "urn:uuid:f1ac48ae-268b-41e3-8b5c-3086cfe3c81d",
      "resource": {
        "resourceType": "Observation",
        "id": "f1ac48ae-268b-41e3-8b5c-3086cfe3c81d",
        "meta": {
          "profile": [
            "http://hl7.eu/fhir/laboratory/StructureDefinition/Observation-resultslab-eu-lab"
          ]
        },
        "performer": [
          {
            "display": "The Central European Lab"
          }
        ],
        "category": [
          {
            "coding": [
              {
                "system": "http://terminology.hl7.org/CodeSystem/observation-category",
                "code": "laboratory"
              }
            ]
          }
        ],
        "code": {
          "coding": [
            {
              "code": "1742-6",
              "system": "http://loinc.org",
              "display": "Alanine aminotransferase [Enzymatic activity/volume] in Serum or Plasma"
            }
          ],
          "text": "Alanine aminotransferase [Enzymatic activity/volume] in Serum or Plasma"
        },
        "valueQuantity": {
          "system": "http://unitsofmeasure.org",
          "value": 23.8,
          "unit": "U/L",
          "code": "U/L"
        },
        "referenceRange": [
          {
            "low": {
              "value": 7,
              "code": "U/L",
              "system": "http://unitsofmeasure.org"
            }
          },
          {
            "high": {
              "value": 33,
              "code": "U/L",
              "system": "http://unitsofmeasure.org"
            }
          }
        ],
        "text": {
          "status": "generated",
          "div": "<div xmlns=\"http://www.w3.org/1999/xhtml\"><table class=\"hl7__eu__lab__report\"><tr><th>Test</th><th>04-Apr-2024</th><th>Reference&#xA0;Range</th><th>Unit</th></tr><tr><td>Alanine aminotransferase [Enzymatic activity/volume] in Serum or Plasma</td><td>23.8</td><td>7 - 33</td><td></td><td>U/L</td></tr></table></div>"
        },
        "status": "final",
        "subject": {
          "reference": "urn:uuid:d2fea0d0-f2cf-4a9a-8533-3cd5a626cf51",
          "display": "Marthe Gallet"
        },
        "effectiveDateTime": "2024-04-04T19:05:43Z",
        "specimen": {
          "reference": "urn:uuid:6a08c62f-47a2-493f-8ed8-aa204ff3420e"
        }
      }
    },
    {
      "fullUrl": "urn:uuid:bc587e45-7324-48df-b71d-48db04e3f3bb",
      "resource": {
        "resourceType": "Observation",
        "id": "bc587e45-7324-48df-b71d-48db04e3f3bb",
        "meta": {
          "profile": [
            "http://hl7.eu/fhir/laboratory/StructureDefinition/Observation-resultslab-eu-lab"
          ]
        },
        "performer": [
          {
            "display": "The Central European Lab"
          }
        ],
        "category": [
          {
            "coding": [
              {
                "system": "http://terminology.hl7.org/CodeSystem/observation-category",
                "code": "laboratory"
              }
            ]
          }
        ],
        "code": {
          "coding": [
            {
              "code": "1920-8",
              "system": "http://loinc.org",
              "display": "Aspartate aminotransferase [Enzymatic activity/volume] in Serum or Plasma"
            }
          ],
          "text": "Aspartate aminotransferase [Enzymatic activity/volume] in Serum or Plasma"
        },
        "valueQuantity": {
          "system": "http://unitsofmeasure.org",
          "value": 22.3,
          "unit": "U/L",
          "code": "U/L"
        },
        "referenceRange": [
          {
            "low": {
              "value": 10,
              "code": "U/L",
              "system": "http://unitsofmeasure.org"
            }
          },
          {
            "high": {
              "value": 40,
              "code": "U/L",
              "system": "http://unitsofmeasure.org"
            }
          }
        ],
        "text": {
          "status": "generated",
          "div": "<div xmlns=\"http://www.w3.org/1999/xhtml\"><table class=\"hl7__eu__lab__report\"><tr><th>Test</th><th>04-Apr-2024</th><th>Reference&#xA0;Range</th><th>Unit</th></tr><tr><td>Aspartate aminotransferase [Enzymatic activity/volume] in Serum or Plasma</td><td>22.3</td><td>10 - 40</td><td></td><td>U/L</td></tr></table></div>"
        },
        "status": "final",
        "subject": {
          "reference": "urn:uuid:d2fea0d0-f2cf-4a9a-8533-3cd5a626cf51",
          "display": "Marthe Gallet"
        },
        "effectiveDateTime": "2024-04-04T19:05:43Z",
        "specimen": {
          "reference": "urn:uuid:6a08c62f-47a2-493f-8ed8-aa204ff3420e"
        }
      }
    },
    {
      "fullUrl": "urn:uuid:9d09d9fc-032c-48e8-99bd-51ec8adcca54",
      "resource": {
        "resourceType": "Observation",
        "id": "9d09d9fc-032c-48e8-99bd-51ec8adcca54",
        "meta": {
          "profile": [
            "http://hl7.eu/fhir/laboratory/StructureDefinition/Observation-resultslab-eu-lab"
          ]
        },
        "performer": [
          {
            "display": "The Central European Lab"
          }
        ],
        "category": [
          {
            "coding": [
              {
                "system": "http://terminology.hl7.org/CodeSystem/observation-category",
                "code": "laboratory"
              }
            ]
          }
        ],
        "code": {
          "coding": [
            {
              "code": "2093-3",
              "system": "http://loinc.org",
              "display": "Cholesterol [Mass/volume] in Serum or Plasma"
            }
          ],
          "text": "Cholesterol [Mass/volume] in Serum or Plasma"
        },
        "valueQuantity": {
          "system": "http://unitsofmeasure.org",
          "value": 187.5,
          "unit": "mg/dL",
          "code": "mg/dL"
        },
        "referenceRange": [
          {
            "low": {
              "value": 125,
              "code": "mg/dL",
              "system": "http://unitsofmeasure.org"
            }
          },
          {
            "high": {
              "value": 200,
              "code": "mg/dL",
              "system": "http://unitsofmeasure.org"
            }
          }
        ],
        "text": {
          "status": "generated",
          "div": "<div xmlns=\"http://www.w3.org/1999/xhtml\"><table class=\"hl7__eu__lab__report\"><tr><th>Test</th><th>04-Apr-2024</th><th>Reference&#xA0;Range</th><th>Unit</th></tr><tr><td>Cholesterol [Mass/volume] in Serum or Plasma</td><td>187.5</td><td>125 - 200</td><td></td><td>mg/dL</td></tr></table></div>"
        },
        "status": "final",
        "subject": {
          "reference": "urn:uuid:d2fea0d0-f2cf-4a9a-8533-3cd5a626cf51",
          "display": "Marthe Gallet"
        },
        "effectiveDateTime": "2024-04-04T19:05:43Z",
        "specimen": {
          "reference": "urn:uuid:6a08c62f-47a2-493f-8ed8-aa204ff3420e"
        }
      }
    },
    {
      "fullUrl": "urn:uuid:14f90b17-808e-4270-b6f7-534e10b5dbc4",
      "resource": {
        "resourceType": "Observation",
        "id": "14f90b17-808e-4270-b6f7-534e10b5dbc4",
        "meta": {
          "profile": [
            "http://hl7.eu/fhir/laboratory/StructureDefinition/Observation-resultslab-eu-lab"
          ]
        },
        "performer": [
          {
            "display": "The Central European Lab"
          }
        ],
        "category": [
          {
            "coding": [
              {
                "system": "http://terminology.hl7.org/CodeSystem/observation-category",
                "code": "laboratory"
              }
            ]
          }
        ],
        "code": {
          "coding": [
            {
              "code": "2571-8",
              "system": "http://loinc.org",
              "display": "Triglyceride [Mass/volume] in Serum or Plasma"
            }
          ],
          "text": "Triglyceride [Mass/volume] in Serum or Plasma"
        },
        "valueQuantity": {
          "system": "http://unitsofmeasure.org",
          "value": 163.5,
          "unit": "mg/dL",
          "code": "mg/dL"
        },
        "referenceRange": [
          {
            "low": {
              "value": 10,
              "code": "mg/dL",
              "system": "http://unitsofmeasure.org"
            }
          },
          {
            "high": {
              "value": 175,
              "code": "mg/dL",
              "system": "http://unitsofmeasure.org"
            }
          }
        ],
        "text": {
          "status": "generated",
          "div": "<div xmlns=\"http://www.w3.org/1999/xhtml\"><table class=\"hl7__eu__lab__report\"><tr><th>Test</th><th>04-Apr-2024</th><th>Reference&#xA0;Range</th><th>Unit</th></tr><tr><td>Triglyceride [Mass/volume] in Serum or Plasma</td><td>163.5</td><td>10 - 175</td><td></td><td>mg/dL</td></tr></table></div>"
        },
        "status": "final",
        "subject": {
          "reference": "urn:uuid:d2fea0d0-f2cf-4a9a-8533-3cd5a626cf51",
          "display": "Marthe Gallet"
        },
        "effectiveDateTime": "2024-04-04T19:05:43Z",
        "specimen": {
          "reference": "urn:uuid:6a08c62f-47a2-493f-8ed8-aa204ff3420e"
        }
      }
    },
    {
      "fullUrl": "urn:uuid:6cc9c1cc-cc3e-4517-8236-8149bf7f8e5c",
      "resource": {
        "resourceType": "Observation",
        "id": "6cc9c1cc-cc3e-4517-8236-8149bf7f8e5c",
        "meta": {
          "profile": [
            "http://hl7.eu/fhir/laboratory/StructureDefinition/Observation-resultslab-eu-lab"
          ]
        },
        "performer": [
          {
            "display": "The Central European Lab"
          }
        ],
        "category": [
          {
            "coding": [
              {
                "system": "http://terminology.hl7.org/CodeSystem/observation-category",
                "code": "laboratory"
              }
            ]
          }
        ],
        "code": {
          "coding": [
            {
              "code": "18262-6",
              "system": "http://loinc.org",
              "display": "Cholesterol in LDL [Mass/volume] in Serum or Plasma by Direct assay"
            }
          ],
          "text": "Cholesterol in LDL [Mass/volume] in Serum or Plasma by Direct assay"
        },
        "valueQuantity": {
          "system": "http://unitsofmeasure.org",
          "value": 99.7,
          "unit": "mg/dL",
          "code": "mg/dL"
        },
        "referenceRange": [
          {
            "low": {
              "value": 0,
              "code": "mg/dL",
              "system": "http://unitsofmeasure.org"
            }
          },
          {
            "high": {
              "value": 130,
              "code": "mg/dL",
              "system": "http://unitsofmeasure.org"
            }
          }
        ],
        "text": {
          "status": "generated",
          "div": "<div xmlns=\"http://www.w3.org/1999/xhtml\"><table class=\"hl7__eu__lab__report\"><tr><th>Test</th><th>04-Apr-2024</th><th>Reference&#xA0;Range</th><th>Unit</th></tr><tr><td>Cholesterol in LDL [Mass/volume] in Serum or Plasma by Direct assay</td><td>99.7</td><td>0 - 130</td><td></td><td>mg/dL</td></tr></table></div>"
        },
        "status": "final",
        "subject": {
          "reference": "urn:uuid:d2fea0d0-f2cf-4a9a-8533-3cd5a626cf51",
          "display": "Marthe Gallet"
        },
        "effectiveDateTime": "2024-04-04T19:05:43Z",
        "specimen": {
          "reference": "urn:uuid:6a08c62f-47a2-493f-8ed8-aa204ff3420e"
        }
      }
    },
    {
      "fullUrl": "urn:uuid:4bce1765-ad54-47da-b489-02316cf1b1cd",
      "resource": {
        "resourceType": "Observation",
        "id": "4bce1765-ad54-47da-b489-02316cf1b1cd",
        "meta": {
          "profile": [
            "http://hl7.eu/fhir/laboratory/StructureDefinition/Observation-resultslab-eu-lab"
          ]
        },
        "performer": [
          {
            "display": "The Central European Lab"
          }
        ],
        "category": [
          {
            "coding": [
              {
                "system": "http://terminology.hl7.org/CodeSystem/observation-category",
                "code": "laboratory"
              }
            ]
          }
        ],
        "code": {
          "coding": [
            {
              "code": "2085-9",
              "system": "http://loinc.org",
              "display": "Cholesterol in HDL [Mass/volume] in Serum or Plasma"
            }
          ],
          "text": "Cholesterol in HDL [Mass/volume] in Serum or Plasma"
        },
        "valueQuantity": {
          "system": "http://unitsofmeasure.org",
          "value": 67,
          "unit": "mg/dL",
          "code": "mg/dL"
        },
        "referenceRange": [
          {
            "low": {
              "value": 40,
              "code": "mg/dL",
              "system": "http://unitsofmeasure.org"
            }
          },
          {
            "high": {
              "value": 100,
              "code": "mg/dL",
              "system": "http://unitsofmeasure.org"
            }
          }
        ],
        "text": {
          "status": "generated",
          "div": "<div xmlns=\"http://www.w3.org/1999/xhtml\"><table class=\"hl7__eu__lab__report\"><tr><th>Test</th><th>04-Apr-2024</th><th>Reference&#xA0;Range</th><th>Unit</th></tr><tr><td>Cholesterol in HDL [Mass/volume] in Serum or Plasma</td><td>67.0</td><td>40 - 100</td><td></td><td>mg/dL</td></tr></table></div>"
        },
        "status": "final",
        "subject": {
          "reference": "urn:uuid:d2fea0d0-f2cf-4a9a-8533-3cd5a626cf51",
          "display": "Marthe Gallet"
        },
        "effectiveDateTime": "2024-04-04T19:05:43Z",
        "specimen": {
          "reference": "urn:uuid:6a08c62f-47a2-493f-8ed8-aa204ff3420e"
        }
      }
    },
    {
      "fullUrl": "urn:uuid:b4fb86b8-1df5-4ee7-a3fd-edd006fc1c7b",
      "resource": {
        "resourceType": "Device",
        "id": "b4fb86b8-1df5-4ee7-a3fd-edd006fc1c7b",
        "deviceName": [
          {
            "name": "SYNDERAI Synthetic Generator",
            "type": "manufacturer-name"
          }
        ],
        "version": [
          {
            "value": "5.0"
          }
        ],
        "text": {
          "status": "generated",
          "div": "<div xmlns=\"http://www.w3.org/1999/xhtml\">SYNDERAI Synthetic Generator v5.0</div>"
        },
        "status": "active\"",
        "distinctIdentifier": "synderai-generator-50",
        "manufacturer": "SYNDERAI Project"
      }
    },
    {
      "fullUrl": "urn:uuid:cc09962c-3ab0-40a6-b096-5d7421a06686",
      "resource": {
        "resourceType": "Provenance",
        "id": "cc09962c-3ab0-40a6-b096-5d7421a06686",
        "target": [
          {
            "reference": "Patient/d2fea0d0-f2cf-4a9a-8533-3cd5a626cf51"
          },
          {
            "reference": "Bundle/0ed9b018-124f-4b4c-a403-bb12548c4027"
          },
          {
            "reference": "Composition/31d036e0-9d9a-4a72-b97c-66e99cf6bb99"
          },
          {
            "reference": "PractitionerRole/201ed70b-beb9-4672-9016-ceb3e1b35cf9"
          },
          {
            "reference": "Practitioner/429a6dc8-a7a3-4f5f-aba8-cdc5a2e30b75"
          },
          {
            "reference": "PractitionerRole/41d97bea-2712-4fb4-ae37-f822d7109a67"
          },
          {
            "reference": "Organization/7f48bd56-6431-462a-b218-f027ea70ff9e"
          }
        ],
        "activity": {
          "text": "Synthetic Example Data Generation"
        },
        "policy": [
          "https://synderai.net/synderai-synthetic-data-policy"
        ],
        "agent": [
          {
            "type": {
              "text": "author"
            },
            "who": {
              "reference": "Device/b4fb86b8-1df5-4ee7-a3fd-edd006fc1c7b"
            }
          }
        ],
        "reason": [
          {
            "text": "Interoperability Testing and Training (non-clinical use)"
          }
        ],
        "text": {
          "status": "generated",
          "div": "<div xmlns=\"http://www.w3.org/1999/xhtml\">Provenance for SYNDERAI Synthetic Example Data Resource</div>"
        },
        "recorded": "2024-04-04T21:05:43Z"
      }
    },
    {
      "fullUrl": "urn:uuid:201ed70b-beb9-4672-9016-ceb3e1b35cf9",
      "resource": {
        "resourceType": "PractitionerRole",
        "id": "201ed70b-beb9-4672-9016-ceb3e1b35cf9",
        "meta": {
          "profile": [
            "http://hl7.eu/fhir/base/StructureDefinition/practitionerRole-eu"
          ]
        },
        "text": {
          "status": "generated",
          "div": "<div xmlns=\"http://www.w3.org/1999/xhtml\">Laboratory Role Id: 201ed70b-beb9-4672-9016-ceb3e1b35cf9</div>"
        },
        "practitioner": {
          "reference": "urn:uuid:429a6dc8-a7a3-4f5f-aba8-cdc5a2e30b75"
        }
      }
    },
    {
      "fullUrl": "urn:uuid:429a6dc8-a7a3-4f5f-aba8-cdc5a2e30b75",
      "resource": {
        "resourceType": "Practitioner",
        "id": "429a6dc8-a7a3-4f5f-aba8-cdc5a2e30b75",
        "meta": {
          "profile": [
            "http://hl7.eu/fhir/base/StructureDefinition/practitioner-eu"
          ]
        },
        "identifier": [
          {
            "assigner": {
              "display": "HL7 Europe"
            },
            "system": "urn:oid:2.16.840.1.113883.2.51.999",
            "value": "fd8d2bfb-efbd-444c-bda5-fc09d8b1b73b"
          }
        ],
        "name": [
          {
            "prefix": [
              "dr"
            ],
            "given": [
              "Ex"
            ],
            "family": "Ample"
          }
        ],
        "address": [
          {
            "line": [
              "Laboratoire Central Européenne",
              "Boulevard du Jardin Botanique 32"
            ],
            "postalCode": "1000",
            "city": "Brussels",
            "country": "Belgium"
          }
        ],
        "text": {
          "status": "generated",
          "div": "<div xmlns=\"http://www.w3.org/1999/xhtml\">Laboratory: Laboratoire Central Européenne, 1000 Brussels, Belgium</div>"
        }
      }
    }
  ],
  "type": "document",
  "timestamp": "2024-04-04T21:05:43Z"
}
