{
  "resourceType": "Bundle",
  "id": "699614c7-d057-4cfd-8cbe-07d992f20368",
  "meta": {
    "profile": [
      "http://hl7.eu/fhir/laboratory/StructureDefinition/Bundle-eu-lab"
    ]
  },
  "identifier": {
    "assigner": {
      "display": "HL7 Europe"
    },
    "system": "urn:oid:2.16.840.1.113883.2.51.999",
    "value": "44e0759e-b0d8-4224-91c7-a0319a873eef"
  },
  "entry": [
    {
      "fullUrl": "urn:uuid:e0fdffdb-f07f-449f-ae1f-26f15c98803b",
      "resource": {
        "resourceType": "Composition",
        "id": "e0fdffdb-f07f-449f-ae1f-26f15c98803b",
        "meta": {
          "profile": [
            "http://hl7.eu/fhir/laboratory/StructureDefinition/Composition-eu-lab"
          ]
        },
        "identifier": {
          "assigner": {
            "display": "HL7 Europe"
          },
          "system": "urn:oid:2.16.840.1.113883.2.51.999",
          "value": "4390dc54-ed3a-47f6-aa72-ae1356a76965"
        },
        "author": [
          {
            "reference": "urn:uuid:16e6ae69-2617-4406-b003-f35242f02e6e"
          }
        ],
        "category": [
          {
            "coding": [
              {
                "code": "26436-6",
                "system": "http://loinc.org",
                "display": "Laboratory studies (set)"
              }
            ]
          }
        ],
        "type": {
          "coding": [
            {
              "code": "11502-2",
              "system": "http://loinc.org",
              "display": "Laboratory report"
            }
          ],
          "text": "Laboratory Report"
        },
        "section": [
          {
            "code": {
              "coding": [
                {
                  "code": "26436-6",
                  "system": "http://loinc.org",
                  "display": "Laboratory studies (set)"
                }
              ],
              "text": "Laboratory studies"
            },
            "section": [
              {
                "code": {
                  "coding": [
                    {
                      "code": "$18719-5",
                      "system": "http://loinc.org",
                      "display": "Chemistry studies (set)"
                    }
                  ],
                  "text": "Chemistry"
                },
                "entry": [
                  {
                    "reference": "urn:uuid:8872673c-d873-43f0-9cee-d3c4c22fa2cc"
                  },
                  {
                    "reference": "urn:uuid:2e9eeae8-5cc0-4d19-ac7f-6e0ba552d947"
                  },
                  {
                    "reference": "urn:uuid:b0c6b8e7-3796-4d89-8fa9-bd519938429d"
                  },
                  {
                    "reference": "urn:uuid:e4ec068d-68da-484d-a027-a31fafe0140c"
                  },
                  {
                    "reference": "urn:uuid:a2a9eb46-a3b6-431f-af88-379755e27d1e"
                  },
                  {
                    "reference": "urn:uuid:756dbfd9-59a7-4dde-b551-814259c71ca6"
                  },
                  {
                    "reference": "urn:uuid:1760e339-8cd0-4e02-870b-72fd4bb41859"
                  },
                  {
                    "reference": "urn:uuid:cb451bef-a5f6-40e2-87da-9fc604088061"
                  },
                  {
                    "reference": "urn:uuid:1f2ee06e-b9a5-4dd3-96f1-116f5405a66f"
                  },
                  {
                    "reference": "urn:uuid:ca40c95f-7ffc-4b1f-a08d-35168137d85b"
                  },
                  {
                    "reference": "urn:uuid:25f83e9a-12ac-44b3-8adf-561f8871c382"
                  },
                  {
                    "reference": "urn:uuid:04891f5b-ae91-4536-82be-3181cc928602"
                  },
                  {
                    "reference": "urn:uuid:fd20d822-1728-419b-83e6-ad50a27a74ca"
                  },
                  {
                    "reference": "urn:uuid:13cec15c-137f-43de-8e48-4cdc085a8169"
                  },
                  {
                    "reference": "urn:uuid:4c0b7b41-e677-4e99-9231-4216cdd79e9e"
                  },
                  {
                    "reference": "urn:uuid:42d45ab4-cad3-4ddd-a667-b16cd39b6867"
                  },
                  {
                    "reference": "urn:uuid:501510dd-bc32-4015-9bd1-7cf610545bac"
                  },
                  {
                    "reference": "urn:uuid:b704011b-404e-495c-8c29-b6b9c25df48f"
                  },
                  {
                    "reference": "urn:uuid:91fc43f4-686f-44bf-a49e-38a93605ccd9"
                  }
                ],
                "text": {
                  "status": "generated",
                  "div": "<div xmlns=\"http://www.w3.org/1999/xhtml\"><h3>Chemistry</h3><table class=\"hl7__eu__lab__report\"><thead><tr><th>Test</th><th>22-MAY-2017</th><th>Reference&#xA0;Range</th><th>Unit</th></tr></thead><tbody><tr><td>Cholesterol [Mass/volume] in Serum or Plasma</td><td><strong>237.9 H</strong></td><td>125 - 200</td><td>mg/dL</td></tr><tr><td>Triglyceride [Mass/volume] in Serum or Plasma</td><td><strong>202.7 H</strong></td><td>0 - 150</td><td>mg/dL</td></tr><tr><td>Cholesterol in LDL [Mass/volume] in Serum or Plasma by Direct assay</td><td>102.7</td><td>0 - 130</td><td>mg/dL</td></tr><tr><td>Cholesterol in HDL [Mass/volume] in Serum or Plasma</td><td>46.7</td><td>40 - 100</td><td>mg/dL</td></tr><tr><td>Glucose [Mass/volume] in Blood</td><td><strong>64.8 L</strong></td><td>70 - 99</td><td>mg/dL</td></tr><tr><td>Urea nitrogen [Mass/volume] in Blood</td><td>19.4</td><td>7 - 20</td><td>mg/dL</td></tr><tr><td>Creatinine [Mass/volume] in Blood</td><td><strong>3.2 H</strong></td><td>0.7 - 1.3</td><td>mg/dL</td></tr><tr><td>Calcium [Mass/volume] in Blood</td><td>8.7</td><td>8.5 - 10.5</td><td>mg/dL</td></tr><tr><td>Sodium [Moles/volume] in Blood</td><td>137.0</td><td>135 - 145</td><td>mmol/L</td></tr><tr><td>Potassium [Moles/volume] in Blood</td><td><strong>5.2 H</strong></td><td>3.5 - 5</td><td>mmol/L</td></tr><tr><td>Chloride [Moles/volume] in Blood</td><td><strong>109.6 H</strong></td><td>98 - 107</td><td>mmol/L</td></tr><tr><td>Carbon dioxide, total [Moles/volume] in Blood</td><td>28.5</td><td>24 - 29</td><td>mmol/L</td></tr><tr><td>Protein [Mass/volume] in Serum or Plasma</td><td>6.8</td><td>6.6 - 8.3</td><td>g/dL</td></tr><tr><td>Albumin [Mass/volume] in Serum or Plasma</td><td>5.3</td><td>3.5 - 5.5</td><td>g/dL</td></tr><tr><td>Globulin [Mass/volume] in Serum by calculation</td><td>3.2</td><td>2 - 3.5</td><td>g/L</td></tr><tr><td>Bilirubin.total [Mass/volume] in Serum or Plasma</td><td>1.0</td><td>0.3 - 1.2</td><td>mg/dL</td></tr><tr><td>Alkaline phosphatase [Enzymatic activity/volume] in Serum or Plasma</td><td>94.6</td><td>39 - 136</td><td>U/L</td></tr><tr><td>Alanine aminotransferase [Enzymatic activity/volume] in Serum or Plasma</td><td>43.6</td><td>7 - 52</td><td>U/L</td></tr><tr><td>Aspartate aminotransferase [Enzymatic activity/volume] in Serum or Plasma</td><td><strong>8.7 L</strong></td><td>10 - 40</td><td>U/L</td></tr></tbody></table></div>"
                },
                "title": "Chemistry"
              }
            ],
            "title": "Laboratory Report"
          },
          {
            "text": {
              "status": "generated",
              "div": "<div xmlns=\"http://www.w3.org/1999/xhtml\"><h3>Annotation</h3><table class=\"hl7__eu__lab__report\"><tr><th>Conclusion and Recommendations based on this report and previous findings known to us</th></tr><tr><td>The patient shows elevated total cholesterol and triglycerides, indicating dyslipidemia, and a significantly increased creatinine, suggesting impaired renal function. Potassium and chloride are mildly elevated, which may be related to renal dysfunction. Glucose is slightly low, but other parameters are within normal limits. Clinical correlation and further nephrological and metabolic evaluation are recommended.</td></tr></table></div>"
            },
            "code": {
              "coding": [
                {
                  "system": "http://loinc.org",
                  "code": "48767-8",
                  "display": "Annotation comment"
                }
              ]
            },
            "title": "Annotation comment"
          }
        ],
        "status": "final",
        "subject": {
          "reference": "urn:uuid:8faab260-cc2a-4ff5-9bff-312551d02211",
          "display": "Gioele Fabbri"
        },
        "date": "2017-05-22T17:46:20Z",
        "title": "Laboratory Report",
        "confidentiality": "N"
      }
    },
    {
      "fullUrl": "urn:uuid:7fb7acc9-34dd-4fbd-886e-894b7c867625",
      "resource": {
        "resourceType": "DiagnosticReport",
        "id": "7fb7acc9-34dd-4fbd-886e-894b7c867625",
        "meta": {
          "profile": [
            "http://hl7.eu/fhir/laboratory/StructureDefinition/DiagnosticReport-eu-lab"
          ]
        },
        "identifier": [
          {
            "assigner": {
              "display": "HL7 Europe"
            },
            "system": "urn:oid:2.16.840.1.113883.2.51.999",
            "value": "25161fbd-6f77-4a6a-a14e-0aeb759b2a00"
          }
        ],
        "extension": [
          {
            "url": "http://hl7.org/fhir/5.0/StructureDefinition/extension-DiagnosticReport.composition",
            "valueReference": {
              "reference": "urn:uuid:4390dc54-ed3a-47f6-aa72-ae1356a76965"
            }
          }
        ],
        "category": [
          {
            "coding": [
              {
                "code": "26436-6",
                "system": "http://loinc.org",
                "display": "Laboratory studies (set)"
              }
            ]
          }
        ],
        "specimen": [
          {
            "reference": "urn:uuid:69f392f6-3d56-421f-afb2-2822bb34e452"
          },
          {
            "reference": "urn:uuid:7094edea-f9f8-4336-b97a-eba4faf02227"
          },
          {
            "reference": "urn:uuid:57442dc6-a68c-4b9d-9b93-371b82fb742c"
          }
        ],
        "result": [
          {
            "reference": "urn:uuid:8872673c-d873-43f0-9cee-d3c4c22fa2cc"
          },
          {
            "reference": "urn:uuid:2e9eeae8-5cc0-4d19-ac7f-6e0ba552d947"
          },
          {
            "reference": "urn:uuid:b0c6b8e7-3796-4d89-8fa9-bd519938429d"
          },
          {
            "reference": "urn:uuid:e4ec068d-68da-484d-a027-a31fafe0140c"
          },
          {
            "reference": "urn:uuid:a2a9eb46-a3b6-431f-af88-379755e27d1e"
          },
          {
            "reference": "urn:uuid:756dbfd9-59a7-4dde-b551-814259c71ca6"
          },
          {
            "reference": "urn:uuid:1760e339-8cd0-4e02-870b-72fd4bb41859"
          },
          {
            "reference": "urn:uuid:cb451bef-a5f6-40e2-87da-9fc604088061"
          },
          {
            "reference": "urn:uuid:1f2ee06e-b9a5-4dd3-96f1-116f5405a66f"
          },
          {
            "reference": "urn:uuid:ca40c95f-7ffc-4b1f-a08d-35168137d85b"
          },
          {
            "reference": "urn:uuid:25f83e9a-12ac-44b3-8adf-561f8871c382"
          },
          {
            "reference": "urn:uuid:04891f5b-ae91-4536-82be-3181cc928602"
          },
          {
            "reference": "urn:uuid:fd20d822-1728-419b-83e6-ad50a27a74ca"
          },
          {
            "reference": "urn:uuid:13cec15c-137f-43de-8e48-4cdc085a8169"
          },
          {
            "reference": "urn:uuid:4c0b7b41-e677-4e99-9231-4216cdd79e9e"
          },
          {
            "reference": "urn:uuid:42d45ab4-cad3-4ddd-a667-b16cd39b6867"
          },
          {
            "reference": "urn:uuid:501510dd-bc32-4015-9bd1-7cf610545bac"
          },
          {
            "reference": "urn:uuid:b704011b-404e-495c-8c29-b6b9c25df48f"
          },
          {
            "reference": "urn:uuid:91fc43f4-686f-44bf-a49e-38a93605ccd9"
          }
        ],
        "status": "registered",
        "code": {
          "coding": [
            {
              "code": "11502-2",
              "system": "http://loinc.org",
              "display": "Laboratory report"
            }
          ]
        },
        "subject": {
          "reference": "urn:uuid:8faab260-cc2a-4ff5-9bff-312551d02211",
          "display": "Gioele Fabbri"
        }
      }
    },
    {
      "fullUrl": "urn:uuid:8faab260-cc2a-4ff5-9bff-312551d02211",
      "resource": {
        "resourceType": "Patient",
        "id": "8faab260-cc2a-4ff5-9bff-312551d02211",
        "meta": {
          "security": [
            {
              "system": "http://terminology.hl7.org/CodeSystem/v3-ActReason",
              "code": "HTEST"
            },
            {
              "system": "http://terminology.hl7.org/CodeSystem/v3-ActReason",
              "code": "TRAIN"
            }
          ],
          "tag": [
            {
              "system": "https://synderai.net/fhir/CodeSystem/tags",
              "code": "synthetic",
              "display": "SYNDERAI Synthetic data"
            }
          ],
          "profile": [
            "http://hl7.eu/fhir/base/StructureDefinition/patient-eu-core"
          ]
        },
        "identifier": [
          {
            "type": {
              "coding": [
                {
                  "code": "PT",
                  "system": "http://terminology.hl7.org/CodeSystem/v2-0203"
                }
              ]
            },
            "system": "http://ec.europa.eu/identifier/eci",
            "value": "3631-767680-1"
          },
          {
            "type": {
              "coding": [
                {
                  "code": "MR",
                  "system": "http://terminology.hl7.org/CodeSystem/v2-0203"
                }
              ]
            },
            "system": "http://local.setting.eu/identifier",
            "value": "0a14935e-e0f7-2e1e-46fa-42b10e75d1f9"
          }
        ],
        "name": [
          {
            "family": "Fabbri"
          },
          {
            "given": [
              "Gioele"
            ]
          },
          {
            "text": "Gioele Fabbri"
          }
        ],
        "address": [
          {
            "line": [
              "Canale Armani, 25"
            ],
            "use": "home",
            "type": "physical",
            "postalCode": "23887",
            "city": "Revislate",
            "country": "Italy"
          }
        ],
        "telecom": [
          {
            "system": "phone",
            "value": "+39 0423197768"
          }
        ],
        "extension": [
          {
            "url": "http://hl7.org/fhir/StructureDefinition/patient-nationality",
            "valueCodeableConcept": {
              "coding": [
                {
                  "code": "IT",
                  "system": "http://hl7.org/fhir/ValueSet/country"
                }
              ]
            }
          }
        ],
        "text": {
          "status": "generated",
          "div": "<div xmlns=\"http://www.w3.org/1999/xhtml\"><table class=\"hl7__ips\"><tr><td>Gioele Fabbri</td><td>male</td><td>12-Sep-1972</td></tr></table></div>"
        },
        "gender": "male",
        "birthDate": "1972-09-12"
      }
    },
    {
      "fullUrl": "urn:uuid:e9538ddf-fc2c-4735-89fe-d02236de973b",
      "resource": {
        "resourceType": "ServiceRequest",
        "id": "e9538ddf-fc2c-4735-89fe-d02236de973b",
        "meta": {
          "profile": [
            "http://hl7.eu/fhir/laboratory/StructureDefinition/ServiceRequest-eu-lab"
          ]
        },
        "identifier": [
          {
            "system": "http://example.org",
            "value": "e6ef5330-b1d1-4d12-8f88-454e75dc6975"
          }
        ],
        "specimen": [
          {
            "reference": "urn:uuid:69f392f6-3d56-421f-afb2-2822bb34e452"
          },
          {
            "reference": "urn:uuid:7094edea-f9f8-4336-b97a-eba4faf02227"
          },
          {
            "reference": "urn:uuid:57442dc6-a68c-4b9d-9b93-371b82fb742c"
          }
        ],
        "reasonCode": [
          {
            "coding": [
              {
                "code": "271737000",
                "system": "http://snomed.info/sct",
                "display": "Anemia"
              }
            ]
          },
          {
            "coding": [
              {
                "code": "15777000",
                "system": "http://snomed.info/sct",
                "display": "Prediabetes"
              }
            ]
          },
          {
            "coding": [
              {
                "code": "713197008",
                "system": "http://snomed.info/sct",
                "display": "Recurrent rectal polyp"
              }
            ]
          },
          {
            "coding": [
              {
                "code": "68496003",
                "system": "http://snomed.info/sct",
                "display": "Polyp of colon"
              }
            ]
          },
          {
            "coding": [
              {
                "code": "55822004",
                "system": "http://snomed.info/sct",
                "display": "Hyperlipidemia"
              }
            ]
          },
          {
            "coding": [
              {
                "code": "124171000119105",
                "system": "http://snomed.info/sct",
                "display": "Chronic intractable migraine without aura"
              }
            ]
          }
        ],
        "status": "active",
        "intent": "order",
        "code": {
          "coding": [
            {
              "code": "108252007",
              "system": "http://snomed.info/sct",
              "display": "Laboratory procedure"
            }
          ]
        },
        "subject": {
          "reference": "urn:uuid:8faab260-cc2a-4ff5-9bff-312551d02211",
          "display": "Gioele Fabbri"
        },
        "requester": {
          "reference": "urn:uuid:22dad64a-9af4-455d-9921-60a558597532"
        }
      }
    },
    {
      "fullUrl": "urn:uuid:22dad64a-9af4-455d-9921-60a558597532",
      "resource": {
        "resourceType": "PractitionerRole",
        "id": "22dad64a-9af4-455d-9921-60a558597532",
        "meta": {
          "profile": [
            "http://hl7.eu/fhir/base/StructureDefinition/practitionerRole-eu"
          ]
        },
        "text": {
          "status": "generated",
          "div": "<div xmlns=\"http://www.w3.org/1999/xhtml\">Provider Role Id: 22dad64a-9af4-455d-9921-60a558597532</div>"
        },
        "organization": {
          "reference": "urn:uuid:6d7cbb7c-838a-49a1-a48e-4f10ea70e03d"
        }
      }
    },
    {
      "fullUrl": "urn:uuid:6d7cbb7c-838a-49a1-a48e-4f10ea70e03d",
      "resource": {
        "resourceType": "Organization",
        "id": "6d7cbb7c-838a-49a1-a48e-4f10ea70e03d",
        "meta": {
          "profile": [
            "http://hl7.eu/fhir/base/StructureDefinition/organization-eu"
          ]
        },
        "identifier": [
          {
            "assigner": {
              "display": "HL7 Europe"
            },
            "system": "urn:oid:2.16.840.1.113883.2.51.999",
            "value": "37d2efbf-4a95-4bf3-b51d-7ea4298d5e5d"
          }
        ],
        "address": [
          {
            "line": [
              "Piazza Ospedale 3"
            ],
            "city": "Calcinate",
            "postalCode": "24050",
            "country": "Italy"
          }
        ],
        "text": {
          "status": "generated",
          "div": "<div xmlns=\"http://www.w3.org/1999/xhtml\">Provider Organization: Ospedale di Calcinate &quot;F.M. Passi&quot;</div>"
        },
        "name": "Ospedale di Calcinate &quot;F.M. Passi&quot;"
      }
    },
    {
      "fullUrl": "urn:uuid:69f392f6-3d56-421f-afb2-2822bb34e452",
      "resource": {
        "resourceType": "Specimen",
        "id": "69f392f6-3d56-421f-afb2-2822bb34e452",
        "meta": {
          "profile": [
            "http://hl7.eu/fhir/laboratory/StructureDefinition/Specimen-eu-lab"
          ]
        },
        "collection": {
          "collectedDateTime": "2017-05-22"
        },
        "text": {
          "status": "generated",
          "div": "<div xmlns=\"http://www.w3.org/1999/xhtml\"><table class=\"hl7__eu__lab__report\"><tr><th>Specimen</th><th>Collection Date</th></tr><tr><td>Acellular blood (serum or plasma) specimen</td><td><span class=\"nb\">22-May-2017</span></td></tr></table></div>"
        },
        "type": {
          "coding": [
            {
              "code": "122592007",
              "system": "http://snomed.info/sct",
              "display": "Acellular blood (serum or plasma) specimen"
            }
          ]
        }
      }
    },
    {
      "fullUrl": "urn:uuid:7094edea-f9f8-4336-b97a-eba4faf02227",
      "resource": {
        "resourceType": "Specimen",
        "id": "7094edea-f9f8-4336-b97a-eba4faf02227",
        "meta": {
          "profile": [
            "http://hl7.eu/fhir/laboratory/StructureDefinition/Specimen-eu-lab"
          ]
        },
        "collection": {
          "collectedDateTime": "2017-05-22"
        },
        "text": {
          "status": "generated",
          "div": "<div xmlns=\"http://www.w3.org/1999/xhtml\"><table class=\"hl7__eu__lab__report\"><tr><th>Specimen</th><th>Collection Date</th></tr><tr><td>Whole blood specimen (specimen)</td><td><span class=\"nb\">22-May-2017</span></td></tr></table></div>"
        },
        "type": {
          "coding": [
            {
              "code": "258580003",
              "system": "http://snomed.info/sct",
              "display": "Whole blood specimen (specimen)"
            }
          ]
        }
      }
    },
    {
      "fullUrl": "urn:uuid:57442dc6-a68c-4b9d-9b93-371b82fb742c",
      "resource": {
        "resourceType": "Specimen",
        "id": "57442dc6-a68c-4b9d-9b93-371b82fb742c",
        "meta": {
          "profile": [
            "http://hl7.eu/fhir/laboratory/StructureDefinition/Specimen-eu-lab"
          ]
        },
        "collection": {
          "collectedDateTime": "2017-05-22"
        },
        "text": {
          "status": "generated",
          "div": "<div xmlns=\"http://www.w3.org/1999/xhtml\"><table class=\"hl7__eu__lab__report\"><tr><th>Specimen</th><th>Collection Date</th></tr><tr><td>Serum specimen</td><td><span class=\"nb\">22-May-2017</span></td></tr></table></div>"
        },
        "type": {
          "coding": [
            {
              "code": "119364003",
              "system": "http://snomed.info/sct",
              "display": "Serum specimen"
            }
          ]
        }
      }
    },
    {
      "fullUrl": "urn:uuid:8872673c-d873-43f0-9cee-d3c4c22fa2cc",
      "resource": {
        "resourceType": "Observation",
        "id": "8872673c-d873-43f0-9cee-d3c4c22fa2cc",
        "meta": {
          "profile": [
            "http://hl7.eu/fhir/laboratory/StructureDefinition/Observation-resultslab-eu-lab"
          ]
        },
        "performer": [
          {
            "display": "The Central European Lab"
          }
        ],
        "category": [
          {
            "coding": [
              {
                "system": "http://terminology.hl7.org/CodeSystem/observation-category",
                "code": "laboratory"
              }
            ]
          }
        ],
        "code": {
          "coding": [
            {
              "code": "2093-3",
              "system": "http://loinc.org",
              "display": "Cholesterol [Mass/volume] in Serum or Plasma"
            }
          ],
          "text": "Cholesterol [Mass/volume] in Serum or Plasma"
        },
        "valueQuantity": {
          "system": "http://unitsofmeasure.org",
          "value": 237.9,
          "unit": "mg/dL",
          "code": "mg/dL"
        },
        "referenceRange": [
          {
            "low": {
              "value": 125,
              "code": "mg/dL",
              "system": "http://unitsofmeasure.org"
            }
          },
          {
            "high": {
              "value": 200,
              "code": "mg/dL",
              "system": "http://unitsofmeasure.org"
            }
          }
        ],
        "interpretation": [
          {
            "coding": [
              {
                "code": "H",
                "system": "http://terminology.hl7.org/CodeSystem/v3-ObservationInterpretation",
                "display": "High"
              }
            ]
          }
        ],
        "text": {
          "status": "generated",
          "div": "<div xmlns=\"http://www.w3.org/1999/xhtml\"><table class=\"hl7__eu__lab__report\"><tr><th>Test</th><th>22-May-2017</th><th>Reference&#xA0;Range</th><th>Unit</th></tr><tr><td>Cholesterol [Mass/volume] in Serum or Plasma</td><td>237.9</td><td>125 - 200</td><td>H</td><td>mg/dL</td></tr></table></div>"
        },
        "status": "final",
        "subject": {
          "reference": "urn:uuid:8faab260-cc2a-4ff5-9bff-312551d02211",
          "display": "Gioele Fabbri"
        },
        "effectiveDateTime": "2017-05-22T15:46:20Z",
        "specimen": {
          "reference": "urn:uuid:69f392f6-3d56-421f-afb2-2822bb34e452"
        }
      }
    },
    {
      "fullUrl": "urn:uuid:2e9eeae8-5cc0-4d19-ac7f-6e0ba552d947",
      "resource": {
        "resourceType": "Observation",
        "id": "2e9eeae8-5cc0-4d19-ac7f-6e0ba552d947",
        "meta": {
          "profile": [
            "http://hl7.eu/fhir/laboratory/StructureDefinition/Observation-resultslab-eu-lab"
          ]
        },
        "performer": [
          {
            "display": "The Central European Lab"
          }
        ],
        "category": [
          {
            "coding": [
              {
                "system": "http://terminology.hl7.org/CodeSystem/observation-category",
                "code": "laboratory"
              }
            ]
          }
        ],
        "code": {
          "coding": [
            {
              "code": "2571-8",
              "system": "http://loinc.org",
              "display": "Triglyceride [Mass/volume] in Serum or Plasma"
            }
          ],
          "text": "Triglyceride [Mass/volume] in Serum or Plasma"
        },
        "valueQuantity": {
          "system": "http://unitsofmeasure.org",
          "value": 202.7,
          "unit": "mg/dL",
          "code": "mg/dL"
        },
        "referenceRange": [
          {
            "low": {
              "value": 0,
              "code": "mg/dL",
              "system": "http://unitsofmeasure.org"
            }
          },
          {
            "high": {
              "value": 150,
              "code": "mg/dL",
              "system": "http://unitsofmeasure.org"
            }
          }
        ],
        "interpretation": [
          {
            "coding": [
              {
                "code": "H",
                "system": "http://terminology.hl7.org/CodeSystem/v3-ObservationInterpretation",
                "display": "High"
              }
            ]
          }
        ],
        "text": {
          "status": "generated",
          "div": "<div xmlns=\"http://www.w3.org/1999/xhtml\"><table class=\"hl7__eu__lab__report\"><tr><th>Test</th><th>22-May-2017</th><th>Reference&#xA0;Range</th><th>Unit</th></tr><tr><td>Triglyceride [Mass/volume] in Serum or Plasma</td><td>202.7</td><td>0 - 150</td><td>H</td><td>mg/dL</td></tr></table></div>"
        },
        "status": "final",
        "subject": {
          "reference": "urn:uuid:8faab260-cc2a-4ff5-9bff-312551d02211",
          "display": "Gioele Fabbri"
        },
        "effectiveDateTime": "2017-05-22T15:46:20Z",
        "specimen": {
          "reference": "urn:uuid:69f392f6-3d56-421f-afb2-2822bb34e452"
        }
      }
    },
    {
      "fullUrl": "urn:uuid:b0c6b8e7-3796-4d89-8fa9-bd519938429d",
      "resource": {
        "resourceType": "Observation",
        "id": "b0c6b8e7-3796-4d89-8fa9-bd519938429d",
        "meta": {
          "profile": [
            "http://hl7.eu/fhir/laboratory/StructureDefinition/Observation-resultslab-eu-lab"
          ]
        },
        "performer": [
          {
            "display": "The Central European Lab"
          }
        ],
        "category": [
          {
            "coding": [
              {
                "system": "http://terminology.hl7.org/CodeSystem/observation-category",
                "code": "laboratory"
              }
            ]
          }
        ],
        "code": {
          "coding": [
            {
              "code": "18262-6",
              "system": "http://loinc.org",
              "display": "Cholesterol in LDL [Mass/volume] in Serum or Plasma by Direct assay"
            }
          ],
          "text": "Cholesterol in LDL [Mass/volume] in Serum or Plasma by Direct assay"
        },
        "valueQuantity": {
          "system": "http://unitsofmeasure.org",
          "value": 102.7,
          "unit": "mg/dL",
          "code": "mg/dL"
        },
        "referenceRange": [
          {
            "low": {
              "value": 0,
              "code": "mg/dL",
              "system": "http://unitsofmeasure.org"
            }
          },
          {
            "high": {
              "value": 130,
              "code": "mg/dL",
              "system": "http://unitsofmeasure.org"
            }
          }
        ],
        "text": {
          "status": "generated",
          "div": "<div xmlns=\"http://www.w3.org/1999/xhtml\"><table class=\"hl7__eu__lab__report\"><tr><th>Test</th><th>22-May-2017</th><th>Reference&#xA0;Range</th><th>Unit</th></tr><tr><td>Cholesterol in LDL [Mass/volume] in Serum or Plasma by Direct assay</td><td>102.7</td><td>0 - 130</td><td></td><td>mg/dL</td></tr></table></div>"
        },
        "status": "final",
        "subject": {
          "reference": "urn:uuid:8faab260-cc2a-4ff5-9bff-312551d02211",
          "display": "Gioele Fabbri"
        },
        "effectiveDateTime": "2017-05-22T15:46:20Z",
        "specimen": {
          "reference": "urn:uuid:69f392f6-3d56-421f-afb2-2822bb34e452"
        }
      }
    },
    {
      "fullUrl": "urn:uuid:e4ec068d-68da-484d-a027-a31fafe0140c",
      "resource": {
        "resourceType": "Observation",
        "id": "e4ec068d-68da-484d-a027-a31fafe0140c",
        "meta": {
          "profile": [
            "http://hl7.eu/fhir/laboratory/StructureDefinition/Observation-resultslab-eu-lab"
          ]
        },
        "performer": [
          {
            "display": "The Central European Lab"
          }
        ],
        "category": [
          {
            "coding": [
              {
                "system": "http://terminology.hl7.org/CodeSystem/observation-category",
                "code": "laboratory"
              }
            ]
          }
        ],
        "code": {
          "coding": [
            {
              "code": "2085-9",
              "system": "http://loinc.org",
              "display": "Cholesterol in HDL [Mass/volume] in Serum or Plasma"
            }
          ],
          "text": "Cholesterol in HDL [Mass/volume] in Serum or Plasma"
        },
        "valueQuantity": {
          "system": "http://unitsofmeasure.org",
          "value": 46.7,
          "unit": "mg/dL",
          "code": "mg/dL"
        },
        "referenceRange": [
          {
            "low": {
              "value": 40,
              "code": "mg/dL",
              "system": "http://unitsofmeasure.org"
            }
          },
          {
            "high": {
              "value": 100,
              "code": "mg/dL",
              "system": "http://unitsofmeasure.org"
            }
          }
        ],
        "text": {
          "status": "generated",
          "div": "<div xmlns=\"http://www.w3.org/1999/xhtml\"><table class=\"hl7__eu__lab__report\"><tr><th>Test</th><th>22-May-2017</th><th>Reference&#xA0;Range</th><th>Unit</th></tr><tr><td>Cholesterol in HDL [Mass/volume] in Serum or Plasma</td><td>46.7</td><td>40 - 100</td><td></td><td>mg/dL</td></tr></table></div>"
        },
        "status": "final",
        "subject": {
          "reference": "urn:uuid:8faab260-cc2a-4ff5-9bff-312551d02211",
          "display": "Gioele Fabbri"
        },
        "effectiveDateTime": "2017-05-22T15:46:20Z",
        "specimen": {
          "reference": "urn:uuid:69f392f6-3d56-421f-afb2-2822bb34e452"
        }
      }
    },
    {
      "fullUrl": "urn:uuid:a2a9eb46-a3b6-431f-af88-379755e27d1e",
      "resource": {
        "resourceType": "Observation",
        "id": "a2a9eb46-a3b6-431f-af88-379755e27d1e",
        "meta": {
          "profile": [
            "http://hl7.eu/fhir/laboratory/StructureDefinition/Observation-resultslab-eu-lab"
          ]
        },
        "performer": [
          {
            "display": "The Central European Lab"
          }
        ],
        "category": [
          {
            "coding": [
              {
                "system": "http://terminology.hl7.org/CodeSystem/observation-category",
                "code": "laboratory"
              }
            ]
          }
        ],
        "code": {
          "coding": [
            {
              "code": "2339-0",
              "system": "http://loinc.org",
              "display": "Glucose [Mass/volume] in Blood"
            }
          ],
          "text": "Glucose [Mass/volume] in Blood"
        },
        "valueQuantity": {
          "system": "http://unitsofmeasure.org",
          "value": 64.8,
          "unit": "mg/dL",
          "code": "mg/dL"
        },
        "referenceRange": [
          {
            "low": {
              "value": 70,
              "code": "mg/dL",
              "system": "http://unitsofmeasure.org"
            }
          },
          {
            "high": {
              "value": 99,
              "code": "mg/dL",
              "system": "http://unitsofmeasure.org"
            }
          }
        ],
        "interpretation": [
          {
            "coding": [
              {
                "code": "L",
                "system": "http://terminology.hl7.org/CodeSystem/v3-ObservationInterpretation",
                "display": "Low"
              }
            ]
          }
        ],
        "text": {
          "status": "generated",
          "div": "<div xmlns=\"http://www.w3.org/1999/xhtml\"><table class=\"hl7__eu__lab__report\"><tr><th>Test</th><th>22-May-2017</th><th>Reference&#xA0;Range</th><th>Unit</th></tr><tr><td>Glucose [Mass/volume] in Blood</td><td>64.8</td><td>70 - 99</td><td>L</td><td>mg/dL</td></tr></table></div>"
        },
        "status": "final",
        "subject": {
          "reference": "urn:uuid:8faab260-cc2a-4ff5-9bff-312551d02211",
          "display": "Gioele Fabbri"
        },
        "effectiveDateTime": "2017-05-22T15:46:20Z",
        "specimen": {
          "reference": "urn:uuid:7094edea-f9f8-4336-b97a-eba4faf02227"
        }
      }
    },
    {
      "fullUrl": "urn:uuid:756dbfd9-59a7-4dde-b551-814259c71ca6",
      "resource": {
        "resourceType": "Observation",
        "id": "756dbfd9-59a7-4dde-b551-814259c71ca6",
        "meta": {
          "profile": [
            "http://hl7.eu/fhir/laboratory/StructureDefinition/Observation-resultslab-eu-lab"
          ]
        },
        "performer": [
          {
            "display": "The Central European Lab"
          }
        ],
        "category": [
          {
            "coding": [
              {
                "system": "http://terminology.hl7.org/CodeSystem/observation-category",
                "code": "laboratory"
              }
            ]
          }
        ],
        "code": {
          "coding": [
            {
              "code": "6299-2",
              "system": "http://loinc.org",
              "display": "Urea nitrogen [Mass/volume] in Blood"
            }
          ],
          "text": "Urea nitrogen [Mass/volume] in Blood"
        },
        "valueQuantity": {
          "system": "http://unitsofmeasure.org",
          "value": 19.4,
          "unit": "mg/dL",
          "code": "mg/dL"
        },
        "referenceRange": [
          {
            "low": {
              "value": 7,
              "code": "mg/dL",
              "system": "http://unitsofmeasure.org"
            }
          },
          {
            "high": {
              "value": 20,
              "code": "mg/dL",
              "system": "http://unitsofmeasure.org"
            }
          }
        ],
        "text": {
          "status": "generated",
          "div": "<div xmlns=\"http://www.w3.org/1999/xhtml\"><table class=\"hl7__eu__lab__report\"><tr><th>Test</th><th>22-May-2017</th><th>Reference&#xA0;Range</th><th>Unit</th></tr><tr><td>Urea nitrogen [Mass/volume] in Blood</td><td>19.4</td><td>7 - 20</td><td></td><td>mg/dL</td></tr></table></div>"
        },
        "status": "final",
        "subject": {
          "reference": "urn:uuid:8faab260-cc2a-4ff5-9bff-312551d02211",
          "display": "Gioele Fabbri"
        },
        "effectiveDateTime": "2017-05-22T15:46:20Z",
        "specimen": {
          "reference": "urn:uuid:7094edea-f9f8-4336-b97a-eba4faf02227"
        }
      }
    },
    {
      "fullUrl": "urn:uuid:1760e339-8cd0-4e02-870b-72fd4bb41859",
      "resource": {
        "resourceType": "Observation",
        "id": "1760e339-8cd0-4e02-870b-72fd4bb41859",
        "meta": {
          "profile": [
            "http://hl7.eu/fhir/laboratory/StructureDefinition/Observation-resultslab-eu-lab"
          ]
        },
        "performer": [
          {
            "display": "The Central European Lab"
          }
        ],
        "category": [
          {
            "coding": [
              {
                "system": "http://terminology.hl7.org/CodeSystem/observation-category",
                "code": "laboratory"
              }
            ]
          }
        ],
        "code": {
          "coding": [
            {
              "code": "38483-4",
              "system": "http://loinc.org",
              "display": "Creatinine [Mass/volume] in Blood"
            }
          ],
          "text": "Creatinine [Mass/volume] in Blood"
        },
        "valueQuantity": {
          "system": "http://unitsofmeasure.org",
          "value": 3.2,
          "unit": "mg/dL",
          "code": "mg/dL"
        },
        "referenceRange": [
          {
            "low": {
              "value": 0.7,
              "code": "mg/dL",
              "system": "http://unitsofmeasure.org"
            }
          },
          {
            "high": {
              "value": 1.3,
              "code": "mg/dL",
              "system": "http://unitsofmeasure.org"
            }
          }
        ],
        "interpretation": [
          {
            "coding": [
              {
                "code": "H",
                "system": "http://terminology.hl7.org/CodeSystem/v3-ObservationInterpretation",
                "display": "High"
              }
            ]
          }
        ],
        "text": {
          "status": "generated",
          "div": "<div xmlns=\"http://www.w3.org/1999/xhtml\"><table class=\"hl7__eu__lab__report\"><tr><th>Test</th><th>22-May-2017</th><th>Reference&#xA0;Range</th><th>Unit</th></tr><tr><td>Creatinine [Mass/volume] in Blood</td><td>3.2</td><td>0.7 - 1.3</td><td>H</td><td>mg/dL</td></tr></table></div>"
        },
        "status": "final",
        "subject": {
          "reference": "urn:uuid:8faab260-cc2a-4ff5-9bff-312551d02211",
          "display": "Gioele Fabbri"
        },
        "effectiveDateTime": "2017-05-22T15:46:20Z",
        "specimen": {
          "reference": "urn:uuid:7094edea-f9f8-4336-b97a-eba4faf02227"
        }
      }
    },
    {
      "fullUrl": "urn:uuid:cb451bef-a5f6-40e2-87da-9fc604088061",
      "resource": {
        "resourceType": "Observation",
        "id": "cb451bef-a5f6-40e2-87da-9fc604088061",
        "meta": {
          "profile": [
            "http://hl7.eu/fhir/laboratory/StructureDefinition/Observation-resultslab-eu-lab"
          ]
        },
        "performer": [
          {
            "display": "The Central European Lab"
          }
        ],
        "category": [
          {
            "coding": [
              {
                "system": "http://terminology.hl7.org/CodeSystem/observation-category",
                "code": "laboratory"
              }
            ]
          }
        ],
        "code": {
          "coding": [
            {
              "code": "49765-1",
              "system": "http://loinc.org",
              "display": "Calcium [Mass/volume] in Blood"
            }
          ],
          "text": "Calcium [Mass/volume] in Blood"
        },
        "valueQuantity": {
          "system": "http://unitsofmeasure.org",
          "value": 8.7,
          "unit": "mg/dL",
          "code": "mg/dL"
        },
        "referenceRange": [
          {
            "low": {
              "value": 8.5,
              "code": "mg/dL",
              "system": "http://unitsofmeasure.org"
            }
          },
          {
            "high": {
              "value": 10.5,
              "code": "mg/dL",
              "system": "http://unitsofmeasure.org"
            }
          }
        ],
        "text": {
          "status": "generated",
          "div": "<div xmlns=\"http://www.w3.org/1999/xhtml\"><table class=\"hl7__eu__lab__report\"><tr><th>Test</th><th>22-May-2017</th><th>Reference&#xA0;Range</th><th>Unit</th></tr><tr><td>Calcium [Mass/volume] in Blood</td><td>8.7</td><td>8.5 - 10.5</td><td></td><td>mg/dL</td></tr></table></div>"
        },
        "status": "final",
        "subject": {
          "reference": "urn:uuid:8faab260-cc2a-4ff5-9bff-312551d02211",
          "display": "Gioele Fabbri"
        },
        "effectiveDateTime": "2017-05-22T15:46:20Z",
        "specimen": {
          "reference": "urn:uuid:7094edea-f9f8-4336-b97a-eba4faf02227"
        }
      }
    },
    {
      "fullUrl": "urn:uuid:1f2ee06e-b9a5-4dd3-96f1-116f5405a66f",
      "resource": {
        "resourceType": "Observation",
        "id": "1f2ee06e-b9a5-4dd3-96f1-116f5405a66f",
        "meta": {
          "profile": [
            "http://hl7.eu/fhir/laboratory/StructureDefinition/Observation-resultslab-eu-lab"
          ]
        },
        "performer": [
          {
            "display": "The Central European Lab"
          }
        ],
        "category": [
          {
            "coding": [
              {
                "system": "http://terminology.hl7.org/CodeSystem/observation-category",
                "code": "laboratory"
              }
            ]
          }
        ],
        "code": {
          "coding": [
            {
              "code": "2947-0",
              "system": "http://loinc.org",
              "display": "Sodium [Moles/volume] in Blood"
            }
          ],
          "text": "Sodium [Moles/volume] in Blood"
        },
        "valueQuantity": {
          "system": "http://unitsofmeasure.org",
          "value": 137,
          "unit": "mmol/L",
          "code": "mmol/L"
        },
        "referenceRange": [
          {
            "low": {
              "value": 135,
              "code": "mmol/L",
              "system": "http://unitsofmeasure.org"
            }
          },
          {
            "high": {
              "value": 145,
              "code": "mmol/L",
              "system": "http://unitsofmeasure.org"
            }
          }
        ],
        "text": {
          "status": "generated",
          "div": "<div xmlns=\"http://www.w3.org/1999/xhtml\"><table class=\"hl7__eu__lab__report\"><tr><th>Test</th><th>22-May-2017</th><th>Reference&#xA0;Range</th><th>Unit</th></tr><tr><td>Sodium [Moles/volume] in Blood</td><td>137.0</td><td>135 - 145</td><td></td><td>mmol/L</td></tr></table></div>"
        },
        "status": "final",
        "subject": {
          "reference": "urn:uuid:8faab260-cc2a-4ff5-9bff-312551d02211",
          "display": "Gioele Fabbri"
        },
        "effectiveDateTime": "2017-05-22T15:46:20Z",
        "specimen": {
          "reference": "urn:uuid:7094edea-f9f8-4336-b97a-eba4faf02227"
        }
      }
    },
    {
      "fullUrl": "urn:uuid:ca40c95f-7ffc-4b1f-a08d-35168137d85b",
      "resource": {
        "resourceType": "Observation",
        "id": "ca40c95f-7ffc-4b1f-a08d-35168137d85b",
        "meta": {
          "profile": [
            "http://hl7.eu/fhir/laboratory/StructureDefinition/Observation-resultslab-eu-lab"
          ]
        },
        "performer": [
          {
            "display": "The Central European Lab"
          }
        ],
        "category": [
          {
            "coding": [
              {
                "system": "http://terminology.hl7.org/CodeSystem/observation-category",
                "code": "laboratory"
              }
            ]
          }
        ],
        "code": {
          "coding": [
            {
              "code": "6298-4",
              "system": "http://loinc.org",
              "display": "Potassium [Moles/volume] in Blood"
            }
          ],
          "text": "Potassium [Moles/volume] in Blood"
        },
        "valueQuantity": {
          "system": "http://unitsofmeasure.org",
          "value": 5.2,
          "unit": "mmol/L",
          "code": "mmol/L"
        },
        "referenceRange": [
          {
            "low": {
              "value": 3.5,
              "code": "mmol/L",
              "system": "http://unitsofmeasure.org"
            }
          },
          {
            "high": {
              "value": 5,
              "code": "mmol/L",
              "system": "http://unitsofmeasure.org"
            }
          }
        ],
        "interpretation": [
          {
            "coding": [
              {
                "code": "H",
                "system": "http://terminology.hl7.org/CodeSystem/v3-ObservationInterpretation",
                "display": "High"
              }
            ]
          }
        ],
        "text": {
          "status": "generated",
          "div": "<div xmlns=\"http://www.w3.org/1999/xhtml\"><table class=\"hl7__eu__lab__report\"><tr><th>Test</th><th>22-May-2017</th><th>Reference&#xA0;Range</th><th>Unit</th></tr><tr><td>Potassium [Moles/volume] in Blood</td><td>5.2</td><td>3.5 - 5</td><td>H</td><td>mmol/L</td></tr></table></div>"
        },
        "status": "final",
        "subject": {
          "reference": "urn:uuid:8faab260-cc2a-4ff5-9bff-312551d02211",
          "display": "Gioele Fabbri"
        },
        "effectiveDateTime": "2017-05-22T15:46:20Z",
        "specimen": {
          "reference": "urn:uuid:7094edea-f9f8-4336-b97a-eba4faf02227"
        }
      }
    },
    {
      "fullUrl": "urn:uuid:25f83e9a-12ac-44b3-8adf-561f8871c382",
      "resource": {
        "resourceType": "Observation",
        "id": "25f83e9a-12ac-44b3-8adf-561f8871c382",
        "meta": {
          "profile": [
            "http://hl7.eu/fhir/laboratory/StructureDefinition/Observation-resultslab-eu-lab"
          ]
        },
        "performer": [
          {
            "display": "The Central European Lab"
          }
        ],
        "category": [
          {
            "coding": [
              {
                "system": "http://terminology.hl7.org/CodeSystem/observation-category",
                "code": "laboratory"
              }
            ]
          }
        ],
        "code": {
          "coding": [
            {
              "code": "2069-3",
              "system": "http://loinc.org",
              "display": "Chloride [Moles/volume] in Blood"
            }
          ],
          "text": "Chloride [Moles/volume] in Blood"
        },
        "valueQuantity": {
          "system": "http://unitsofmeasure.org",
          "value": 109.6,
          "unit": "mmol/L",
          "code": "mmol/L"
        },
        "referenceRange": [
          {
            "low": {
              "value": 98,
              "code": "mmol/L",
              "system": "http://unitsofmeasure.org"
            }
          },
          {
            "high": {
              "value": 107,
              "code": "mmol/L",
              "system": "http://unitsofmeasure.org"
            }
          }
        ],
        "interpretation": [
          {
            "coding": [
              {
                "code": "H",
                "system": "http://terminology.hl7.org/CodeSystem/v3-ObservationInterpretation",
                "display": "High"
              }
            ]
          }
        ],
        "text": {
          "status": "generated",
          "div": "<div xmlns=\"http://www.w3.org/1999/xhtml\"><table class=\"hl7__eu__lab__report\"><tr><th>Test</th><th>22-May-2017</th><th>Reference&#xA0;Range</th><th>Unit</th></tr><tr><td>Chloride [Moles/volume] in Blood</td><td>109.6</td><td>98 - 107</td><td>H</td><td>mmol/L</td></tr></table></div>"
        },
        "status": "final",
        "subject": {
          "reference": "urn:uuid:8faab260-cc2a-4ff5-9bff-312551d02211",
          "display": "Gioele Fabbri"
        },
        "effectiveDateTime": "2017-05-22T15:46:20Z",
        "specimen": {
          "reference": "urn:uuid:7094edea-f9f8-4336-b97a-eba4faf02227"
        }
      }
    },
    {
      "fullUrl": "urn:uuid:04891f5b-ae91-4536-82be-3181cc928602",
      "resource": {
        "resourceType": "Observation",
        "id": "04891f5b-ae91-4536-82be-3181cc928602",
        "meta": {
          "profile": [
            "http://hl7.eu/fhir/laboratory/StructureDefinition/Observation-resultslab-eu-lab"
          ]
        },
        "performer": [
          {
            "display": "The Central European Lab"
          }
        ],
        "category": [
          {
            "coding": [
              {
                "system": "http://terminology.hl7.org/CodeSystem/observation-category",
                "code": "laboratory"
              }
            ]
          }
        ],
        "code": {
          "coding": [
            {
              "code": "20565-8",
              "system": "http://loinc.org",
              "display": "Carbon dioxide, total [Moles/volume] in Blood"
            }
          ],
          "text": "Carbon dioxide, total [Moles/volume] in Blood"
        },
        "valueQuantity": {
          "system": "http://unitsofmeasure.org",
          "value": 28.5,
          "unit": "mmol/L",
          "code": "mmol/L"
        },
        "referenceRange": [
          {
            "low": {
              "value": 24,
              "code": "mmol/L",
              "system": "http://unitsofmeasure.org"
            }
          },
          {
            "high": {
              "value": 29,
              "code": "mmol/L",
              "system": "http://unitsofmeasure.org"
            }
          }
        ],
        "text": {
          "status": "generated",
          "div": "<div xmlns=\"http://www.w3.org/1999/xhtml\"><table class=\"hl7__eu__lab__report\"><tr><th>Test</th><th>22-May-2017</th><th>Reference&#xA0;Range</th><th>Unit</th></tr><tr><td>Carbon dioxide, total [Moles/volume] in Blood</td><td>28.5</td><td>24 - 29</td><td></td><td>mmol/L</td></tr></table></div>"
        },
        "status": "final",
        "subject": {
          "reference": "urn:uuid:8faab260-cc2a-4ff5-9bff-312551d02211",
          "display": "Gioele Fabbri"
        },
        "effectiveDateTime": "2017-05-22T15:46:20Z",
        "specimen": {
          "reference": "urn:uuid:7094edea-f9f8-4336-b97a-eba4faf02227"
        }
      }
    },
    {
      "fullUrl": "urn:uuid:fd20d822-1728-419b-83e6-ad50a27a74ca",
      "resource": {
        "resourceType": "Observation",
        "id": "fd20d822-1728-419b-83e6-ad50a27a74ca",
        "meta": {
          "profile": [
            "http://hl7.eu/fhir/laboratory/StructureDefinition/Observation-resultslab-eu-lab"
          ]
        },
        "performer": [
          {
            "display": "The Central European Lab"
          }
        ],
        "category": [
          {
            "coding": [
              {
                "system": "http://terminology.hl7.org/CodeSystem/observation-category",
                "code": "laboratory"
              }
            ]
          }
        ],
        "code": {
          "coding": [
            {
              "code": "2885-2",
              "system": "http://loinc.org",
              "display": "Protein [Mass/volume] in Serum or Plasma"
            }
          ],
          "text": "Protein [Mass/volume] in Serum or Plasma"
        },
        "valueQuantity": {
          "system": "http://unitsofmeasure.org",
          "value": 6.8,
          "unit": "g/dL",
          "code": "g/dL"
        },
        "referenceRange": [
          {
            "low": {
              "value": 6.6,
              "code": "g/dL",
              "system": "http://unitsofmeasure.org"
            }
          },
          {
            "high": {
              "value": 8.3,
              "code": "g/dL",
              "system": "http://unitsofmeasure.org"
            }
          }
        ],
        "text": {
          "status": "generated",
          "div": "<div xmlns=\"http://www.w3.org/1999/xhtml\"><table class=\"hl7__eu__lab__report\"><tr><th>Test</th><th>22-May-2017</th><th>Reference&#xA0;Range</th><th>Unit</th></tr><tr><td>Protein [Mass/volume] in Serum or Plasma</td><td>6.8</td><td>6.6 - 8.3</td><td></td><td>g/dL</td></tr></table></div>"
        },
        "status": "final",
        "subject": {
          "reference": "urn:uuid:8faab260-cc2a-4ff5-9bff-312551d02211",
          "display": "Gioele Fabbri"
        },
        "effectiveDateTime": "2017-05-22T15:46:20Z",
        "specimen": {
          "reference": "urn:uuid:69f392f6-3d56-421f-afb2-2822bb34e452"
        }
      }
    },
    {
      "fullUrl": "urn:uuid:13cec15c-137f-43de-8e48-4cdc085a8169",
      "resource": {
        "resourceType": "Observation",
        "id": "13cec15c-137f-43de-8e48-4cdc085a8169",
        "meta": {
          "profile": [
            "http://hl7.eu/fhir/laboratory/StructureDefinition/Observation-resultslab-eu-lab"
          ]
        },
        "performer": [
          {
            "display": "The Central European Lab"
          }
        ],
        "category": [
          {
            "coding": [
              {
                "system": "http://terminology.hl7.org/CodeSystem/observation-category",
                "code": "laboratory"
              }
            ]
          }
        ],
        "code": {
          "coding": [
            {
              "code": "1751-7",
              "system": "http://loinc.org",
              "display": "Albumin [Mass/volume] in Serum or Plasma"
            }
          ],
          "text": "Albumin [Mass/volume] in Serum or Plasma"
        },
        "valueQuantity": {
          "system": "http://unitsofmeasure.org",
          "value": 5.3,
          "unit": "g/dL",
          "code": "g/dL"
        },
        "referenceRange": [
          {
            "low": {
              "value": 3.5,
              "code": "g/dL",
              "system": "http://unitsofmeasure.org"
            }
          },
          {
            "high": {
              "value": 5.5,
              "code": "g/dL",
              "system": "http://unitsofmeasure.org"
            }
          }
        ],
        "text": {
          "status": "generated",
          "div": "<div xmlns=\"http://www.w3.org/1999/xhtml\"><table class=\"hl7__eu__lab__report\"><tr><th>Test</th><th>22-May-2017</th><th>Reference&#xA0;Range</th><th>Unit</th></tr><tr><td>Albumin [Mass/volume] in Serum or Plasma</td><td>5.3</td><td>3.5 - 5.5</td><td></td><td>g/dL</td></tr></table></div>"
        },
        "status": "final",
        "subject": {
          "reference": "urn:uuid:8faab260-cc2a-4ff5-9bff-312551d02211",
          "display": "Gioele Fabbri"
        },
        "effectiveDateTime": "2017-05-22T15:46:20Z",
        "specimen": {
          "reference": "urn:uuid:69f392f6-3d56-421f-afb2-2822bb34e452"
        }
      }
    },
    {
      "fullUrl": "urn:uuid:4c0b7b41-e677-4e99-9231-4216cdd79e9e",
      "resource": {
        "resourceType": "Observation",
        "id": "4c0b7b41-e677-4e99-9231-4216cdd79e9e",
        "meta": {
          "profile": [
            "http://hl7.eu/fhir/laboratory/StructureDefinition/Observation-resultslab-eu-lab"
          ]
        },
        "performer": [
          {
            "display": "The Central European Lab"
          }
        ],
        "category": [
          {
            "coding": [
              {
                "system": "http://terminology.hl7.org/CodeSystem/observation-category",
                "code": "laboratory"
              }
            ]
          }
        ],
        "code": {
          "coding": [
            {
              "code": "10834-0",
              "system": "http://loinc.org",
              "display": "Globulin [Mass/volume] in Serum by calculation"
            }
          ],
          "text": "Globulin [Mass/volume] in Serum by calculation"
        },
        "valueQuantity": {
          "system": "http://unitsofmeasure.org",
          "value": 3.2,
          "unit": "g/L",
          "code": "g/L"
        },
        "referenceRange": [
          {
            "low": {
              "value": 2,
              "code": "g/L",
              "system": "http://unitsofmeasure.org"
            }
          },
          {
            "high": {
              "value": 3.5,
              "code": "g/L",
              "system": "http://unitsofmeasure.org"
            }
          }
        ],
        "text": {
          "status": "generated",
          "div": "<div xmlns=\"http://www.w3.org/1999/xhtml\"><table class=\"hl7__eu__lab__report\"><tr><th>Test</th><th>22-May-2017</th><th>Reference&#xA0;Range</th><th>Unit</th></tr><tr><td>Globulin [Mass/volume] in Serum by calculation</td><td>3.2</td><td>2 - 3.5</td><td></td><td>g/L</td></tr></table></div>"
        },
        "status": "final",
        "subject": {
          "reference": "urn:uuid:8faab260-cc2a-4ff5-9bff-312551d02211",
          "display": "Gioele Fabbri"
        },
        "effectiveDateTime": "2017-05-22T15:46:20Z",
        "specimen": {
          "reference": "urn:uuid:57442dc6-a68c-4b9d-9b93-371b82fb742c"
        }
      }
    },
    {
      "fullUrl": "urn:uuid:42d45ab4-cad3-4ddd-a667-b16cd39b6867",
      "resource": {
        "resourceType": "Observation",
        "id": "42d45ab4-cad3-4ddd-a667-b16cd39b6867",
        "meta": {
          "profile": [
            "http://hl7.eu/fhir/laboratory/StructureDefinition/Observation-resultslab-eu-lab"
          ]
        },
        "performer": [
          {
            "display": "The Central European Lab"
          }
        ],
        "category": [
          {
            "coding": [
              {
                "system": "http://terminology.hl7.org/CodeSystem/observation-category",
                "code": "laboratory"
              }
            ]
          }
        ],
        "code": {
          "coding": [
            {
              "code": "1975-2",
              "system": "http://loinc.org",
              "display": "Bilirubin.total [Mass/volume] in Serum or Plasma"
            }
          ],
          "text": "Bilirubin.total [Mass/volume] in Serum or Plasma"
        },
        "valueQuantity": {
          "system": "http://unitsofmeasure.org",
          "value": 1,
          "unit": "mg/dL",
          "code": "mg/dL"
        },
        "referenceRange": [
          {
            "low": {
              "value": 0.3,
              "code": "mg/dL",
              "system": "http://unitsofmeasure.org"
            }
          },
          {
            "high": {
              "value": 1.2,
              "code": "mg/dL",
              "system": "http://unitsofmeasure.org"
            }
          }
        ],
        "text": {
          "status": "generated",
          "div": "<div xmlns=\"http://www.w3.org/1999/xhtml\"><table class=\"hl7__eu__lab__report\"><tr><th>Test</th><th>22-May-2017</th><th>Reference&#xA0;Range</th><th>Unit</th></tr><tr><td>Bilirubin.total [Mass/volume] in Serum or Plasma</td><td>1.0</td><td>0.3 - 1.2</td><td></td><td>mg/dL</td></tr></table></div>"
        },
        "status": "final",
        "subject": {
          "reference": "urn:uuid:8faab260-cc2a-4ff5-9bff-312551d02211",
          "display": "Gioele Fabbri"
        },
        "effectiveDateTime": "2017-05-22T15:46:20Z",
        "specimen": {
          "reference": "urn:uuid:69f392f6-3d56-421f-afb2-2822bb34e452"
        }
      }
    },
    {
      "fullUrl": "urn:uuid:501510dd-bc32-4015-9bd1-7cf610545bac",
      "resource": {
        "resourceType": "Observation",
        "id": "501510dd-bc32-4015-9bd1-7cf610545bac",
        "meta": {
          "profile": [
            "http://hl7.eu/fhir/laboratory/StructureDefinition/Observation-resultslab-eu-lab"
          ]
        },
        "performer": [
          {
            "display": "The Central European Lab"
          }
        ],
        "category": [
          {
            "coding": [
              {
                "system": "http://terminology.hl7.org/CodeSystem/observation-category",
                "code": "laboratory"
              }
            ]
          }
        ],
        "code": {
          "coding": [
            {
              "code": "6768-6",
              "system": "http://loinc.org",
              "display": "Alkaline phosphatase [Enzymatic activity/volume] in Serum or Plasma"
            }
          ],
          "text": "Alkaline phosphatase [Enzymatic activity/volume] in Serum or Plasma"
        },
        "valueQuantity": {
          "system": "http://unitsofmeasure.org",
          "value": 94.6,
          "unit": "U/L",
          "code": "U/L"
        },
        "referenceRange": [
          {
            "low": {
              "value": 39,
              "code": "U/L",
              "system": "http://unitsofmeasure.org"
            }
          },
          {
            "high": {
              "value": 136,
              "code": "U/L",
              "system": "http://unitsofmeasure.org"
            }
          }
        ],
        "text": {
          "status": "generated",
          "div": "<div xmlns=\"http://www.w3.org/1999/xhtml\"><table class=\"hl7__eu__lab__report\"><tr><th>Test</th><th>22-May-2017</th><th>Reference&#xA0;Range</th><th>Unit</th></tr><tr><td>Alkaline phosphatase [Enzymatic activity/volume] in Serum or Plasma</td><td>94.6</td><td>39 - 136</td><td></td><td>U/L</td></tr></table></div>"
        },
        "status": "final",
        "subject": {
          "reference": "urn:uuid:8faab260-cc2a-4ff5-9bff-312551d02211",
          "display": "Gioele Fabbri"
        },
        "effectiveDateTime": "2017-05-22T15:46:20Z",
        "specimen": {
          "reference": "urn:uuid:69f392f6-3d56-421f-afb2-2822bb34e452"
        }
      }
    },
    {
      "fullUrl": "urn:uuid:b704011b-404e-495c-8c29-b6b9c25df48f",
      "resource": {
        "resourceType": "Observation",
        "id": "b704011b-404e-495c-8c29-b6b9c25df48f",
        "meta": {
          "profile": [
            "http://hl7.eu/fhir/laboratory/StructureDefinition/Observation-resultslab-eu-lab"
          ]
        },
        "performer": [
          {
            "display": "The Central European Lab"
          }
        ],
        "category": [
          {
            "coding": [
              {
                "system": "http://terminology.hl7.org/CodeSystem/observation-category",
                "code": "laboratory"
              }
            ]
          }
        ],
        "code": {
          "coding": [
            {
              "code": "1742-6",
              "system": "http://loinc.org",
              "display": "Alanine aminotransferase [Enzymatic activity/volume] in Serum or Plasma"
            }
          ],
          "text": "Alanine aminotransferase [Enzymatic activity/volume] in Serum or Plasma"
        },
        "valueQuantity": {
          "system": "http://unitsofmeasure.org",
          "value": 43.6,
          "unit": "U/L",
          "code": "U/L"
        },
        "referenceRange": [
          {
            "low": {
              "value": 7,
              "code": "U/L",
              "system": "http://unitsofmeasure.org"
            }
          },
          {
            "high": {
              "value": 52,
              "code": "U/L",
              "system": "http://unitsofmeasure.org"
            }
          }
        ],
        "text": {
          "status": "generated",
          "div": "<div xmlns=\"http://www.w3.org/1999/xhtml\"><table class=\"hl7__eu__lab__report\"><tr><th>Test</th><th>22-May-2017</th><th>Reference&#xA0;Range</th><th>Unit</th></tr><tr><td>Alanine aminotransferase [Enzymatic activity/volume] in Serum or Plasma</td><td>43.6</td><td>7 - 52</td><td></td><td>U/L</td></tr></table></div>"
        },
        "status": "final",
        "subject": {
          "reference": "urn:uuid:8faab260-cc2a-4ff5-9bff-312551d02211",
          "display": "Gioele Fabbri"
        },
        "effectiveDateTime": "2017-05-22T15:46:20Z",
        "specimen": {
          "reference": "urn:uuid:69f392f6-3d56-421f-afb2-2822bb34e452"
        }
      }
    },
    {
      "fullUrl": "urn:uuid:91fc43f4-686f-44bf-a49e-38a93605ccd9",
      "resource": {
        "resourceType": "Observation",
        "id": "91fc43f4-686f-44bf-a49e-38a93605ccd9",
        "meta": {
          "profile": [
            "http://hl7.eu/fhir/laboratory/StructureDefinition/Observation-resultslab-eu-lab"
          ]
        },
        "performer": [
          {
            "display": "The Central European Lab"
          }
        ],
        "category": [
          {
            "coding": [
              {
                "system": "http://terminology.hl7.org/CodeSystem/observation-category",
                "code": "laboratory"
              }
            ]
          }
        ],
        "code": {
          "coding": [
            {
              "code": "1920-8",
              "system": "http://loinc.org",
              "display": "Aspartate aminotransferase [Enzymatic activity/volume] in Serum or Plasma"
            }
          ],
          "text": "Aspartate aminotransferase [Enzymatic activity/volume] in Serum or Plasma"
        },
        "valueQuantity": {
          "system": "http://unitsofmeasure.org",
          "value": 8.7,
          "unit": "U/L",
          "code": "U/L"
        },
        "referenceRange": [
          {
            "low": {
              "value": 10,
              "code": "U/L",
              "system": "http://unitsofmeasure.org"
            }
          },
          {
            "high": {
              "value": 40,
              "code": "U/L",
              "system": "http://unitsofmeasure.org"
            }
          }
        ],
        "interpretation": [
          {
            "coding": [
              {
                "code": "L",
                "system": "http://terminology.hl7.org/CodeSystem/v3-ObservationInterpretation",
                "display": "Low"
              }
            ]
          }
        ],
        "text": {
          "status": "generated",
          "div": "<div xmlns=\"http://www.w3.org/1999/xhtml\"><table class=\"hl7__eu__lab__report\"><tr><th>Test</th><th>22-May-2017</th><th>Reference&#xA0;Range</th><th>Unit</th></tr><tr><td>Aspartate aminotransferase [Enzymatic activity/volume] in Serum or Plasma</td><td>8.7</td><td>10 - 40</td><td>L</td><td>U/L</td></tr></table></div>"
        },
        "status": "final",
        "subject": {
          "reference": "urn:uuid:8faab260-cc2a-4ff5-9bff-312551d02211",
          "display": "Gioele Fabbri"
        },
        "effectiveDateTime": "2017-05-22T15:46:20Z",
        "specimen": {
          "reference": "urn:uuid:69f392f6-3d56-421f-afb2-2822bb34e452"
        }
      }
    },
    {
      "fullUrl": "urn:uuid:28e77ade-7bf6-4740-9dfc-82c5110aab6a",
      "resource": {
        "resourceType": "Device",
        "id": "28e77ade-7bf6-4740-9dfc-82c5110aab6a",
        "deviceName": [
          {
            "name": "SYNDERAI Synthetic Generator",
            "type": "manufacturer-name"
          }
        ],
        "version": [
          {
            "value": "5.0"
          }
        ],
        "text": {
          "status": "generated",
          "div": "<div xmlns=\"http://www.w3.org/1999/xhtml\">SYNDERAI Synthetic Generator v5.0</div>"
        },
        "status": "active\"",
        "distinctIdentifier": "synderai-generator-50",
        "manufacturer": "SYNDERAI Project"
      }
    },
    {
      "fullUrl": "urn:uuid:bd810a9f-d3a9-4152-b8f3-535837a32b05",
      "resource": {
        "resourceType": "Provenance",
        "id": "bd810a9f-d3a9-4152-b8f3-535837a32b05",
        "target": [
          {
            "reference": "Patient/8faab260-cc2a-4ff5-9bff-312551d02211"
          },
          {
            "reference": "Bundle/699614c7-d057-4cfd-8cbe-07d992f20368"
          },
          {
            "reference": "Composition/e0fdffdb-f07f-449f-ae1f-26f15c98803b"
          },
          {
            "reference": "PractitionerRole/16e6ae69-2617-4406-b003-f35242f02e6e"
          },
          {
            "reference": "Practitioner/18138638-dd25-4015-aff1-7340a67be6dd"
          },
          {
            "reference": "PractitionerRole/22dad64a-9af4-455d-9921-60a558597532"
          },
          {
            "reference": "Organization/6d7cbb7c-838a-49a1-a48e-4f10ea70e03d"
          }
        ],
        "activity": {
          "text": "Synthetic Example Data Generation"
        },
        "policy": [
          "https://synderai.net/synderai-synthetic-data-policy"
        ],
        "agent": [
          {
            "type": {
              "text": "author"
            },
            "who": {
              "reference": "Device/28e77ade-7bf6-4740-9dfc-82c5110aab6a"
            }
          }
        ],
        "reason": [
          {
            "text": "Interoperability Testing and Training (non-clinical use)"
          }
        ],
        "text": {
          "status": "generated",
          "div": "<div xmlns=\"http://www.w3.org/1999/xhtml\">Provenance for SYNDERAI Synthetic Example Data Resource</div>"
        },
        "recorded": "2017-05-22T17:46:20Z"
      }
    },
    {
      "fullUrl": "urn:uuid:16e6ae69-2617-4406-b003-f35242f02e6e",
      "resource": {
        "resourceType": "PractitionerRole",
        "id": "16e6ae69-2617-4406-b003-f35242f02e6e",
        "meta": {
          "profile": [
            "http://hl7.eu/fhir/base/StructureDefinition/practitionerRole-eu"
          ]
        },
        "text": {
          "status": "generated",
          "div": "<div xmlns=\"http://www.w3.org/1999/xhtml\">Laboratory Role Id: 16e6ae69-2617-4406-b003-f35242f02e6e</div>"
        },
        "practitioner": {
          "reference": "urn:uuid:18138638-dd25-4015-aff1-7340a67be6dd"
        }
      }
    },
    {
      "fullUrl": "urn:uuid:18138638-dd25-4015-aff1-7340a67be6dd",
      "resource": {
        "resourceType": "Practitioner",
        "id": "18138638-dd25-4015-aff1-7340a67be6dd",
        "meta": {
          "profile": [
            "http://hl7.eu/fhir/base/StructureDefinition/practitioner-eu"
          ]
        },
        "identifier": [
          {
            "assigner": {
              "display": "HL7 Europe"
            },
            "system": "urn:oid:2.16.840.1.113883.2.51.999",
            "value": "3230d7fe-a802-43b3-8bac-2002970342de"
          }
        ],
        "name": [
          {
            "prefix": [
              "dr"
            ],
            "given": [
              "Ex"
            ],
            "family": "Ample"
          }
        ],
        "address": [
          {
            "line": [
              "Laboratoire Central Europenne",
              "Boulevard du Jardin Botanique 32"
            ],
            "postalCode": "1000",
            "city": "Brussels",
            "country": "Belgium"
          }
        ],
        "text": {
          "status": "generated",
          "div": "<div xmlns=\"http://www.w3.org/1999/xhtml\">Laboratory: Laboratoire Central Europenne, 1000 Brussels, Belgium</div>"
        }
      }
    }
  ],
  "type": "document",
  "timestamp": "2017-05-22T17:46:20Z"
}
