{
  "resourceType": "Bundle",
  "id": "8f1fb9f5-c496-46ff-90a6-f0a02c82ec75",
  "meta": {
    "profile": [
      "http://hl7.eu/fhir/laboratory/StructureDefinition/Bundle-eu-lab"
    ]
  },
  "identifier": {
    "assigner": {
      "display": "HL7 Europe"
    },
    "system": "urn:oid:2.16.840.1.113883.2.51.999",
    "value": "2436d2f8-a298-4d49-b748-abf3f206bc7e"
  },
  "entry": [
    {
      "fullUrl": "urn:uuid:e25b73d7-4c26-4af0-95e7-d878d56ba149",
      "resource": {
        "resourceType": "Composition",
        "id": "e25b73d7-4c26-4af0-95e7-d878d56ba149",
        "meta": {
          "profile": [
            "http://hl7.eu/fhir/laboratory/StructureDefinition/Composition-eu-lab"
          ]
        },
        "identifier": {
          "assigner": {
            "display": "HL7 Europe"
          },
          "system": "urn:oid:2.16.840.1.113883.2.51.999",
          "value": "c661f190-c94b-4ca4-83b9-a2096c8c3898"
        },
        "author": [
          {
            "reference": "urn:uuid:11c7e7b0-5e1a-4bd3-945a-7498acbfb1aa"
          }
        ],
        "category": [
          {
            "coding": [
              {
                "code": "26436-6",
                "system": "http://loinc.org",
                "display": "Laboratory studies (set)"
              }
            ]
          }
        ],
        "type": {
          "coding": [
            {
              "code": "11502-2",
              "system": "http://loinc.org",
              "display": "Laboratory report"
            }
          ],
          "text": "Laboratory Report"
        },
        "section": [
          {
            "code": {
              "coding": [
                {
                  "code": "26436-6",
                  "system": "http://loinc.org",
                  "display": "Laboratory studies (set)"
                }
              ],
              "text": "Laboratory studies"
            },
            "section": [
              {
                "code": {
                  "coding": [
                    {
                      "code": "$18719-5",
                      "system": "http://loinc.org",
                      "display": "Chemistry studies (set)"
                    }
                  ],
                  "text": "Chemistry"
                },
                "entry": [
                  {
                    "reference": "urn:uuid:af6a7332-84a5-40e8-9802-6d91dfbe647c"
                  },
                  {
                    "reference": "urn:uuid:4ea62e8c-5cec-4abd-915d-a34aeba26afc"
                  },
                  {
                    "reference": "urn:uuid:1983e174-1ac6-4ecc-ac56-2aac07406e1b"
                  },
                  {
                    "reference": "urn:uuid:d3f77169-2d12-4722-b543-a0330fe256dc"
                  },
                  {
                    "reference": "urn:uuid:9283e0d5-f38b-48bd-8fda-76a03c6ccb09"
                  },
                  {
                    "reference": "urn:uuid:b02861d4-1b3c-4404-8408-3f9ef2b50292"
                  },
                  {
                    "reference": "urn:uuid:fb9ace8d-8237-43c2-84a5-51e81e795de3"
                  },
                  {
                    "reference": "urn:uuid:02109122-b188-4cf9-9b95-0fd6c87c50ad"
                  },
                  {
                    "reference": "urn:uuid:464f4e07-3e02-43cd-a1c0-cba1ed2a6220"
                  },
                  {
                    "reference": "urn:uuid:f2278ac0-47ab-467d-809c-61a8619c8f7e"
                  },
                  {
                    "reference": "urn:uuid:dc116117-a422-4418-85c1-1792f6697b2a"
                  },
                  {
                    "reference": "urn:uuid:51ea99e8-9f45-4caf-a0dd-3a5930e347d8"
                  },
                  {
                    "reference": "urn:uuid:d87bbee5-7d43-4cb9-859e-24075bbaea57"
                  },
                  {
                    "reference": "urn:uuid:410b98e4-da14-49bb-811c-935f195b0342"
                  },
                  {
                    "reference": "urn:uuid:34f84449-0d4e-407a-9b1f-a480d75a2253"
                  },
                  {
                    "reference": "urn:uuid:08e35bae-febd-4215-a376-91d281c69f3c"
                  },
                  {
                    "reference": "urn:uuid:11084aad-1e78-4809-8549-0ec0dde302b1"
                  },
                  {
                    "reference": "urn:uuid:2cb5fbb8-c0bf-44c4-9b9f-ad6a4755c446"
                  }
                ],
                "text": {
                  "status": "generated",
                  "div": "<div xmlns=\"http://www.w3.org/1999/xhtml\"><h3>Chemistry</h3><table class=\"hl7__eu__lab__report\"><thead><tr><th>Test</th><th>17-JUN-2020</th><th>Reference&#xA0;Range</th><th>Unit</th></tr></thead><tbody><tr><td>Glucose [Mass/volume] in Serum or Plasma</td><td>91.9</td><td>70 - 140</td><td>mg/dL</td></tr><tr><td>Urea nitrogen [Mass/volume] in Serum or Plasma</td><td>7.5</td><td>7 - 20</td><td>mg/dL</td></tr><tr><td>Creatinine [Mass/volume] in Serum or Plasma</td><td><strong>2.1 H</strong></td><td>0.9 - 1.3</td><td>mg/dL</td></tr><tr><td>Calcium [Mass/volume] in Serum or Plasma</td><td>8.9</td><td>8.5 - 10.5</td><td>mg/dL</td></tr><tr><td>Sodium [Moles/volume] in Serum or Plasma</td><td>138.1</td><td>135 - 145</td><td>mmol/L</td></tr><tr><td>Potassium [Moles/volume] in Serum or Plasma</td><td>4.7</td><td>3.5 - 5</td><td>mmol/L</td></tr><tr><td>Chloride [Moles/volume] in Serum or Plasma</td><td><strong>108.4 H</strong></td><td>98 - 108</td><td>mmol/L</td></tr><tr><td>Carbon dioxide, total [Moles/volume] in Serum or Plasma</td><td><strong>20.8 L</strong></td><td>22 - 29</td><td>mmol/L</td></tr><tr><td>Ketones [Presence] in Urine by Test strip</td><td>Urine ketone test = ++</td><td></td><td></td></tr><tr><td>Hemoglobin A1c/Hemoglobin.total in Blood</td><td><strong>2.8 L</strong></td><td>4.3 - 6.4</td><td>%</td></tr><tr><td>Glucose [Mass/volume] in Blood</td><td>91.9</td><td>70 - 140</td><td>mg/dL</td></tr><tr><td>Urea nitrogen [Mass/volume] in Blood</td><td>7.5</td><td>7 - 20</td><td>mg/dL</td></tr><tr><td>Creatinine [Mass/volume] in Blood</td><td><strong>7.5 H</strong></td><td>0.6 - 1.3</td><td>mg/dL</td></tr><tr><td>Calcium [Mass/volume] in Blood</td><td>8.9</td><td>8.5 - 10.5</td><td>mg/dL</td></tr><tr><td>Sodium [Moles/volume] in Blood</td><td>138.1</td><td>135 - 145</td><td>mmol/L</td></tr><tr><td>Potassium [Moles/volume] in Blood</td><td>4.7</td><td>3.5 - 5.3</td><td>mmol/L</td></tr><tr><td>Chloride [Moles/volume] in Blood</td><td>108.4</td><td>98 - 110</td><td>mmol/L</td></tr><tr><td>Carbon dioxide, total [Moles/volume] in Blood</td><td><strong>20.8 L</strong></td><td>22 - 29</td><td>mmol/L</td></tr></tbody></table></div>"
                },
                "title": "Chemistry"
              },
              {
                "code": {
                  "coding": [
                    {
                      "code": "$18729-4",
                      "system": "http://loinc.org",
                      "display": "Urinalysis studies (set)"
                    }
                  ],
                  "text": "Urinalysis"
                },
                "entry": [
                  {
                    "reference": "urn:uuid:1d98c8dd-d48d-4f0a-8334-ce70e0a46089"
                  },
                  {
                    "reference": "urn:uuid:0c6bc453-89ad-45d3-aa88-f19cc8417c86"
                  },
                  {
                    "reference": "urn:uuid:ec32cef1-f54e-449c-b758-843ac1e2c887"
                  },
                  {
                    "reference": "urn:uuid:177d53ab-ed91-4596-aeb9-5a40375bbda0"
                  },
                  {
                    "reference": "urn:uuid:14007122-8740-4e19-94fb-180a70bbb41c"
                  },
                  {
                    "reference": "urn:uuid:b80d8ded-9372-45c0-be9c-bf24f8885043"
                  },
                  {
                    "reference": "urn:uuid:54d9a01f-649e-49f1-805d-1d4cc0c96a80"
                  },
                  {
                    "reference": "urn:uuid:a4c81383-a609-45cc-87f3-83ff7a2617c6"
                  },
                  {
                    "reference": "urn:uuid:232f4f50-5259-477b-8a39-cfb7bd58d7f7"
                  },
                  {
                    "reference": "urn:uuid:569fbe60-fa04-471f-b3de-72e46904435d"
                  },
                  {
                    "reference": "urn:uuid:e1716998-53b3-42d9-825c-0480f1dd4c1a"
                  },
                  {
                    "reference": "urn:uuid:256210a4-080c-49c6-8f65-c60712c18d16"
                  }
                ],
                "text": {
                  "status": "generated",
                  "div": "<div xmlns=\"http://www.w3.org/1999/xhtml\"><h3>Urinalysis</h3><table class=\"hl7__eu__lab__report\"><thead><tr><th>Test</th><th>17-JUN-2020</th><th>Reference&#xA0;Range</th><th>Unit</th></tr></thead><tbody><tr><td>Glucose [Mass/volume] in Urine by Test strip</td><td><strong>1.8 H</strong></td><td>0 - 0.8</td><td>mg/dL</td></tr><tr><td>Glucose [Presence] in Urine by Test strip</td><td>++</td><td></td><td></td></tr><tr><td>Bilirubin.total [Mass/volume] in Urine by Test strip</td><td>0.9</td><td>0.2 - 1</td><td>mg/dL</td></tr><tr><td>Bilirubin.total [Presence] in Urine by Test strip</td><td>Finding of bilirubin in urine</td><td></td><td></td></tr><tr><td>Ketones [Mass/volume] in Urine by Test strip</td><td><strong>16.9 H</strong></td><td>0 - 5</td><td>mg/dL</td></tr><tr><td>Specific gravity of Urine by Test strip</td><td><strong>1.0 L</strong></td><td>1.005 - 1.03</td><td>{nominal}</td></tr><tr><td>pH of Urine by Test strip</td><td>6.5</td><td>4.6 - 7</td><td>pH</td></tr><tr><td>Protein [Mass/volume] in Urine by Test strip</td><td><strong>393.3 H</strong></td><td>0 - 150</td><td>mg/dL</td></tr><tr><td>Protein [Presence] in Urine by Test strip</td><td>Urine protein test = ++</td><td></td><td></td></tr><tr><td>Nitrite [Presence] in Urine by Test strip</td><td>Urine nitrite negative</td><td></td><td></td></tr><tr><td>Hemoglobin [Presence] in Urine by Test strip</td><td>Urine blood test = negative</td><td></td><td></td></tr><tr><td>Leukocyte esterase [Presence] in Urine by Test strip</td><td>Urine leukocyte test negative</td><td></td><td></td></tr></tbody></table></div>"
                },
                "title": "Urinalysis"
              },
              {
                "code": {
                  "coding": [
                    {
                      "code": "$LP7846-1",
                      "system": "http://loinc.org",
                      "display": "Specimen information"
                    }
                  ],
                  "text": "Specimen information"
                },
                "entry": [
                  {
                    "reference": "urn:uuid:562391dd-a29b-4ec7-a2c1-95f28477b080"
                  },
                  {
                    "reference": "urn:uuid:c08dd8c2-266a-4a16-8740-e87c3f465964"
                  },
                  {
                    "reference": "urn:uuid:0e338ac1-cfc2-4f4b-9ccf-e263503806c9"
                  },
                  {
                    "reference": "urn:uuid:d335eb15-e599-4dfd-bb1e-6a7ce755b616"
                  }
                ],
                "text": {
                  "status": "generated",
                  "div": "<div xmlns=\"http://www.w3.org/1999/xhtml\"><h3>Specimen information</h3><table class=\"hl7__eu__lab__report\"><thead><tr><th>Test</th><th>17-JUN-2020</th><th>Specimen</th><th></th></tr></thead><tbody><tr><td>Appearance of Urine</td><td>Cloudy urine</td><td>Urine</td><td></td></tr><tr><td>Odor of Urine</td><td>Urine smell ammoniacal</td><td>Urine</td><td></td></tr><tr><td>Clarity of Urine</td><td>Translucent</td><td>Urine</td><td></td></tr><tr><td>Color of Urine</td><td>Brown color</td><td>Urine</td><td></td></tr></tbody></table></div>"
                },
                "title": "Specimen information"
              }
            ],
            "title": "Laboratory Report"
          },
          {
            "text": {
              "status": "generated",
              "div": "<div xmlns=\"http://www.w3.org/1999/xhtml\"><h3>Annotation</h3><table class=\"hl7__eu__lab__report\"><tr><th>Conclusion and Recommendations based on this report and previous findings known to us</th></tr><tr><td>The patient shows markedly elevated creatinine, proteinuria, glucosuria, ketonuria, and abnormal urine appearance, suggesting significant renal dysfunction, possibly acute or chronic kidney disease with impaired filtration. Low CO₂ may indicate metabolic acidosis. Despite glucosuria and ketonuria, blood glucose and HbA1c are not elevated, which is unusual and may suggest renal glycosuria or laboratory artifact. Immediate nephrology evaluation is recommended for further assessment and management.</td></tr></table></div>"
            },
            "code": {
              "coding": [
                {
                  "system": "http://loinc.org",
                  "code": "48767-8",
                  "display": "Annotation comment"
                }
              ]
            },
            "title": "Annotation comment"
          }
        ],
        "status": "final",
        "subject": {
          "reference": "urn:uuid:36dee3e0-a71e-4cf7-bcd7-88b7eb1d3cbe",
          "display": "Θεμιστοκλής Λιναρδάκη"
        },
        "date": "2020-06-17T08:16:00Z",
        "title": "Laboratory Report",
        "confidentiality": "N"
      }
    },
    {
      "fullUrl": "urn:uuid:33527542-4c27-43b6-881b-771c97683356",
      "resource": {
        "resourceType": "DiagnosticReport",
        "id": "33527542-4c27-43b6-881b-771c97683356",
        "meta": {
          "profile": [
            "http://hl7.eu/fhir/laboratory/StructureDefinition/DiagnosticReport-eu-lab"
          ]
        },
        "identifier": [
          {
            "assigner": {
              "display": "HL7 Europe"
            },
            "system": "urn:oid:2.16.840.1.113883.2.51.999",
            "value": "db96d446-5655-46f1-9884-9fa019fabbc6"
          }
        ],
        "extension": [
          {
            "url": "http://hl7.org/fhir/5.0/StructureDefinition/extension-DiagnosticReport.composition",
            "valueReference": {
              "reference": "urn:uuid:c661f190-c94b-4ca4-83b9-a2096c8c3898"
            }
          }
        ],
        "category": [
          {
            "coding": [
              {
                "code": "26436-6",
                "system": "http://loinc.org",
                "display": "Laboratory studies (set)"
              }
            ]
          }
        ],
        "specimen": [
          {
            "reference": "urn:uuid:40babbb2-a43f-48b3-8b1e-5e3055513902"
          },
          {
            "reference": "urn:uuid:d0bcc953-4c71-4e5b-b420-8e3be3dc57a9"
          },
          {
            "reference": "urn:uuid:8e59d8ff-f484-425b-a922-a29faef73c9e"
          }
        ],
        "result": [
          {
            "reference": "urn:uuid:af6a7332-84a5-40e8-9802-6d91dfbe647c"
          },
          {
            "reference": "urn:uuid:4ea62e8c-5cec-4abd-915d-a34aeba26afc"
          },
          {
            "reference": "urn:uuid:1983e174-1ac6-4ecc-ac56-2aac07406e1b"
          },
          {
            "reference": "urn:uuid:d3f77169-2d12-4722-b543-a0330fe256dc"
          },
          {
            "reference": "urn:uuid:9283e0d5-f38b-48bd-8fda-76a03c6ccb09"
          },
          {
            "reference": "urn:uuid:b02861d4-1b3c-4404-8408-3f9ef2b50292"
          },
          {
            "reference": "urn:uuid:fb9ace8d-8237-43c2-84a5-51e81e795de3"
          },
          {
            "reference": "urn:uuid:02109122-b188-4cf9-9b95-0fd6c87c50ad"
          },
          {
            "reference": "urn:uuid:562391dd-a29b-4ec7-a2c1-95f28477b080"
          },
          {
            "reference": "urn:uuid:c08dd8c2-266a-4a16-8740-e87c3f465964"
          },
          {
            "reference": "urn:uuid:0e338ac1-cfc2-4f4b-9ccf-e263503806c9"
          },
          {
            "reference": "urn:uuid:d335eb15-e599-4dfd-bb1e-6a7ce755b616"
          },
          {
            "reference": "urn:uuid:1d98c8dd-d48d-4f0a-8334-ce70e0a46089"
          },
          {
            "reference": "urn:uuid:0c6bc453-89ad-45d3-aa88-f19cc8417c86"
          },
          {
            "reference": "urn:uuid:ec32cef1-f54e-449c-b758-843ac1e2c887"
          },
          {
            "reference": "urn:uuid:177d53ab-ed91-4596-aeb9-5a40375bbda0"
          },
          {
            "reference": "urn:uuid:14007122-8740-4e19-94fb-180a70bbb41c"
          },
          {
            "reference": "urn:uuid:464f4e07-3e02-43cd-a1c0-cba1ed2a6220"
          },
          {
            "reference": "urn:uuid:b80d8ded-9372-45c0-be9c-bf24f8885043"
          },
          {
            "reference": "urn:uuid:54d9a01f-649e-49f1-805d-1d4cc0c96a80"
          },
          {
            "reference": "urn:uuid:a4c81383-a609-45cc-87f3-83ff7a2617c6"
          },
          {
            "reference": "urn:uuid:232f4f50-5259-477b-8a39-cfb7bd58d7f7"
          },
          {
            "reference": "urn:uuid:569fbe60-fa04-471f-b3de-72e46904435d"
          },
          {
            "reference": "urn:uuid:e1716998-53b3-42d9-825c-0480f1dd4c1a"
          },
          {
            "reference": "urn:uuid:256210a4-080c-49c6-8f65-c60712c18d16"
          },
          {
            "reference": "urn:uuid:f2278ac0-47ab-467d-809c-61a8619c8f7e"
          },
          {
            "reference": "urn:uuid:dc116117-a422-4418-85c1-1792f6697b2a"
          },
          {
            "reference": "urn:uuid:51ea99e8-9f45-4caf-a0dd-3a5930e347d8"
          },
          {
            "reference": "urn:uuid:d87bbee5-7d43-4cb9-859e-24075bbaea57"
          },
          {
            "reference": "urn:uuid:410b98e4-da14-49bb-811c-935f195b0342"
          },
          {
            "reference": "urn:uuid:34f84449-0d4e-407a-9b1f-a480d75a2253"
          },
          {
            "reference": "urn:uuid:08e35bae-febd-4215-a376-91d281c69f3c"
          },
          {
            "reference": "urn:uuid:11084aad-1e78-4809-8549-0ec0dde302b1"
          },
          {
            "reference": "urn:uuid:2cb5fbb8-c0bf-44c4-9b9f-ad6a4755c446"
          }
        ],
        "status": "registered",
        "code": {
          "coding": [
            {
              "code": "11502-2",
              "system": "http://loinc.org",
              "display": "Laboratory report"
            }
          ]
        },
        "subject": {
          "reference": "urn:uuid:36dee3e0-a71e-4cf7-bcd7-88b7eb1d3cbe",
          "display": "Θεμιστοκλής Λιναρδάκη"
        }
      }
    },
    {
      "fullUrl": "urn:uuid:36dee3e0-a71e-4cf7-bcd7-88b7eb1d3cbe",
      "resource": {
        "resourceType": "Patient",
        "id": "36dee3e0-a71e-4cf7-bcd7-88b7eb1d3cbe",
        "meta": {
          "security": [
            {
              "system": "http://terminology.hl7.org/CodeSystem/v3-ActReason",
              "code": "HTEST"
            },
            {
              "system": "http://terminology.hl7.org/CodeSystem/v3-ActReason",
              "code": "TRAIN"
            }
          ],
          "tag": [
            {
              "system": "https://synderai.net/fhir/CodeSystem/tags",
              "code": "synthetic",
              "display": "SYNDERAI Synthetic data"
            }
          ],
          "profile": [
            "http://hl7.eu/fhir/base/StructureDefinition/patient-eu-core"
          ]
        },
        "identifier": [
          {
            "type": {
              "coding": [
                {
                  "code": "PT",
                  "system": "http://terminology.hl7.org/CodeSystem/v2-0203"
                }
              ]
            },
            "system": "http://ec.europa.eu/identifier/eci",
            "value": "5962-476889-7"
          },
          {
            "type": {
              "coding": [
                {
                  "code": "MR",
                  "system": "http://terminology.hl7.org/CodeSystem/v2-0203"
                }
              ]
            },
            "system": "http://local.setting.eu/identifier",
            "value": "925e2603-2ef9-6bdf-1330-2ebf526636c4"
          }
        ],
        "name": [
          {
            "family": "Λιναρδάκη"
          },
          {
            "given": [
              "Θεμιστοκλής"
            ]
          },
          {
            "text": "Θεμιστοκλής Λιναρδάκη"
          }
        ],
        "address": [
          {
            "line": [
              "Αμαρύνθου 54-58"
            ],
            "use": "home",
            "type": "physical",
            "postalCode": "262 21",
            "city": "Πάτρα",
            "country": "Greece"
          }
        ],
        "telecom": [
          {
            "system": "phone",
            "value": "+302226364480"
          }
        ],
        "extension": [
          {
            "url": "http://hl7.org/fhir/StructureDefinition/patient-nationality",
            "valueCodeableConcept": {
              "coding": [
                {
                  "code": "GR",
                  "system": "http://hl7.org/fhir/ValueSet/country"
                }
              ]
            }
          }
        ],
        "text": {
          "status": "generated",
          "div": "<div xmlns=\"http://www.w3.org/1999/xhtml\"><table class=\"hl7__ips\"><tr><td>Θεμιστοκλής Λιναρδάκη</td><td>male</td><td>21-Jan-1974</td></tr></table></div>"
        },
        "gender": "male",
        "birthDate": "1974-01-21"
      }
    },
    {
      "fullUrl": "urn:uuid:1e493c7e-9cb2-4976-ad40-b0e64a26f739",
      "resource": {
        "resourceType": "ServiceRequest",
        "id": "1e493c7e-9cb2-4976-ad40-b0e64a26f739",
        "meta": {
          "profile": [
            "http://hl7.eu/fhir/laboratory/StructureDefinition/ServiceRequest-eu-lab"
          ]
        },
        "identifier": [
          {
            "system": "http://example.org",
            "value": "dc4849e6-da07-4140-a9a4-5ec535a6552d"
          }
        ],
        "specimen": [
          {
            "reference": "urn:uuid:40babbb2-a43f-48b3-8b1e-5e3055513902"
          },
          {
            "reference": "urn:uuid:d0bcc953-4c71-4e5b-b420-8e3be3dc57a9"
          },
          {
            "reference": "urn:uuid:8e59d8ff-f484-425b-a922-a29faef73c9e"
          }
        ],
        "reasonCode": [
          {
            "coding": [
              {
                "code": "237602007",
                "system": "http://snomed.info/sct",
                "display": "Metabolic syndrome X"
              }
            ]
          },
          {
            "coding": [
              {
                "code": "433144002",
                "system": "http://snomed.info/sct",
                "display": "Chronic kidney disease stage 3"
              }
            ]
          },
          {
            "coding": [
              {
                "code": "157141000119108",
                "system": "http://snomed.info/sct",
                "display": "Proteinuria due to type 2 diabetes mellitus"
              }
            ]
          },
          {
            "coding": [
              {
                "code": "431856006",
                "system": "http://snomed.info/sct",
                "display": "Chronic kidney disease stage 2"
              }
            ]
          },
          {
            "coding": [
              {
                "code": "90781000119102",
                "system": "http://snomed.info/sct",
                "display": "Microalbuminuria due to type 2 diabetes mellitus"
              }
            ]
          },
          {
            "coding": [
              {
                "code": "127013003",
                "system": "http://snomed.info/sct",
                "display": "Disorder of kidney due to diabetes mellitus"
              }
            ]
          },
          {
            "coding": [
              {
                "code": "431855005",
                "system": "http://snomed.info/sct",
                "display": "Chronic kidney disease stage 1"
              }
            ]
          },
          {
            "coding": [
              {
                "code": "59621000",
                "system": "http://snomed.info/sct",
                "display": "Essential hypertension"
              }
            ]
          },
          {
            "coding": [
              {
                "code": "15777000",
                "system": "http://snomed.info/sct",
                "display": "Prediabetes"
              }
            ]
          },
          {
            "coding": [
              {
                "code": "271737000",
                "system": "http://snomed.info/sct",
                "display": "Anemia"
              }
            ]
          }
        ],
        "status": "active",
        "intent": "order",
        "code": {
          "coding": [
            {
              "code": "108252007",
              "system": "http://snomed.info/sct",
              "display": "Laboratory procedure"
            }
          ]
        },
        "subject": {
          "reference": "urn:uuid:36dee3e0-a71e-4cf7-bcd7-88b7eb1d3cbe",
          "display": "Θεμιστοκλής Λιναρδάκη"
        },
        "requester": {
          "reference": "urn:uuid:eeea9bbc-cb8e-4838-88b2-7566a7553ebc"
        }
      }
    },
    {
      "fullUrl": "urn:uuid:eeea9bbc-cb8e-4838-88b2-7566a7553ebc",
      "resource": {
        "resourceType": "PractitionerRole",
        "id": "eeea9bbc-cb8e-4838-88b2-7566a7553ebc",
        "meta": {
          "profile": [
            "http://hl7.eu/fhir/base/StructureDefinition/practitionerRole-eu"
          ]
        },
        "text": {
          "status": "generated",
          "div": "<div xmlns=\"http://www.w3.org/1999/xhtml\">Provider Role Id: eeea9bbc-cb8e-4838-88b2-7566a7553ebc</div>"
        },
        "organization": {
          "reference": "urn:uuid:5f723df8-f5c0-44f1-b5d0-846eae062757"
        }
      }
    },
    {
      "fullUrl": "urn:uuid:5f723df8-f5c0-44f1-b5d0-846eae062757",
      "resource": {
        "resourceType": "Organization",
        "id": "5f723df8-f5c0-44f1-b5d0-846eae062757",
        "meta": {
          "profile": [
            "http://hl7.eu/fhir/base/StructureDefinition/organization-eu"
          ]
        },
        "identifier": [
          {
            "assigner": {
              "display": "HL7 Europe"
            },
            "system": "urn:oid:2.16.840.1.113883.2.51.999",
            "value": "1946fefe-d039-4526-8e46-f9ecc1413e93"
          }
        ],
        "address": [
          {
            "line": [
              "211 Odós Filellinon"
            ],
            "city": "Patras",
            "postalCode": "262 21",
            "country": "Greece"
          }
        ],
        "text": {
          "status": "generated",
          "div": "<div xmlns=\"http://www.w3.org/1999/xhtml\">Provider Organization: Dr. Dimitris Economou</div>"
        },
        "name": "Dr. Dimitris Economou"
      }
    },
    {
      "fullUrl": "urn:uuid:40babbb2-a43f-48b3-8b1e-5e3055513902",
      "resource": {
        "resourceType": "Specimen",
        "id": "40babbb2-a43f-48b3-8b1e-5e3055513902",
        "meta": {
          "profile": [
            "http://hl7.eu/fhir/laboratory/StructureDefinition/Specimen-eu-lab"
          ]
        },
        "collection": {
          "collectedDateTime": "2020-06-17"
        },
        "text": {
          "status": "generated",
          "div": "<div xmlns=\"http://www.w3.org/1999/xhtml\"><table class=\"hl7__eu__lab__report\"><tr><th>Specimen</th><th>Collection Date</th></tr><tr><td>Acellular blood (serum or plasma) specimen</td><td><span class=\"nb\">17-Jun-2020</span></td></tr></table></div>"
        },
        "type": {
          "coding": [
            {
              "code": "122592007",
              "system": "http://snomed.info/sct",
              "display": "Acellular blood (serum or plasma) specimen"
            }
          ]
        }
      }
    },
    {
      "fullUrl": "urn:uuid:d0bcc953-4c71-4e5b-b420-8e3be3dc57a9",
      "resource": {
        "resourceType": "Specimen",
        "id": "d0bcc953-4c71-4e5b-b420-8e3be3dc57a9",
        "meta": {
          "profile": [
            "http://hl7.eu/fhir/laboratory/StructureDefinition/Specimen-eu-lab"
          ]
        },
        "collection": {
          "collectedDateTime": "2020-06-17"
        },
        "text": {
          "status": "generated",
          "div": "<div xmlns=\"http://www.w3.org/1999/xhtml\"><table class=\"hl7__eu__lab__report\"><tr><th>Specimen</th><th>Collection Date</th></tr><tr><td>Urine specimen</td><td><span class=\"nb\">17-Jun-2020</span></td></tr></table></div>"
        },
        "type": {
          "coding": [
            {
              "code": "122575003",
              "system": "http://snomed.info/sct",
              "display": "Urine specimen"
            }
          ]
        }
      }
    },
    {
      "fullUrl": "urn:uuid:8e59d8ff-f484-425b-a922-a29faef73c9e",
      "resource": {
        "resourceType": "Specimen",
        "id": "8e59d8ff-f484-425b-a922-a29faef73c9e",
        "meta": {
          "profile": [
            "http://hl7.eu/fhir/laboratory/StructureDefinition/Specimen-eu-lab"
          ]
        },
        "collection": {
          "collectedDateTime": "2020-06-17"
        },
        "text": {
          "status": "generated",
          "div": "<div xmlns=\"http://www.w3.org/1999/xhtml\"><table class=\"hl7__eu__lab__report\"><tr><th>Specimen</th><th>Collection Date</th></tr><tr><td>Whole blood specimen (specimen)</td><td><span class=\"nb\">17-Jun-2020</span></td></tr></table></div>"
        },
        "type": {
          "coding": [
            {
              "code": "258580003",
              "system": "http://snomed.info/sct",
              "display": "Whole blood specimen (specimen)"
            }
          ]
        }
      }
    },
    {
      "fullUrl": "urn:uuid:af6a7332-84a5-40e8-9802-6d91dfbe647c",
      "resource": {
        "resourceType": "Observation",
        "id": "af6a7332-84a5-40e8-9802-6d91dfbe647c",
        "meta": {
          "profile": [
            "http://hl7.eu/fhir/laboratory/StructureDefinition/Observation-resultslab-eu-lab"
          ]
        },
        "performer": [
          {
            "display": "The Central European Lab"
          }
        ],
        "category": [
          {
            "coding": [
              {
                "system": "http://terminology.hl7.org/CodeSystem/observation-category",
                "code": "laboratory"
              }
            ]
          }
        ],
        "code": {
          "coding": [
            {
              "code": "2345-7",
              "system": "http://loinc.org",
              "display": "Glucose [Mass/volume] in Serum or Plasma"
            }
          ],
          "text": "Glucose [Mass/volume] in Serum or Plasma"
        },
        "valueQuantity": {
          "system": "http://unitsofmeasure.org",
          "value": 91.9,
          "unit": "mg/dL",
          "code": "mg/dL"
        },
        "referenceRange": [
          {
            "low": {
              "value": 70,
              "code": "mg/dL",
              "system": "http://unitsofmeasure.org"
            }
          },
          {
            "high": {
              "value": 140,
              "code": "mg/dL",
              "system": "http://unitsofmeasure.org"
            }
          }
        ],
        "text": {
          "status": "generated",
          "div": "<div xmlns=\"http://www.w3.org/1999/xhtml\"><table class=\"hl7__eu__lab__report\"><tr><th>Test</th><th>17-Jun-2020</th><th>Reference&#xA0;Range</th><th>Unit</th></tr><tr><td>Glucose [Mass/volume] in Serum or Plasma</td><td>91.9</td><td>70 - 140</td><td></td><td>mg/dL</td></tr></table></div>"
        },
        "status": "final",
        "subject": {
          "reference": "urn:uuid:36dee3e0-a71e-4cf7-bcd7-88b7eb1d3cbe",
          "display": "Θεμιστοκλής Λιναρδάκη"
        },
        "effectiveDateTime": "2020-06-17T06:16:00Z",
        "specimen": {
          "reference": "urn:uuid:40babbb2-a43f-48b3-8b1e-5e3055513902"
        }
      }
    },
    {
      "fullUrl": "urn:uuid:4ea62e8c-5cec-4abd-915d-a34aeba26afc",
      "resource": {
        "resourceType": "Observation",
        "id": "4ea62e8c-5cec-4abd-915d-a34aeba26afc",
        "meta": {
          "profile": [
            "http://hl7.eu/fhir/laboratory/StructureDefinition/Observation-resultslab-eu-lab"
          ]
        },
        "performer": [
          {
            "display": "The Central European Lab"
          }
        ],
        "category": [
          {
            "coding": [
              {
                "system": "http://terminology.hl7.org/CodeSystem/observation-category",
                "code": "laboratory"
              }
            ]
          }
        ],
        "code": {
          "coding": [
            {
              "code": "3094-0",
              "system": "http://loinc.org",
              "display": "Urea nitrogen [Mass/volume] in Serum or Plasma"
            }
          ],
          "text": "Urea nitrogen [Mass/volume] in Serum or Plasma"
        },
        "valueQuantity": {
          "system": "http://unitsofmeasure.org",
          "value": 7.5,
          "unit": "mg/dL",
          "code": "mg/dL"
        },
        "referenceRange": [
          {
            "low": {
              "value": 7,
              "code": "mg/dL",
              "system": "http://unitsofmeasure.org"
            }
          },
          {
            "high": {
              "value": 20,
              "code": "mg/dL",
              "system": "http://unitsofmeasure.org"
            }
          }
        ],
        "text": {
          "status": "generated",
          "div": "<div xmlns=\"http://www.w3.org/1999/xhtml\"><table class=\"hl7__eu__lab__report\"><tr><th>Test</th><th>17-Jun-2020</th><th>Reference&#xA0;Range</th><th>Unit</th></tr><tr><td>Urea nitrogen [Mass/volume] in Serum or Plasma</td><td>7.5</td><td>7 - 20</td><td></td><td>mg/dL</td></tr></table></div>"
        },
        "status": "final",
        "subject": {
          "reference": "urn:uuid:36dee3e0-a71e-4cf7-bcd7-88b7eb1d3cbe",
          "display": "Θεμιστοκλής Λιναρδάκη"
        },
        "effectiveDateTime": "2020-06-17T06:16:00Z",
        "specimen": {
          "reference": "urn:uuid:40babbb2-a43f-48b3-8b1e-5e3055513902"
        }
      }
    },
    {
      "fullUrl": "urn:uuid:1983e174-1ac6-4ecc-ac56-2aac07406e1b",
      "resource": {
        "resourceType": "Observation",
        "id": "1983e174-1ac6-4ecc-ac56-2aac07406e1b",
        "meta": {
          "profile": [
            "http://hl7.eu/fhir/laboratory/StructureDefinition/Observation-resultslab-eu-lab"
          ]
        },
        "performer": [
          {
            "display": "The Central European Lab"
          }
        ],
        "category": [
          {
            "coding": [
              {
                "system": "http://terminology.hl7.org/CodeSystem/observation-category",
                "code": "laboratory"
              }
            ]
          }
        ],
        "code": {
          "coding": [
            {
              "code": "2160-0",
              "system": "http://loinc.org",
              "display": "Creatinine [Mass/volume] in Serum or Plasma"
            }
          ],
          "text": "Creatinine [Mass/volume] in Serum or Plasma"
        },
        "valueQuantity": {
          "system": "http://unitsofmeasure.org",
          "value": 2.1,
          "unit": "mg/dL",
          "code": "mg/dL"
        },
        "referenceRange": [
          {
            "low": {
              "value": 0.9,
              "code": "mg/dL",
              "system": "http://unitsofmeasure.org"
            }
          },
          {
            "high": {
              "value": 1.3,
              "code": "mg/dL",
              "system": "http://unitsofmeasure.org"
            }
          }
        ],
        "interpretation": [
          {
            "coding": [
              {
                "code": "H",
                "system": "http://terminology.hl7.org/CodeSystem/v3-ObservationInterpretation",
                "display": "High"
              }
            ]
          }
        ],
        "text": {
          "status": "generated",
          "div": "<div xmlns=\"http://www.w3.org/1999/xhtml\"><table class=\"hl7__eu__lab__report\"><tr><th>Test</th><th>17-Jun-2020</th><th>Reference&#xA0;Range</th><th>Unit</th></tr><tr><td>Creatinine [Mass/volume] in Serum or Plasma</td><td>2.1</td><td>0.9 - 1.3</td><td>H</td><td>mg/dL</td></tr></table></div>"
        },
        "status": "final",
        "subject": {
          "reference": "urn:uuid:36dee3e0-a71e-4cf7-bcd7-88b7eb1d3cbe",
          "display": "Θεμιστοκλής Λιναρδάκη"
        },
        "effectiveDateTime": "2020-06-17T06:16:00Z",
        "specimen": {
          "reference": "urn:uuid:40babbb2-a43f-48b3-8b1e-5e3055513902"
        }
      }
    },
    {
      "fullUrl": "urn:uuid:d3f77169-2d12-4722-b543-a0330fe256dc",
      "resource": {
        "resourceType": "Observation",
        "id": "d3f77169-2d12-4722-b543-a0330fe256dc",
        "meta": {
          "profile": [
            "http://hl7.eu/fhir/laboratory/StructureDefinition/Observation-resultslab-eu-lab"
          ]
        },
        "performer": [
          {
            "display": "The Central European Lab"
          }
        ],
        "category": [
          {
            "coding": [
              {
                "system": "http://terminology.hl7.org/CodeSystem/observation-category",
                "code": "laboratory"
              }
            ]
          }
        ],
        "code": {
          "coding": [
            {
              "code": "17861-6",
              "system": "http://loinc.org",
              "display": "Calcium [Mass/volume] in Serum or Plasma"
            }
          ],
          "text": "Calcium [Mass/volume] in Serum or Plasma"
        },
        "valueQuantity": {
          "system": "http://unitsofmeasure.org",
          "value": 8.9,
          "unit": "mg/dL",
          "code": "mg/dL"
        },
        "referenceRange": [
          {
            "low": {
              "value": 8.5,
              "code": "mg/dL",
              "system": "http://unitsofmeasure.org"
            }
          },
          {
            "high": {
              "value": 10.5,
              "code": "mg/dL",
              "system": "http://unitsofmeasure.org"
            }
          }
        ],
        "text": {
          "status": "generated",
          "div": "<div xmlns=\"http://www.w3.org/1999/xhtml\"><table class=\"hl7__eu__lab__report\"><tr><th>Test</th><th>17-Jun-2020</th><th>Reference&#xA0;Range</th><th>Unit</th></tr><tr><td>Calcium [Mass/volume] in Serum or Plasma</td><td>8.9</td><td>8.5 - 10.5</td><td></td><td>mg/dL</td></tr></table></div>"
        },
        "status": "final",
        "subject": {
          "reference": "urn:uuid:36dee3e0-a71e-4cf7-bcd7-88b7eb1d3cbe",
          "display": "Θεμιστοκλής Λιναρδάκη"
        },
        "effectiveDateTime": "2020-06-17T06:16:00Z",
        "specimen": {
          "reference": "urn:uuid:40babbb2-a43f-48b3-8b1e-5e3055513902"
        }
      }
    },
    {
      "fullUrl": "urn:uuid:9283e0d5-f38b-48bd-8fda-76a03c6ccb09",
      "resource": {
        "resourceType": "Observation",
        "id": "9283e0d5-f38b-48bd-8fda-76a03c6ccb09",
        "meta": {
          "profile": [
            "http://hl7.eu/fhir/laboratory/StructureDefinition/Observation-resultslab-eu-lab"
          ]
        },
        "performer": [
          {
            "display": "The Central European Lab"
          }
        ],
        "category": [
          {
            "coding": [
              {
                "system": "http://terminology.hl7.org/CodeSystem/observation-category",
                "code": "laboratory"
              }
            ]
          }
        ],
        "code": {
          "coding": [
            {
              "code": "2951-2",
              "system": "http://loinc.org",
              "display": "Sodium [Moles/volume] in Serum or Plasma"
            }
          ],
          "text": "Sodium [Moles/volume] in Serum or Plasma"
        },
        "valueQuantity": {
          "system": "http://unitsofmeasure.org",
          "value": 138.1,
          "unit": "mmol/L",
          "code": "mmol/L"
        },
        "referenceRange": [
          {
            "low": {
              "value": 135,
              "code": "mmol/L",
              "system": "http://unitsofmeasure.org"
            }
          },
          {
            "high": {
              "value": 145,
              "code": "mmol/L",
              "system": "http://unitsofmeasure.org"
            }
          }
        ],
        "text": {
          "status": "generated",
          "div": "<div xmlns=\"http://www.w3.org/1999/xhtml\"><table class=\"hl7__eu__lab__report\"><tr><th>Test</th><th>17-Jun-2020</th><th>Reference&#xA0;Range</th><th>Unit</th></tr><tr><td>Sodium [Moles/volume] in Serum or Plasma</td><td>138.1</td><td>135 - 145</td><td></td><td>mmol/L</td></tr></table></div>"
        },
        "status": "final",
        "subject": {
          "reference": "urn:uuid:36dee3e0-a71e-4cf7-bcd7-88b7eb1d3cbe",
          "display": "Θεμιστοκλής Λιναρδάκη"
        },
        "effectiveDateTime": "2020-06-17T06:16:00Z",
        "specimen": {
          "reference": "urn:uuid:40babbb2-a43f-48b3-8b1e-5e3055513902"
        }
      }
    },
    {
      "fullUrl": "urn:uuid:b02861d4-1b3c-4404-8408-3f9ef2b50292",
      "resource": {
        "resourceType": "Observation",
        "id": "b02861d4-1b3c-4404-8408-3f9ef2b50292",
        "meta": {
          "profile": [
            "http://hl7.eu/fhir/laboratory/StructureDefinition/Observation-resultslab-eu-lab"
          ]
        },
        "performer": [
          {
            "display": "The Central European Lab"
          }
        ],
        "category": [
          {
            "coding": [
              {
                "system": "http://terminology.hl7.org/CodeSystem/observation-category",
                "code": "laboratory"
              }
            ]
          }
        ],
        "code": {
          "coding": [
            {
              "code": "2823-3",
              "system": "http://loinc.org",
              "display": "Potassium [Moles/volume] in Serum or Plasma"
            }
          ],
          "text": "Potassium [Moles/volume] in Serum or Plasma"
        },
        "valueQuantity": {
          "system": "http://unitsofmeasure.org",
          "value": 4.7,
          "unit": "mmol/L",
          "code": "mmol/L"
        },
        "referenceRange": [
          {
            "low": {
              "value": 3.5,
              "code": "mmol/L",
              "system": "http://unitsofmeasure.org"
            }
          },
          {
            "high": {
              "value": 5,
              "code": "mmol/L",
              "system": "http://unitsofmeasure.org"
            }
          }
        ],
        "text": {
          "status": "generated",
          "div": "<div xmlns=\"http://www.w3.org/1999/xhtml\"><table class=\"hl7__eu__lab__report\"><tr><th>Test</th><th>17-Jun-2020</th><th>Reference&#xA0;Range</th><th>Unit</th></tr><tr><td>Potassium [Moles/volume] in Serum or Plasma</td><td>4.7</td><td>3.5 - 5</td><td></td><td>mmol/L</td></tr></table></div>"
        },
        "status": "final",
        "subject": {
          "reference": "urn:uuid:36dee3e0-a71e-4cf7-bcd7-88b7eb1d3cbe",
          "display": "Θεμιστοκλής Λιναρδάκη"
        },
        "effectiveDateTime": "2020-06-17T06:16:00Z",
        "specimen": {
          "reference": "urn:uuid:40babbb2-a43f-48b3-8b1e-5e3055513902"
        }
      }
    },
    {
      "fullUrl": "urn:uuid:fb9ace8d-8237-43c2-84a5-51e81e795de3",
      "resource": {
        "resourceType": "Observation",
        "id": "fb9ace8d-8237-43c2-84a5-51e81e795de3",
        "meta": {
          "profile": [
            "http://hl7.eu/fhir/laboratory/StructureDefinition/Observation-resultslab-eu-lab"
          ]
        },
        "performer": [
          {
            "display": "The Central European Lab"
          }
        ],
        "category": [
          {
            "coding": [
              {
                "system": "http://terminology.hl7.org/CodeSystem/observation-category",
                "code": "laboratory"
              }
            ]
          }
        ],
        "code": {
          "coding": [
            {
              "code": "2075-0",
              "system": "http://loinc.org",
              "display": "Chloride [Moles/volume] in Serum or Plasma"
            }
          ],
          "text": "Chloride [Moles/volume] in Serum or Plasma"
        },
        "valueQuantity": {
          "system": "http://unitsofmeasure.org",
          "value": 108.4,
          "unit": "mmol/L",
          "code": "mmol/L"
        },
        "referenceRange": [
          {
            "low": {
              "value": 98,
              "code": "mmol/L",
              "system": "http://unitsofmeasure.org"
            }
          },
          {
            "high": {
              "value": 108,
              "code": "mmol/L",
              "system": "http://unitsofmeasure.org"
            }
          }
        ],
        "interpretation": [
          {
            "coding": [
              {
                "code": "H",
                "system": "http://terminology.hl7.org/CodeSystem/v3-ObservationInterpretation",
                "display": "High"
              }
            ]
          }
        ],
        "text": {
          "status": "generated",
          "div": "<div xmlns=\"http://www.w3.org/1999/xhtml\"><table class=\"hl7__eu__lab__report\"><tr><th>Test</th><th>17-Jun-2020</th><th>Reference&#xA0;Range</th><th>Unit</th></tr><tr><td>Chloride [Moles/volume] in Serum or Plasma</td><td>108.4</td><td>98 - 108</td><td>H</td><td>mmol/L</td></tr></table></div>"
        },
        "status": "final",
        "subject": {
          "reference": "urn:uuid:36dee3e0-a71e-4cf7-bcd7-88b7eb1d3cbe",
          "display": "Θεμιστοκλής Λιναρδάκη"
        },
        "effectiveDateTime": "2020-06-17T06:16:00Z",
        "specimen": {
          "reference": "urn:uuid:40babbb2-a43f-48b3-8b1e-5e3055513902"
        }
      }
    },
    {
      "fullUrl": "urn:uuid:02109122-b188-4cf9-9b95-0fd6c87c50ad",
      "resource": {
        "resourceType": "Observation",
        "id": "02109122-b188-4cf9-9b95-0fd6c87c50ad",
        "meta": {
          "profile": [
            "http://hl7.eu/fhir/laboratory/StructureDefinition/Observation-resultslab-eu-lab"
          ]
        },
        "performer": [
          {
            "display": "The Central European Lab"
          }
        ],
        "category": [
          {
            "coding": [
              {
                "system": "http://terminology.hl7.org/CodeSystem/observation-category",
                "code": "laboratory"
              }
            ]
          }
        ],
        "code": {
          "coding": [
            {
              "code": "2028-9",
              "system": "http://loinc.org",
              "display": "Carbon dioxide, total [Moles/volume] in Serum or Plasma"
            }
          ],
          "text": "Carbon dioxide, total [Moles/volume] in Serum or Plasma"
        },
        "valueQuantity": {
          "system": "http://unitsofmeasure.org",
          "value": 20.8,
          "unit": "mmol/L",
          "code": "mmol/L"
        },
        "referenceRange": [
          {
            "low": {
              "value": 22,
              "code": "mmol/L",
              "system": "http://unitsofmeasure.org"
            }
          },
          {
            "high": {
              "value": 29,
              "code": "mmol/L",
              "system": "http://unitsofmeasure.org"
            }
          }
        ],
        "interpretation": [
          {
            "coding": [
              {
                "code": "L",
                "system": "http://terminology.hl7.org/CodeSystem/v3-ObservationInterpretation",
                "display": "Low"
              }
            ]
          }
        ],
        "text": {
          "status": "generated",
          "div": "<div xmlns=\"http://www.w3.org/1999/xhtml\"><table class=\"hl7__eu__lab__report\"><tr><th>Test</th><th>17-Jun-2020</th><th>Reference&#xA0;Range</th><th>Unit</th></tr><tr><td>Carbon dioxide, total [Moles/volume] in Serum or Plasma</td><td>20.8</td><td>22 - 29</td><td>L</td><td>mmol/L</td></tr></table></div>"
        },
        "status": "final",
        "subject": {
          "reference": "urn:uuid:36dee3e0-a71e-4cf7-bcd7-88b7eb1d3cbe",
          "display": "Θεμιστοκλής Λιναρδάκη"
        },
        "effectiveDateTime": "2020-06-17T06:16:00Z",
        "specimen": {
          "reference": "urn:uuid:40babbb2-a43f-48b3-8b1e-5e3055513902"
        }
      }
    },
    {
      "fullUrl": "urn:uuid:562391dd-a29b-4ec7-a2c1-95f28477b080",
      "resource": {
        "resourceType": "Observation",
        "id": "562391dd-a29b-4ec7-a2c1-95f28477b080",
        "meta": {
          "profile": [
            "http://hl7.eu/fhir/laboratory/StructureDefinition/Observation-resultslab-eu-lab"
          ]
        },
        "performer": [
          {
            "display": "The Central European Lab"
          }
        ],
        "category": [
          {
            "coding": [
              {
                "system": "http://terminology.hl7.org/CodeSystem/observation-category",
                "code": "laboratory"
              }
            ]
          }
        ],
        "code": {
          "coding": [
            {
              "code": "5767-9",
              "system": "http://loinc.org",
              "display": "Appearance of Urine"
            }
          ],
          "text": "Appearance of Urine"
        },
        "text": {
          "status": "generated",
          "div": "<div xmlns=\"http://www.w3.org/1999/xhtml\"><table class=\"hl7__eu__lab__report\"><tr><th>Test</th><th>17-Jun-2020</th><th>Reference&#xA0;Range</th><th>Unit</th></tr><tr><td>Appearance of Urine</td></tr></table></div>"
        },
        "status": "final",
        "subject": {
          "reference": "urn:uuid:36dee3e0-a71e-4cf7-bcd7-88b7eb1d3cbe",
          "display": "Θεμιστοκλής Λιναρδάκη"
        },
        "effectiveDateTime": "2020-06-17T06:16:00Z",
        "specimen": {
          "reference": "urn:uuid:d0bcc953-4c71-4e5b-b420-8e3be3dc57a9"
        }
      }
    },
    {
      "fullUrl": "urn:uuid:c08dd8c2-266a-4a16-8740-e87c3f465964",
      "resource": {
        "resourceType": "Observation",
        "id": "c08dd8c2-266a-4a16-8740-e87c3f465964",
        "meta": {
          "profile": [
            "http://hl7.eu/fhir/laboratory/StructureDefinition/Observation-resultslab-eu-lab"
          ]
        },
        "performer": [
          {
            "display": "The Central European Lab"
          }
        ],
        "category": [
          {
            "coding": [
              {
                "system": "http://terminology.hl7.org/CodeSystem/observation-category",
                "code": "laboratory"
              }
            ]
          }
        ],
        "code": {
          "coding": [
            {
              "code": "34533-0",
              "system": "http://loinc.org",
              "display": "Odor of Urine"
            }
          ],
          "text": "Odor of Urine"
        },
        "text": {
          "status": "generated",
          "div": "<div xmlns=\"http://www.w3.org/1999/xhtml\"><table class=\"hl7__eu__lab__report\"><tr><th>Test</th><th>17-Jun-2020</th><th>Reference&#xA0;Range</th><th>Unit</th></tr><tr><td>Odor of Urine</td></tr></table></div>"
        },
        "status": "final",
        "subject": {
          "reference": "urn:uuid:36dee3e0-a71e-4cf7-bcd7-88b7eb1d3cbe",
          "display": "Θεμιστοκλής Λιναρδάκη"
        },
        "effectiveDateTime": "2020-06-17T06:16:00Z",
        "specimen": {
          "reference": "urn:uuid:d0bcc953-4c71-4e5b-b420-8e3be3dc57a9"
        }
      }
    },
    {
      "fullUrl": "urn:uuid:0e338ac1-cfc2-4f4b-9ccf-e263503806c9",
      "resource": {
        "resourceType": "Observation",
        "id": "0e338ac1-cfc2-4f4b-9ccf-e263503806c9",
        "meta": {
          "profile": [
            "http://hl7.eu/fhir/laboratory/StructureDefinition/Observation-resultslab-eu-lab"
          ]
        },
        "performer": [
          {
            "display": "The Central European Lab"
          }
        ],
        "category": [
          {
            "coding": [
              {
                "system": "http://terminology.hl7.org/CodeSystem/observation-category",
                "code": "laboratory"
              }
            ]
          }
        ],
        "code": {
          "coding": [
            {
              "code": "32167-9",
              "system": "http://loinc.org",
              "display": "Clarity of Urine"
            }
          ],
          "text": "Clarity of Urine"
        },
        "text": {
          "status": "generated",
          "div": "<div xmlns=\"http://www.w3.org/1999/xhtml\"><table class=\"hl7__eu__lab__report\"><tr><th>Test</th><th>17-Jun-2020</th><th>Reference&#xA0;Range</th><th>Unit</th></tr><tr><td>Clarity of Urine</td></tr></table></div>"
        },
        "status": "final",
        "subject": {
          "reference": "urn:uuid:36dee3e0-a71e-4cf7-bcd7-88b7eb1d3cbe",
          "display": "Θεμιστοκλής Λιναρδάκη"
        },
        "effectiveDateTime": "2020-06-17T06:16:00Z",
        "specimen": {
          "reference": "urn:uuid:d0bcc953-4c71-4e5b-b420-8e3be3dc57a9"
        }
      }
    },
    {
      "fullUrl": "urn:uuid:d335eb15-e599-4dfd-bb1e-6a7ce755b616",
      "resource": {
        "resourceType": "Observation",
        "id": "d335eb15-e599-4dfd-bb1e-6a7ce755b616",
        "meta": {
          "profile": [
            "http://hl7.eu/fhir/laboratory/StructureDefinition/Observation-resultslab-eu-lab"
          ]
        },
        "performer": [
          {
            "display": "The Central European Lab"
          }
        ],
        "category": [
          {
            "coding": [
              {
                "system": "http://terminology.hl7.org/CodeSystem/observation-category",
                "code": "laboratory"
              }
            ]
          }
        ],
        "code": {
          "coding": [
            {
              "code": "5778-6",
              "system": "http://loinc.org",
              "display": "Color of Urine"
            }
          ],
          "text": "Color of Urine"
        },
        "text": {
          "status": "generated",
          "div": "<div xmlns=\"http://www.w3.org/1999/xhtml\"><table class=\"hl7__eu__lab__report\"><tr><th>Test</th><th>17-Jun-2020</th><th>Reference&#xA0;Range</th><th>Unit</th></tr><tr><td>Color of Urine</td></tr></table></div>"
        },
        "status": "final",
        "subject": {
          "reference": "urn:uuid:36dee3e0-a71e-4cf7-bcd7-88b7eb1d3cbe",
          "display": "Θεμιστοκλής Λιναρδάκη"
        },
        "effectiveDateTime": "2020-06-17T06:16:00Z",
        "specimen": {
          "reference": "urn:uuid:d0bcc953-4c71-4e5b-b420-8e3be3dc57a9"
        }
      }
    },
    {
      "fullUrl": "urn:uuid:1d98c8dd-d48d-4f0a-8334-ce70e0a46089",
      "resource": {
        "resourceType": "Observation",
        "id": "1d98c8dd-d48d-4f0a-8334-ce70e0a46089",
        "meta": {
          "profile": [
            "http://hl7.eu/fhir/laboratory/StructureDefinition/Observation-resultslab-eu-lab"
          ]
        },
        "performer": [
          {
            "display": "The Central European Lab"
          }
        ],
        "category": [
          {
            "coding": [
              {
                "system": "http://terminology.hl7.org/CodeSystem/observation-category",
                "code": "laboratory"
              }
            ]
          }
        ],
        "code": {
          "coding": [
            {
              "code": "5792-7",
              "system": "http://loinc.org",
              "display": "Glucose [Mass/volume] in Urine by Test strip"
            }
          ],
          "text": "Glucose [Mass/volume] in Urine by Test strip"
        },
        "valueQuantity": {
          "system": "http://unitsofmeasure.org",
          "value": 1.8,
          "unit": "mg/dL",
          "code": "mg/dL"
        },
        "referenceRange": [
          {
            "low": {
              "value": 0,
              "code": "mg/dL",
              "system": "http://unitsofmeasure.org"
            }
          },
          {
            "high": {
              "value": 0.8,
              "code": "mg/dL",
              "system": "http://unitsofmeasure.org"
            }
          }
        ],
        "interpretation": [
          {
            "coding": [
              {
                "code": "H",
                "system": "http://terminology.hl7.org/CodeSystem/v3-ObservationInterpretation",
                "display": "High"
              }
            ]
          }
        ],
        "text": {
          "status": "generated",
          "div": "<div xmlns=\"http://www.w3.org/1999/xhtml\"><table class=\"hl7__eu__lab__report\"><tr><th>Test</th><th>17-Jun-2020</th><th>Reference&#xA0;Range</th><th>Unit</th></tr><tr><td>Glucose [Mass/volume] in Urine by Test strip</td><td>1.8</td><td>0 - 0.8</td><td>H</td><td>mg/dL</td></tr></table></div>"
        },
        "status": "final",
        "subject": {
          "reference": "urn:uuid:36dee3e0-a71e-4cf7-bcd7-88b7eb1d3cbe",
          "display": "Θεμιστοκλής Λιναρδάκη"
        },
        "effectiveDateTime": "2020-06-17T06:16:00Z",
        "specimen": {
          "reference": "urn:uuid:d0bcc953-4c71-4e5b-b420-8e3be3dc57a9"
        }
      }
    },
    {
      "fullUrl": "urn:uuid:0c6bc453-89ad-45d3-aa88-f19cc8417c86",
      "resource": {
        "resourceType": "Observation",
        "id": "0c6bc453-89ad-45d3-aa88-f19cc8417c86",
        "meta": {
          "profile": [
            "http://hl7.eu/fhir/laboratory/StructureDefinition/Observation-resultslab-eu-lab"
          ]
        },
        "performer": [
          {
            "display": "The Central European Lab"
          }
        ],
        "category": [
          {
            "coding": [
              {
                "system": "http://terminology.hl7.org/CodeSystem/observation-category",
                "code": "laboratory"
              }
            ]
          }
        ],
        "code": {
          "coding": [
            {
              "code": "25428-4",
              "system": "http://loinc.org",
              "display": "Glucose [Presence] in Urine by Test strip"
            }
          ],
          "text": "Glucose [Presence] in Urine by Test strip"
        },
        "text": {
          "status": "generated",
          "div": "<div xmlns=\"http://www.w3.org/1999/xhtml\"><table class=\"hl7__eu__lab__report\"><tr><th>Test</th><th>17-Jun-2020</th><th>Reference&#xA0;Range</th><th>Unit</th></tr><tr><td>Glucose [Presence] in Urine by Test strip</td></tr></table></div>"
        },
        "status": "final",
        "subject": {
          "reference": "urn:uuid:36dee3e0-a71e-4cf7-bcd7-88b7eb1d3cbe",
          "display": "Θεμιστοκλής Λιναρδάκη"
        },
        "effectiveDateTime": "2020-06-17T06:16:00Z",
        "specimen": {
          "reference": "urn:uuid:d0bcc953-4c71-4e5b-b420-8e3be3dc57a9"
        }
      }
    },
    {
      "fullUrl": "urn:uuid:ec32cef1-f54e-449c-b758-843ac1e2c887",
      "resource": {
        "resourceType": "Observation",
        "id": "ec32cef1-f54e-449c-b758-843ac1e2c887",
        "meta": {
          "profile": [
            "http://hl7.eu/fhir/laboratory/StructureDefinition/Observation-resultslab-eu-lab"
          ]
        },
        "performer": [
          {
            "display": "The Central European Lab"
          }
        ],
        "category": [
          {
            "coding": [
              {
                "system": "http://terminology.hl7.org/CodeSystem/observation-category",
                "code": "laboratory"
              }
            ]
          }
        ],
        "code": {
          "coding": [
            {
              "code": "20505-4",
              "system": "http://loinc.org",
              "display": "Bilirubin.total [Mass/volume] in Urine by Test strip"
            }
          ],
          "text": "Bilirubin.total [Mass/volume] in Urine by Test strip"
        },
        "valueQuantity": {
          "system": "http://unitsofmeasure.org",
          "value": 0.9,
          "unit": "mg/dL",
          "code": "mg/dL"
        },
        "referenceRange": [
          {
            "low": {
              "value": 0.2,
              "code": "mg/dL",
              "system": "http://unitsofmeasure.org"
            }
          },
          {
            "high": {
              "value": 1,
              "code": "mg/dL",
              "system": "http://unitsofmeasure.org"
            }
          }
        ],
        "text": {
          "status": "generated",
          "div": "<div xmlns=\"http://www.w3.org/1999/xhtml\"><table class=\"hl7__eu__lab__report\"><tr><th>Test</th><th>17-Jun-2020</th><th>Reference&#xA0;Range</th><th>Unit</th></tr><tr><td>Bilirubin.total [Mass/volume] in Urine by Test strip</td><td>0.9</td><td>0.2 - 1</td><td></td><td>mg/dL</td></tr></table></div>"
        },
        "status": "final",
        "subject": {
          "reference": "urn:uuid:36dee3e0-a71e-4cf7-bcd7-88b7eb1d3cbe",
          "display": "Θεμιστοκλής Λιναρδάκη"
        },
        "effectiveDateTime": "2020-06-17T06:16:00Z",
        "specimen": {
          "reference": "urn:uuid:d0bcc953-4c71-4e5b-b420-8e3be3dc57a9"
        }
      }
    },
    {
      "fullUrl": "urn:uuid:177d53ab-ed91-4596-aeb9-5a40375bbda0",
      "resource": {
        "resourceType": "Observation",
        "id": "177d53ab-ed91-4596-aeb9-5a40375bbda0",
        "meta": {
          "profile": [
            "http://hl7.eu/fhir/laboratory/StructureDefinition/Observation-resultslab-eu-lab"
          ]
        },
        "performer": [
          {
            "display": "The Central European Lab"
          }
        ],
        "category": [
          {
            "coding": [
              {
                "system": "http://terminology.hl7.org/CodeSystem/observation-category",
                "code": "laboratory"
              }
            ]
          }
        ],
        "code": {
          "coding": [
            {
              "code": "5770-3",
              "system": "http://loinc.org",
              "display": "Bilirubin.total [Presence] in Urine by Test strip"
            }
          ],
          "text": "Bilirubin.total [Presence] in Urine by Test strip"
        },
        "text": {
          "status": "generated",
          "div": "<div xmlns=\"http://www.w3.org/1999/xhtml\"><table class=\"hl7__eu__lab__report\"><tr><th>Test</th><th>17-Jun-2020</th><th>Reference&#xA0;Range</th><th>Unit</th></tr><tr><td>Bilirubin.total [Presence] in Urine by Test strip</td></tr></table></div>"
        },
        "status": "final",
        "subject": {
          "reference": "urn:uuid:36dee3e0-a71e-4cf7-bcd7-88b7eb1d3cbe",
          "display": "Θεμιστοκλής Λιναρδάκη"
        },
        "effectiveDateTime": "2020-06-17T06:16:00Z",
        "specimen": {
          "reference": "urn:uuid:d0bcc953-4c71-4e5b-b420-8e3be3dc57a9"
        }
      }
    },
    {
      "fullUrl": "urn:uuid:14007122-8740-4e19-94fb-180a70bbb41c",
      "resource": {
        "resourceType": "Observation",
        "id": "14007122-8740-4e19-94fb-180a70bbb41c",
        "meta": {
          "profile": [
            "http://hl7.eu/fhir/laboratory/StructureDefinition/Observation-resultslab-eu-lab"
          ]
        },
        "performer": [
          {
            "display": "The Central European Lab"
          }
        ],
        "category": [
          {
            "coding": [
              {
                "system": "http://terminology.hl7.org/CodeSystem/observation-category",
                "code": "laboratory"
              }
            ]
          }
        ],
        "code": {
          "coding": [
            {
              "code": "5797-6",
              "system": "http://loinc.org",
              "display": "Ketones [Mass/volume] in Urine by Test strip"
            }
          ],
          "text": "Ketones [Mass/volume] in Urine by Test strip"
        },
        "valueQuantity": {
          "system": "http://unitsofmeasure.org",
          "value": 16.9,
          "unit": "mg/dL",
          "code": "mg/dL"
        },
        "referenceRange": [
          {
            "low": {
              "value": 0,
              "code": "mg/dL",
              "system": "http://unitsofmeasure.org"
            }
          },
          {
            "high": {
              "value": 5,
              "code": "mg/dL",
              "system": "http://unitsofmeasure.org"
            }
          }
        ],
        "interpretation": [
          {
            "coding": [
              {
                "code": "H",
                "system": "http://terminology.hl7.org/CodeSystem/v3-ObservationInterpretation",
                "display": "High"
              }
            ]
          }
        ],
        "text": {
          "status": "generated",
          "div": "<div xmlns=\"http://www.w3.org/1999/xhtml\"><table class=\"hl7__eu__lab__report\"><tr><th>Test</th><th>17-Jun-2020</th><th>Reference&#xA0;Range</th><th>Unit</th></tr><tr><td>Ketones [Mass/volume] in Urine by Test strip</td><td>16.9</td><td>0 - 5</td><td>H</td><td>mg/dL</td></tr></table></div>"
        },
        "status": "final",
        "subject": {
          "reference": "urn:uuid:36dee3e0-a71e-4cf7-bcd7-88b7eb1d3cbe",
          "display": "Θεμιστοκλής Λιναρδάκη"
        },
        "effectiveDateTime": "2020-06-17T06:16:00Z",
        "specimen": {
          "reference": "urn:uuid:d0bcc953-4c71-4e5b-b420-8e3be3dc57a9"
        }
      }
    },
    {
      "fullUrl": "urn:uuid:464f4e07-3e02-43cd-a1c0-cba1ed2a6220",
      "resource": {
        "resourceType": "Observation",
        "id": "464f4e07-3e02-43cd-a1c0-cba1ed2a6220",
        "meta": {
          "profile": [
            "http://hl7.eu/fhir/laboratory/StructureDefinition/Observation-resultslab-eu-lab"
          ]
        },
        "performer": [
          {
            "display": "The Central European Lab"
          }
        ],
        "category": [
          {
            "coding": [
              {
                "system": "http://terminology.hl7.org/CodeSystem/observation-category",
                "code": "laboratory"
              }
            ]
          }
        ],
        "code": {
          "coding": [
            {
              "code": "2514-8",
              "system": "http://loinc.org",
              "display": "Ketones [Presence] in Urine by Test strip"
            }
          ],
          "text": "Ketones [Presence] in Urine by Test strip"
        },
        "text": {
          "status": "generated",
          "div": "<div xmlns=\"http://www.w3.org/1999/xhtml\"><table class=\"hl7__eu__lab__report\"><tr><th>Test</th><th>17-Jun-2020</th><th>Reference&#xA0;Range</th><th>Unit</th></tr><tr><td>Ketones [Presence] in Urine by Test strip</td></tr></table></div>"
        },
        "status": "final",
        "subject": {
          "reference": "urn:uuid:36dee3e0-a71e-4cf7-bcd7-88b7eb1d3cbe",
          "display": "Θεμιστοκλής Λιναρδάκη"
        },
        "effectiveDateTime": "2020-06-17T06:16:00Z",
        "specimen": {
          "reference": "urn:uuid:d0bcc953-4c71-4e5b-b420-8e3be3dc57a9"
        }
      }
    },
    {
      "fullUrl": "urn:uuid:b80d8ded-9372-45c0-be9c-bf24f8885043",
      "resource": {
        "resourceType": "Observation",
        "id": "b80d8ded-9372-45c0-be9c-bf24f8885043",
        "meta": {
          "profile": [
            "http://hl7.eu/fhir/laboratory/StructureDefinition/Observation-resultslab-eu-lab"
          ]
        },
        "performer": [
          {
            "display": "The Central European Lab"
          }
        ],
        "category": [
          {
            "coding": [
              {
                "system": "http://terminology.hl7.org/CodeSystem/observation-category",
                "code": "laboratory"
              }
            ]
          }
        ],
        "code": {
          "coding": [
            {
              "code": "5811-5",
              "system": "http://loinc.org",
              "display": "Specific gravity of Urine by Test strip"
            }
          ],
          "text": "Specific gravity of Urine by Test strip"
        },
        "valueQuantity": {
          "system": "http://unitsofmeasure.org",
          "value": 1,
          "unit": "{nominal}",
          "code": "{nominal}"
        },
        "referenceRange": [
          {
            "low": {
              "value": 1.005,
              "code": "g/mL",
              "system": "http://unitsofmeasure.org"
            }
          },
          {
            "high": {
              "value": 1.03,
              "code": "g/mL",
              "system": "http://unitsofmeasure.org"
            }
          }
        ],
        "interpretation": [
          {
            "coding": [
              {
                "code": "L",
                "system": "http://terminology.hl7.org/CodeSystem/v3-ObservationInterpretation",
                "display": "Low"
              }
            ]
          }
        ],
        "text": {
          "status": "generated",
          "div": "<div xmlns=\"http://www.w3.org/1999/xhtml\"><table class=\"hl7__eu__lab__report\"><tr><th>Test</th><th>17-Jun-2020</th><th>Reference&#xA0;Range</th><th>Unit</th></tr><tr><td>Specific gravity of Urine by Test strip</td><td>1.0</td><td>1.005 - 1.03</td><td>L</td><td>{nominal}</td></tr></table></div>"
        },
        "status": "final",
        "subject": {
          "reference": "urn:uuid:36dee3e0-a71e-4cf7-bcd7-88b7eb1d3cbe",
          "display": "Θεμιστοκλής Λιναρδάκη"
        },
        "effectiveDateTime": "2020-06-17T06:16:00Z",
        "specimen": {
          "reference": "urn:uuid:d0bcc953-4c71-4e5b-b420-8e3be3dc57a9"
        }
      }
    },
    {
      "fullUrl": "urn:uuid:54d9a01f-649e-49f1-805d-1d4cc0c96a80",
      "resource": {
        "resourceType": "Observation",
        "id": "54d9a01f-649e-49f1-805d-1d4cc0c96a80",
        "meta": {
          "profile": [
            "http://hl7.eu/fhir/laboratory/StructureDefinition/Observation-resultslab-eu-lab"
          ]
        },
        "performer": [
          {
            "display": "The Central European Lab"
          }
        ],
        "category": [
          {
            "coding": [
              {
                "system": "http://terminology.hl7.org/CodeSystem/observation-category",
                "code": "laboratory"
              }
            ]
          }
        ],
        "code": {
          "coding": [
            {
              "code": "5803-2",
              "system": "http://loinc.org",
              "display": "pH of Urine by Test strip"
            }
          ],
          "text": "pH of Urine by Test strip"
        },
        "valueQuantity": {
          "system": "http://unitsofmeasure.org",
          "value": 6.5,
          "unit": "pH",
          "code": "pH"
        },
        "referenceRange": [
          {
            "low": {
              "value": 4.6,
              "code": "pH",
              "system": "http://unitsofmeasure.org"
            }
          },
          {
            "high": {
              "value": 7,
              "code": "pH",
              "system": "http://unitsofmeasure.org"
            }
          }
        ],
        "text": {
          "status": "generated",
          "div": "<div xmlns=\"http://www.w3.org/1999/xhtml\"><table class=\"hl7__eu__lab__report\"><tr><th>Test</th><th>17-Jun-2020</th><th>Reference&#xA0;Range</th><th>Unit</th></tr><tr><td>pH of Urine by Test strip</td><td>6.5</td><td>4.6 - 7</td><td></td><td>pH</td></tr></table></div>"
        },
        "status": "final",
        "subject": {
          "reference": "urn:uuid:36dee3e0-a71e-4cf7-bcd7-88b7eb1d3cbe",
          "display": "Θεμιστοκλής Λιναρδάκη"
        },
        "effectiveDateTime": "2020-06-17T06:16:00Z",
        "specimen": {
          "reference": "urn:uuid:d0bcc953-4c71-4e5b-b420-8e3be3dc57a9"
        }
      }
    },
    {
      "fullUrl": "urn:uuid:a4c81383-a609-45cc-87f3-83ff7a2617c6",
      "resource": {
        "resourceType": "Observation",
        "id": "a4c81383-a609-45cc-87f3-83ff7a2617c6",
        "meta": {
          "profile": [
            "http://hl7.eu/fhir/laboratory/StructureDefinition/Observation-resultslab-eu-lab"
          ]
        },
        "performer": [
          {
            "display": "The Central European Lab"
          }
        ],
        "category": [
          {
            "coding": [
              {
                "system": "http://terminology.hl7.org/CodeSystem/observation-category",
                "code": "laboratory"
              }
            ]
          }
        ],
        "code": {
          "coding": [
            {
              "code": "5804-0",
              "system": "http://loinc.org",
              "display": "Protein [Mass/volume] in Urine by Test strip"
            }
          ],
          "text": "Protein [Mass/volume] in Urine by Test strip"
        },
        "valueQuantity": {
          "system": "http://unitsofmeasure.org",
          "value": 393.3,
          "unit": "mg/dL",
          "code": "mg/dL"
        },
        "referenceRange": [
          {
            "low": {
              "value": 0,
              "code": "mg/dL",
              "system": "http://unitsofmeasure.org"
            }
          },
          {
            "high": {
              "value": 150,
              "code": "mg/dL",
              "system": "http://unitsofmeasure.org"
            }
          }
        ],
        "interpretation": [
          {
            "coding": [
              {
                "code": "H",
                "system": "http://terminology.hl7.org/CodeSystem/v3-ObservationInterpretation",
                "display": "High"
              }
            ]
          }
        ],
        "text": {
          "status": "generated",
          "div": "<div xmlns=\"http://www.w3.org/1999/xhtml\"><table class=\"hl7__eu__lab__report\"><tr><th>Test</th><th>17-Jun-2020</th><th>Reference&#xA0;Range</th><th>Unit</th></tr><tr><td>Protein [Mass/volume] in Urine by Test strip</td><td>393.3</td><td>0 - 150</td><td>H</td><td>mg/dL</td></tr></table></div>"
        },
        "status": "final",
        "subject": {
          "reference": "urn:uuid:36dee3e0-a71e-4cf7-bcd7-88b7eb1d3cbe",
          "display": "Θεμιστοκλής Λιναρδάκη"
        },
        "effectiveDateTime": "2020-06-17T06:16:00Z",
        "specimen": {
          "reference": "urn:uuid:d0bcc953-4c71-4e5b-b420-8e3be3dc57a9"
        }
      }
    },
    {
      "fullUrl": "urn:uuid:232f4f50-5259-477b-8a39-cfb7bd58d7f7",
      "resource": {
        "resourceType": "Observation",
        "id": "232f4f50-5259-477b-8a39-cfb7bd58d7f7",
        "meta": {
          "profile": [
            "http://hl7.eu/fhir/laboratory/StructureDefinition/Observation-resultslab-eu-lab"
          ]
        },
        "performer": [
          {
            "display": "The Central European Lab"
          }
        ],
        "category": [
          {
            "coding": [
              {
                "system": "http://terminology.hl7.org/CodeSystem/observation-category",
                "code": "laboratory"
              }
            ]
          }
        ],
        "code": {
          "coding": [
            {
              "code": "20454-5",
              "system": "http://loinc.org",
              "display": "Protein [Presence] in Urine by Test strip"
            }
          ],
          "text": "Protein [Presence] in Urine by Test strip"
        },
        "text": {
          "status": "generated",
          "div": "<div xmlns=\"http://www.w3.org/1999/xhtml\"><table class=\"hl7__eu__lab__report\"><tr><th>Test</th><th>17-Jun-2020</th><th>Reference&#xA0;Range</th><th>Unit</th></tr><tr><td>Protein [Presence] in Urine by Test strip</td></tr></table></div>"
        },
        "status": "final",
        "subject": {
          "reference": "urn:uuid:36dee3e0-a71e-4cf7-bcd7-88b7eb1d3cbe",
          "display": "Θεμιστοκλής Λιναρδάκη"
        },
        "effectiveDateTime": "2020-06-17T06:16:00Z",
        "specimen": {
          "reference": "urn:uuid:d0bcc953-4c71-4e5b-b420-8e3be3dc57a9"
        }
      }
    },
    {
      "fullUrl": "urn:uuid:569fbe60-fa04-471f-b3de-72e46904435d",
      "resource": {
        "resourceType": "Observation",
        "id": "569fbe60-fa04-471f-b3de-72e46904435d",
        "meta": {
          "profile": [
            "http://hl7.eu/fhir/laboratory/StructureDefinition/Observation-resultslab-eu-lab"
          ]
        },
        "performer": [
          {
            "display": "The Central European Lab"
          }
        ],
        "category": [
          {
            "coding": [
              {
                "system": "http://terminology.hl7.org/CodeSystem/observation-category",
                "code": "laboratory"
              }
            ]
          }
        ],
        "code": {
          "coding": [
            {
              "code": "5802-4",
              "system": "http://loinc.org",
              "display": "Nitrite [Presence] in Urine by Test strip"
            }
          ],
          "text": "Nitrite [Presence] in Urine by Test strip"
        },
        "text": {
          "status": "generated",
          "div": "<div xmlns=\"http://www.w3.org/1999/xhtml\"><table class=\"hl7__eu__lab__report\"><tr><th>Test</th><th>17-Jun-2020</th><th>Reference&#xA0;Range</th><th>Unit</th></tr><tr><td>Nitrite [Presence] in Urine by Test strip</td></tr></table></div>"
        },
        "status": "final",
        "subject": {
          "reference": "urn:uuid:36dee3e0-a71e-4cf7-bcd7-88b7eb1d3cbe",
          "display": "Θεμιστοκλής Λιναρδάκη"
        },
        "effectiveDateTime": "2020-06-17T06:16:00Z",
        "specimen": {
          "reference": "urn:uuid:d0bcc953-4c71-4e5b-b420-8e3be3dc57a9"
        }
      }
    },
    {
      "fullUrl": "urn:uuid:e1716998-53b3-42d9-825c-0480f1dd4c1a",
      "resource": {
        "resourceType": "Observation",
        "id": "e1716998-53b3-42d9-825c-0480f1dd4c1a",
        "meta": {
          "profile": [
            "http://hl7.eu/fhir/laboratory/StructureDefinition/Observation-resultslab-eu-lab"
          ]
        },
        "performer": [
          {
            "display": "The Central European Lab"
          }
        ],
        "category": [
          {
            "coding": [
              {
                "system": "http://terminology.hl7.org/CodeSystem/observation-category",
                "code": "laboratory"
              }
            ]
          }
        ],
        "code": {
          "coding": [
            {
              "code": "5794-3",
              "system": "http://loinc.org",
              "display": "Hemoglobin [Presence] in Urine by Test strip"
            }
          ],
          "text": "Hemoglobin [Presence] in Urine by Test strip"
        },
        "text": {
          "status": "generated",
          "div": "<div xmlns=\"http://www.w3.org/1999/xhtml\"><table class=\"hl7__eu__lab__report\"><tr><th>Test</th><th>17-Jun-2020</th><th>Reference&#xA0;Range</th><th>Unit</th></tr><tr><td>Hemoglobin [Presence] in Urine by Test strip</td></tr></table></div>"
        },
        "status": "final",
        "subject": {
          "reference": "urn:uuid:36dee3e0-a71e-4cf7-bcd7-88b7eb1d3cbe",
          "display": "Θεμιστοκλής Λιναρδάκη"
        },
        "effectiveDateTime": "2020-06-17T06:16:00Z",
        "specimen": {
          "reference": "urn:uuid:d0bcc953-4c71-4e5b-b420-8e3be3dc57a9"
        }
      }
    },
    {
      "fullUrl": "urn:uuid:256210a4-080c-49c6-8f65-c60712c18d16",
      "resource": {
        "resourceType": "Observation",
        "id": "256210a4-080c-49c6-8f65-c60712c18d16",
        "meta": {
          "profile": [
            "http://hl7.eu/fhir/laboratory/StructureDefinition/Observation-resultslab-eu-lab"
          ]
        },
        "performer": [
          {
            "display": "The Central European Lab"
          }
        ],
        "category": [
          {
            "coding": [
              {
                "system": "http://terminology.hl7.org/CodeSystem/observation-category",
                "code": "laboratory"
              }
            ]
          }
        ],
        "code": {
          "coding": [
            {
              "code": "5799-2",
              "system": "http://loinc.org",
              "display": "Leukocyte esterase [Presence] in Urine by Test strip"
            }
          ],
          "text": "Leukocyte esterase [Presence] in Urine by Test strip"
        },
        "text": {
          "status": "generated",
          "div": "<div xmlns=\"http://www.w3.org/1999/xhtml\"><table class=\"hl7__eu__lab__report\"><tr><th>Test</th><th>17-Jun-2020</th><th>Reference&#xA0;Range</th><th>Unit</th></tr><tr><td>Leukocyte esterase [Presence] in Urine by Test strip</td></tr></table></div>"
        },
        "status": "final",
        "subject": {
          "reference": "urn:uuid:36dee3e0-a71e-4cf7-bcd7-88b7eb1d3cbe",
          "display": "Θεμιστοκλής Λιναρδάκη"
        },
        "effectiveDateTime": "2020-06-17T06:16:00Z",
        "specimen": {
          "reference": "urn:uuid:d0bcc953-4c71-4e5b-b420-8e3be3dc57a9"
        }
      }
    },
    {
      "fullUrl": "urn:uuid:f2278ac0-47ab-467d-809c-61a8619c8f7e",
      "resource": {
        "resourceType": "Observation",
        "id": "f2278ac0-47ab-467d-809c-61a8619c8f7e",
        "meta": {
          "profile": [
            "http://hl7.eu/fhir/laboratory/StructureDefinition/Observation-resultslab-eu-lab"
          ]
        },
        "performer": [
          {
            "display": "The Central European Lab"
          }
        ],
        "category": [
          {
            "coding": [
              {
                "system": "http://terminology.hl7.org/CodeSystem/observation-category",
                "code": "laboratory"
              }
            ]
          }
        ],
        "code": {
          "coding": [
            {
              "code": "4548-4",
              "system": "http://loinc.org",
              "display": "Hemoglobin A1c/Hemoglobin.total in Blood"
            }
          ],
          "text": "Hemoglobin A1c/Hemoglobin.total in Blood"
        },
        "valueQuantity": {
          "system": "http://unitsofmeasure.org",
          "value": 2.8,
          "unit": "%",
          "code": "%"
        },
        "referenceRange": [
          {
            "low": {
              "value": 4.3,
              "code": "%",
              "system": "http://unitsofmeasure.org"
            }
          },
          {
            "high": {
              "value": 6.4,
              "code": "%",
              "system": "http://unitsofmeasure.org"
            }
          }
        ],
        "interpretation": [
          {
            "coding": [
              {
                "code": "L",
                "system": "http://terminology.hl7.org/CodeSystem/v3-ObservationInterpretation",
                "display": "Low"
              }
            ]
          }
        ],
        "text": {
          "status": "generated",
          "div": "<div xmlns=\"http://www.w3.org/1999/xhtml\"><table class=\"hl7__eu__lab__report\"><tr><th>Test</th><th>17-Jun-2020</th><th>Reference&#xA0;Range</th><th>Unit</th></tr><tr><td>Hemoglobin A1c/Hemoglobin.total in Blood</td><td>2.8</td><td>4.3 - 6.4</td><td>L</td><td>%</td></tr></table></div>"
        },
        "status": "final",
        "subject": {
          "reference": "urn:uuid:36dee3e0-a71e-4cf7-bcd7-88b7eb1d3cbe",
          "display": "Θεμιστοκλής Λιναρδάκη"
        },
        "effectiveDateTime": "2020-06-17T06:16:00Z",
        "specimen": {
          "reference": "urn:uuid:8e59d8ff-f484-425b-a922-a29faef73c9e"
        }
      }
    },
    {
      "fullUrl": "urn:uuid:dc116117-a422-4418-85c1-1792f6697b2a",
      "resource": {
        "resourceType": "Observation",
        "id": "dc116117-a422-4418-85c1-1792f6697b2a",
        "meta": {
          "profile": [
            "http://hl7.eu/fhir/laboratory/StructureDefinition/Observation-resultslab-eu-lab"
          ]
        },
        "performer": [
          {
            "display": "The Central European Lab"
          }
        ],
        "category": [
          {
            "coding": [
              {
                "system": "http://terminology.hl7.org/CodeSystem/observation-category",
                "code": "laboratory"
              }
            ]
          }
        ],
        "code": {
          "coding": [
            {
              "code": "2339-0",
              "system": "http://loinc.org",
              "display": "Glucose [Mass/volume] in Blood"
            }
          ],
          "text": "Glucose [Mass/volume] in Blood"
        },
        "valueQuantity": {
          "system": "http://unitsofmeasure.org",
          "value": 91.9,
          "unit": "mg/dL",
          "code": "mg/dL"
        },
        "referenceRange": [
          {
            "low": {
              "value": 70,
              "code": "mg/dL",
              "system": "http://unitsofmeasure.org"
            }
          },
          {
            "high": {
              "value": 140,
              "code": "mg/dL",
              "system": "http://unitsofmeasure.org"
            }
          }
        ],
        "text": {
          "status": "generated",
          "div": "<div xmlns=\"http://www.w3.org/1999/xhtml\"><table class=\"hl7__eu__lab__report\"><tr><th>Test</th><th>17-Jun-2020</th><th>Reference&#xA0;Range</th><th>Unit</th></tr><tr><td>Glucose [Mass/volume] in Blood</td><td>91.9</td><td>70 - 140</td><td></td><td>mg/dL</td></tr></table></div>"
        },
        "status": "final",
        "subject": {
          "reference": "urn:uuid:36dee3e0-a71e-4cf7-bcd7-88b7eb1d3cbe",
          "display": "Θεμιστοκλής Λιναρδάκη"
        },
        "effectiveDateTime": "2020-06-17T06:16:00Z",
        "specimen": {
          "reference": "urn:uuid:8e59d8ff-f484-425b-a922-a29faef73c9e"
        }
      }
    },
    {
      "fullUrl": "urn:uuid:51ea99e8-9f45-4caf-a0dd-3a5930e347d8",
      "resource": {
        "resourceType": "Observation",
        "id": "51ea99e8-9f45-4caf-a0dd-3a5930e347d8",
        "meta": {
          "profile": [
            "http://hl7.eu/fhir/laboratory/StructureDefinition/Observation-resultslab-eu-lab"
          ]
        },
        "performer": [
          {
            "display": "The Central European Lab"
          }
        ],
        "category": [
          {
            "coding": [
              {
                "system": "http://terminology.hl7.org/CodeSystem/observation-category",
                "code": "laboratory"
              }
            ]
          }
        ],
        "code": {
          "coding": [
            {
              "code": "6299-2",
              "system": "http://loinc.org",
              "display": "Urea nitrogen [Mass/volume] in Blood"
            }
          ],
          "text": "Urea nitrogen [Mass/volume] in Blood"
        },
        "valueQuantity": {
          "system": "http://unitsofmeasure.org",
          "value": 7.5,
          "unit": "mg/dL",
          "code": "mg/dL"
        },
        "referenceRange": [
          {
            "low": {
              "value": 7,
              "code": "mg/dL",
              "system": "http://unitsofmeasure.org"
            }
          },
          {
            "high": {
              "value": 20,
              "code": "mg/dL",
              "system": "http://unitsofmeasure.org"
            }
          }
        ],
        "text": {
          "status": "generated",
          "div": "<div xmlns=\"http://www.w3.org/1999/xhtml\"><table class=\"hl7__eu__lab__report\"><tr><th>Test</th><th>17-Jun-2020</th><th>Reference&#xA0;Range</th><th>Unit</th></tr><tr><td>Urea nitrogen [Mass/volume] in Blood</td><td>7.5</td><td>7 - 20</td><td></td><td>mg/dL</td></tr></table></div>"
        },
        "status": "final",
        "subject": {
          "reference": "urn:uuid:36dee3e0-a71e-4cf7-bcd7-88b7eb1d3cbe",
          "display": "Θεμιστοκλής Λιναρδάκη"
        },
        "effectiveDateTime": "2020-06-17T06:16:00Z",
        "specimen": {
          "reference": "urn:uuid:8e59d8ff-f484-425b-a922-a29faef73c9e"
        }
      }
    },
    {
      "fullUrl": "urn:uuid:d87bbee5-7d43-4cb9-859e-24075bbaea57",
      "resource": {
        "resourceType": "Observation",
        "id": "d87bbee5-7d43-4cb9-859e-24075bbaea57",
        "meta": {
          "profile": [
            "http://hl7.eu/fhir/laboratory/StructureDefinition/Observation-resultslab-eu-lab"
          ]
        },
        "performer": [
          {
            "display": "The Central European Lab"
          }
        ],
        "category": [
          {
            "coding": [
              {
                "system": "http://terminology.hl7.org/CodeSystem/observation-category",
                "code": "laboratory"
              }
            ]
          }
        ],
        "code": {
          "coding": [
            {
              "code": "38483-4",
              "system": "http://loinc.org",
              "display": "Creatinine [Mass/volume] in Blood"
            }
          ],
          "text": "Creatinine [Mass/volume] in Blood"
        },
        "valueQuantity": {
          "system": "http://unitsofmeasure.org",
          "value": 7.5,
          "unit": "mg/dL",
          "code": "mg/dL"
        },
        "referenceRange": [
          {
            "low": {
              "value": 0.6,
              "code": "mg/dL",
              "system": "http://unitsofmeasure.org"
            }
          },
          {
            "high": {
              "value": 1.3,
              "code": "mg/dL",
              "system": "http://unitsofmeasure.org"
            }
          }
        ],
        "interpretation": [
          {
            "coding": [
              {
                "code": "H",
                "system": "http://terminology.hl7.org/CodeSystem/v3-ObservationInterpretation",
                "display": "High"
              }
            ]
          }
        ],
        "text": {
          "status": "generated",
          "div": "<div xmlns=\"http://www.w3.org/1999/xhtml\"><table class=\"hl7__eu__lab__report\"><tr><th>Test</th><th>17-Jun-2020</th><th>Reference&#xA0;Range</th><th>Unit</th></tr><tr><td>Creatinine [Mass/volume] in Blood</td><td>7.5</td><td>0.6 - 1.3</td><td>H</td><td>mg/dL</td></tr></table></div>"
        },
        "status": "final",
        "subject": {
          "reference": "urn:uuid:36dee3e0-a71e-4cf7-bcd7-88b7eb1d3cbe",
          "display": "Θεμιστοκλής Λιναρδάκη"
        },
        "effectiveDateTime": "2020-06-17T06:16:00Z",
        "specimen": {
          "reference": "urn:uuid:8e59d8ff-f484-425b-a922-a29faef73c9e"
        }
      }
    },
    {
      "fullUrl": "urn:uuid:410b98e4-da14-49bb-811c-935f195b0342",
      "resource": {
        "resourceType": "Observation",
        "id": "410b98e4-da14-49bb-811c-935f195b0342",
        "meta": {
          "profile": [
            "http://hl7.eu/fhir/laboratory/StructureDefinition/Observation-resultslab-eu-lab"
          ]
        },
        "performer": [
          {
            "display": "The Central European Lab"
          }
        ],
        "category": [
          {
            "coding": [
              {
                "system": "http://terminology.hl7.org/CodeSystem/observation-category",
                "code": "laboratory"
              }
            ]
          }
        ],
        "code": {
          "coding": [
            {
              "code": "49765-1",
              "system": "http://loinc.org",
              "display": "Calcium [Mass/volume] in Blood"
            }
          ],
          "text": "Calcium [Mass/volume] in Blood"
        },
        "valueQuantity": {
          "system": "http://unitsofmeasure.org",
          "value": 8.9,
          "unit": "mg/dL",
          "code": "mg/dL"
        },
        "referenceRange": [
          {
            "low": {
              "value": 8.5,
              "code": "mg/dL",
              "system": "http://unitsofmeasure.org"
            }
          },
          {
            "high": {
              "value": 10.5,
              "code": "mg/dL",
              "system": "http://unitsofmeasure.org"
            }
          }
        ],
        "text": {
          "status": "generated",
          "div": "<div xmlns=\"http://www.w3.org/1999/xhtml\"><table class=\"hl7__eu__lab__report\"><tr><th>Test</th><th>17-Jun-2020</th><th>Reference&#xA0;Range</th><th>Unit</th></tr><tr><td>Calcium [Mass/volume] in Blood</td><td>8.9</td><td>8.5 - 10.5</td><td></td><td>mg/dL</td></tr></table></div>"
        },
        "status": "final",
        "subject": {
          "reference": "urn:uuid:36dee3e0-a71e-4cf7-bcd7-88b7eb1d3cbe",
          "display": "Θεμιστοκλής Λιναρδάκη"
        },
        "effectiveDateTime": "2020-06-17T06:16:00Z",
        "specimen": {
          "reference": "urn:uuid:8e59d8ff-f484-425b-a922-a29faef73c9e"
        }
      }
    },
    {
      "fullUrl": "urn:uuid:34f84449-0d4e-407a-9b1f-a480d75a2253",
      "resource": {
        "resourceType": "Observation",
        "id": "34f84449-0d4e-407a-9b1f-a480d75a2253",
        "meta": {
          "profile": [
            "http://hl7.eu/fhir/laboratory/StructureDefinition/Observation-resultslab-eu-lab"
          ]
        },
        "performer": [
          {
            "display": "The Central European Lab"
          }
        ],
        "category": [
          {
            "coding": [
              {
                "system": "http://terminology.hl7.org/CodeSystem/observation-category",
                "code": "laboratory"
              }
            ]
          }
        ],
        "code": {
          "coding": [
            {
              "code": "2947-0",
              "system": "http://loinc.org",
              "display": "Sodium [Moles/volume] in Blood"
            }
          ],
          "text": "Sodium [Moles/volume] in Blood"
        },
        "valueQuantity": {
          "system": "http://unitsofmeasure.org",
          "value": 138.1,
          "unit": "mmol/L",
          "code": "mmol/L"
        },
        "referenceRange": [
          {
            "low": {
              "value": 135,
              "code": "mmol/L",
              "system": "http://unitsofmeasure.org"
            }
          },
          {
            "high": {
              "value": 145,
              "code": "mmol/L",
              "system": "http://unitsofmeasure.org"
            }
          }
        ],
        "text": {
          "status": "generated",
          "div": "<div xmlns=\"http://www.w3.org/1999/xhtml\"><table class=\"hl7__eu__lab__report\"><tr><th>Test</th><th>17-Jun-2020</th><th>Reference&#xA0;Range</th><th>Unit</th></tr><tr><td>Sodium [Moles/volume] in Blood</td><td>138.1</td><td>135 - 145</td><td></td><td>mmol/L</td></tr></table></div>"
        },
        "status": "final",
        "subject": {
          "reference": "urn:uuid:36dee3e0-a71e-4cf7-bcd7-88b7eb1d3cbe",
          "display": "Θεμιστοκλής Λιναρδάκη"
        },
        "effectiveDateTime": "2020-06-17T06:16:00Z",
        "specimen": {
          "reference": "urn:uuid:8e59d8ff-f484-425b-a922-a29faef73c9e"
        }
      }
    },
    {
      "fullUrl": "urn:uuid:08e35bae-febd-4215-a376-91d281c69f3c",
      "resource": {
        "resourceType": "Observation",
        "id": "08e35bae-febd-4215-a376-91d281c69f3c",
        "meta": {
          "profile": [
            "http://hl7.eu/fhir/laboratory/StructureDefinition/Observation-resultslab-eu-lab"
          ]
        },
        "performer": [
          {
            "display": "The Central European Lab"
          }
        ],
        "category": [
          {
            "coding": [
              {
                "system": "http://terminology.hl7.org/CodeSystem/observation-category",
                "code": "laboratory"
              }
            ]
          }
        ],
        "code": {
          "coding": [
            {
              "code": "6298-4",
              "system": "http://loinc.org",
              "display": "Potassium [Moles/volume] in Blood"
            }
          ],
          "text": "Potassium [Moles/volume] in Blood"
        },
        "valueQuantity": {
          "system": "http://unitsofmeasure.org",
          "value": 4.7,
          "unit": "mmol/L",
          "code": "mmol/L"
        },
        "referenceRange": [
          {
            "low": {
              "value": 3.5,
              "code": "mmol/L",
              "system": "http://unitsofmeasure.org"
            }
          },
          {
            "high": {
              "value": 5.3,
              "code": "mmol/L",
              "system": "http://unitsofmeasure.org"
            }
          }
        ],
        "text": {
          "status": "generated",
          "div": "<div xmlns=\"http://www.w3.org/1999/xhtml\"><table class=\"hl7__eu__lab__report\"><tr><th>Test</th><th>17-Jun-2020</th><th>Reference&#xA0;Range</th><th>Unit</th></tr><tr><td>Potassium [Moles/volume] in Blood</td><td>4.7</td><td>3.5 - 5.3</td><td></td><td>mmol/L</td></tr></table></div>"
        },
        "status": "final",
        "subject": {
          "reference": "urn:uuid:36dee3e0-a71e-4cf7-bcd7-88b7eb1d3cbe",
          "display": "Θεμιστοκλής Λιναρδάκη"
        },
        "effectiveDateTime": "2020-06-17T06:16:00Z",
        "specimen": {
          "reference": "urn:uuid:8e59d8ff-f484-425b-a922-a29faef73c9e"
        }
      }
    },
    {
      "fullUrl": "urn:uuid:11084aad-1e78-4809-8549-0ec0dde302b1",
      "resource": {
        "resourceType": "Observation",
        "id": "11084aad-1e78-4809-8549-0ec0dde302b1",
        "meta": {
          "profile": [
            "http://hl7.eu/fhir/laboratory/StructureDefinition/Observation-resultslab-eu-lab"
          ]
        },
        "performer": [
          {
            "display": "The Central European Lab"
          }
        ],
        "category": [
          {
            "coding": [
              {
                "system": "http://terminology.hl7.org/CodeSystem/observation-category",
                "code": "laboratory"
              }
            ]
          }
        ],
        "code": {
          "coding": [
            {
              "code": "2069-3",
              "system": "http://loinc.org",
              "display": "Chloride [Moles/volume] in Blood"
            }
          ],
          "text": "Chloride [Moles/volume] in Blood"
        },
        "valueQuantity": {
          "system": "http://unitsofmeasure.org",
          "value": 108.4,
          "unit": "mmol/L",
          "code": "mmol/L"
        },
        "referenceRange": [
          {
            "low": {
              "value": 98,
              "code": "mmol/L",
              "system": "http://unitsofmeasure.org"
            }
          },
          {
            "high": {
              "value": 110,
              "code": "mmol/L",
              "system": "http://unitsofmeasure.org"
            }
          }
        ],
        "text": {
          "status": "generated",
          "div": "<div xmlns=\"http://www.w3.org/1999/xhtml\"><table class=\"hl7__eu__lab__report\"><tr><th>Test</th><th>17-Jun-2020</th><th>Reference&#xA0;Range</th><th>Unit</th></tr><tr><td>Chloride [Moles/volume] in Blood</td><td>108.4</td><td>98 - 110</td><td></td><td>mmol/L</td></tr></table></div>"
        },
        "status": "final",
        "subject": {
          "reference": "urn:uuid:36dee3e0-a71e-4cf7-bcd7-88b7eb1d3cbe",
          "display": "Θεμιστοκλής Λιναρδάκη"
        },
        "effectiveDateTime": "2020-06-17T06:16:00Z",
        "specimen": {
          "reference": "urn:uuid:8e59d8ff-f484-425b-a922-a29faef73c9e"
        }
      }
    },
    {
      "fullUrl": "urn:uuid:2cb5fbb8-c0bf-44c4-9b9f-ad6a4755c446",
      "resource": {
        "resourceType": "Observation",
        "id": "2cb5fbb8-c0bf-44c4-9b9f-ad6a4755c446",
        "meta": {
          "profile": [
            "http://hl7.eu/fhir/laboratory/StructureDefinition/Observation-resultslab-eu-lab"
          ]
        },
        "performer": [
          {
            "display": "The Central European Lab"
          }
        ],
        "category": [
          {
            "coding": [
              {
                "system": "http://terminology.hl7.org/CodeSystem/observation-category",
                "code": "laboratory"
              }
            ]
          }
        ],
        "code": {
          "coding": [
            {
              "code": "20565-8",
              "system": "http://loinc.org",
              "display": "Carbon dioxide, total [Moles/volume] in Blood"
            }
          ],
          "text": "Carbon dioxide, total [Moles/volume] in Blood"
        },
        "valueQuantity": {
          "system": "http://unitsofmeasure.org",
          "value": 20.8,
          "unit": "mmol/L",
          "code": "mmol/L"
        },
        "referenceRange": [
          {
            "low": {
              "value": 22,
              "code": "mmol/L",
              "system": "http://unitsofmeasure.org"
            }
          },
          {
            "high": {
              "value": 29,
              "code": "mmol/L",
              "system": "http://unitsofmeasure.org"
            }
          }
        ],
        "interpretation": [
          {
            "coding": [
              {
                "code": "L",
                "system": "http://terminology.hl7.org/CodeSystem/v3-ObservationInterpretation",
                "display": "Low"
              }
            ]
          }
        ],
        "text": {
          "status": "generated",
          "div": "<div xmlns=\"http://www.w3.org/1999/xhtml\"><table class=\"hl7__eu__lab__report\"><tr><th>Test</th><th>17-Jun-2020</th><th>Reference&#xA0;Range</th><th>Unit</th></tr><tr><td>Carbon dioxide, total [Moles/volume] in Blood</td><td>20.8</td><td>22 - 29</td><td>L</td><td>mmol/L</td></tr></table></div>"
        },
        "status": "final",
        "subject": {
          "reference": "urn:uuid:36dee3e0-a71e-4cf7-bcd7-88b7eb1d3cbe",
          "display": "Θεμιστοκλής Λιναρδάκη"
        },
        "effectiveDateTime": "2020-06-17T06:16:00Z",
        "specimen": {
          "reference": "urn:uuid:8e59d8ff-f484-425b-a922-a29faef73c9e"
        }
      }
    },
    {
      "fullUrl": "urn:uuid:0ba1f280-d0f8-4a4f-9d9a-5111e217610d",
      "resource": {
        "resourceType": "Device",
        "id": "0ba1f280-d0f8-4a4f-9d9a-5111e217610d",
        "deviceName": [
          {
            "name": "SYNDERAI Synthetic Generator",
            "type": "manufacturer-name"
          }
        ],
        "version": [
          {
            "value": "5.0"
          }
        ],
        "text": {
          "status": "generated",
          "div": "<div xmlns=\"http://www.w3.org/1999/xhtml\">SYNDERAI Synthetic Generator v5.0</div>"
        },
        "status": "active\"",
        "distinctIdentifier": "synderai-generator-50",
        "manufacturer": "SYNDERAI Project"
      }
    },
    {
      "fullUrl": "urn:uuid:019defa9-5b58-42bb-b83f-eec184e47c7d",
      "resource": {
        "resourceType": "Provenance",
        "id": "019defa9-5b58-42bb-b83f-eec184e47c7d",
        "target": [
          {
            "reference": "Patient/36dee3e0-a71e-4cf7-bcd7-88b7eb1d3cbe"
          },
          {
            "reference": "Bundle/8f1fb9f5-c496-46ff-90a6-f0a02c82ec75"
          },
          {
            "reference": "Composition/e25b73d7-4c26-4af0-95e7-d878d56ba149"
          },
          {
            "reference": "PractitionerRole/11c7e7b0-5e1a-4bd3-945a-7498acbfb1aa"
          },
          {
            "reference": "Practitioner/7f8b8d99-9186-4b81-a728-a120c6baae1f"
          },
          {
            "reference": "PractitionerRole/eeea9bbc-cb8e-4838-88b2-7566a7553ebc"
          },
          {
            "reference": "Organization/5f723df8-f5c0-44f1-b5d0-846eae062757"
          }
        ],
        "activity": {
          "text": "Synthetic Example Data Generation"
        },
        "policy": [
          "https://synderai.net/synderai-synthetic-data-policy"
        ],
        "agent": [
          {
            "type": {
              "text": "author"
            },
            "who": {
              "reference": "Device/0ba1f280-d0f8-4a4f-9d9a-5111e217610d"
            }
          }
        ],
        "reason": [
          {
            "text": "Interoperability Testing and Training (non-clinical use)"
          }
        ],
        "text": {
          "status": "generated",
          "div": "<div xmlns=\"http://www.w3.org/1999/xhtml\">Provenance for SYNDERAI Synthetic Example Data Resource</div>"
        },
        "recorded": "2020-06-17T08:16:00Z"
      }
    },
    {
      "fullUrl": "urn:uuid:11c7e7b0-5e1a-4bd3-945a-7498acbfb1aa",
      "resource": {
        "resourceType": "PractitionerRole",
        "id": "11c7e7b0-5e1a-4bd3-945a-7498acbfb1aa",
        "meta": {
          "profile": [
            "http://hl7.eu/fhir/base/StructureDefinition/practitionerRole-eu"
          ]
        },
        "text": {
          "status": "generated",
          "div": "<div xmlns=\"http://www.w3.org/1999/xhtml\">Laboratory Role Id: 11c7e7b0-5e1a-4bd3-945a-7498acbfb1aa</div>"
        },
        "practitioner": {
          "reference": "urn:uuid:7f8b8d99-9186-4b81-a728-a120c6baae1f"
        }
      }
    },
    {
      "fullUrl": "urn:uuid:7f8b8d99-9186-4b81-a728-a120c6baae1f",
      "resource": {
        "resourceType": "Practitioner",
        "id": "7f8b8d99-9186-4b81-a728-a120c6baae1f",
        "meta": {
          "profile": [
            "http://hl7.eu/fhir/base/StructureDefinition/practitioner-eu"
          ]
        },
        "identifier": [
          {
            "assigner": {
              "display": "HL7 Europe"
            },
            "system": "urn:oid:2.16.840.1.113883.2.51.999",
            "value": "ff87bb13-108e-4153-abae-deb83405483a"
          }
        ],
        "name": [
          {
            "prefix": [
              "dr"
            ],
            "given": [
              "Ex"
            ],
            "family": "Ample"
          }
        ],
        "address": [
          {
            "line": [
              "Laboratoire Central Européenne",
              "Boulevard du Jardin Botanique 32"
            ],
            "postalCode": "1000",
            "city": "Brussels",
            "country": "Belgium"
          }
        ],
        "text": {
          "status": "generated",
          "div": "<div xmlns=\"http://www.w3.org/1999/xhtml\">Laboratory: Laboratoire Central Européenne, 1000 Brussels, Belgium</div>"
        }
      }
    }
  ],
  "type": "document",
  "timestamp": "2020-06-17T08:16:00Z"
}
