{
  "resourceType": "Bundle",
  "id": "ffb4c536-4e89-4e14-bc62-7b349b067eac",
  "meta": {
    "profile": [
      "http://hl7.eu/fhir/laboratory/StructureDefinition/Bundle-eu-lab"
    ]
  },
  "identifier": {
    "assigner": {
      "display": "HL7 Europe"
    },
    "system": "urn:oid:2.16.840.1.113883.2.51.999",
    "value": "d6a0a1ab-2892-4c7b-96d8-9419624f0418"
  },
  "entry": [
    {
      "fullUrl": "urn:uuid:d32e2267-7db0-4831-a840-7f3f404d089c",
      "resource": {
        "resourceType": "Composition",
        "id": "d32e2267-7db0-4831-a840-7f3f404d089c",
        "meta": {
          "profile": [
            "http://hl7.eu/fhir/laboratory/StructureDefinition/Composition-eu-lab"
          ]
        },
        "identifier": {
          "assigner": {
            "display": "HL7 Europe"
          },
          "system": "urn:oid:2.16.840.1.113883.2.51.999",
          "value": "3938421b-2acc-4699-ac3a-63464d9cce1d"
        },
        "author": [
          {
            "reference": "urn:uuid:04babd1e-b0ab-47c6-b84a-af787e273a6c"
          }
        ],
        "category": [
          {
            "coding": [
              {
                "code": "26436-6",
                "system": "http://loinc.org",
                "display": "Laboratory studies (set)"
              }
            ]
          }
        ],
        "type": {
          "coding": [
            {
              "code": "11502-2",
              "system": "http://loinc.org",
              "display": "Laboratory report"
            }
          ],
          "text": "Laboratory Report"
        },
        "section": [
          {
            "code": {
              "coding": [
                {
                  "code": "26436-6",
                  "system": "http://loinc.org",
                  "display": "Laboratory studies (set)"
                }
              ],
              "text": "Laboratory studies"
            },
            "section": [
              {
                "code": {
                  "coding": [
                    {
                      "code": "$18723-7",
                      "system": "http://loinc.org",
                      "display": "Hematology studies (set)"
                    }
                  ],
                  "text": "Hematology"
                },
                "entry": [
                  {
                    "reference": "urn:uuid:ad953e73-33e7-4327-8449-c6eeeb1b4ef7"
                  },
                  {
                    "reference": "urn:uuid:63c1a67a-634b-4b6b-87f8-1ade3ac9fbdf"
                  },
                  {
                    "reference": "urn:uuid:b2eada17-7a49-4596-9436-04c89266541f"
                  },
                  {
                    "reference": "urn:uuid:467f6bc4-5d1a-4ad7-8693-43e10daf3a1e"
                  },
                  {
                    "reference": "urn:uuid:951d8e98-493f-4630-aa10-44fcba1b4c56"
                  },
                  {
                    "reference": "urn:uuid:3b6351d5-1e9b-426f-b79f-f21152998426"
                  },
                  {
                    "reference": "urn:uuid:16fd4cfe-5373-4da3-90cc-c8cf138d9f98"
                  },
                  {
                    "reference": "urn:uuid:9022075f-818d-4fe9-9fe0-be3c2c6e80cd"
                  },
                  {
                    "reference": "urn:uuid:a97d9fd2-5e2f-4d03-b346-fbd99115fed8"
                  },
                  {
                    "reference": "urn:uuid:f9da2b05-a5af-49d1-8952-e9c46843ba67"
                  },
                  {
                    "reference": "urn:uuid:45200f9a-0fe0-4143-ae1d-195c0e8071d1"
                  }
                ],
                "text": {
                  "status": "generated",
                  "div": "<div xmlns=\"http://www.w3.org/1999/xhtml\"><h3>Hematology</h3><table class=\"hl7__eu__lab__report\"><thead><tr><th>Test</th><th>14-APR-2024</th><th>Reference&#xA0;Range</th><th>Unit</th></tr></thead><tbody><tr><td>Leukocytes [#/volume] in Blood by Automated count</td><td>5.9</td><td>3.4 - 10.6</td><td>10*3/uL</td></tr><tr><td>Erythrocytes [#/volume] in Blood by Automated count</td><td><strong>4.0 L</strong></td><td>4.2 - 6.2</td><td>10*6/uL</td></tr><tr><td>Hemoglobin [Mass/volume] in Blood</td><td><strong>13.0 L</strong></td><td>13.5 - 17.5</td><td>g/dL</td></tr><tr><td>Hematocrit [Volume Fraction] of Blood by Automated count</td><td>49.4</td><td>38 - 50</td><td>%</td></tr><tr><td>MCV [Entitic volume] by Automated count</td><td>94.7</td><td>80 - 99</td><td>fL</td></tr><tr><td>MCH [Entitic mass] by Automated count</td><td>30.3</td><td>27 - 34</td><td>pg</td></tr><tr><td>MCHC [Mass/volume] by Automated count</td><td>34.1</td><td>31 - 37</td><td>g/dL</td></tr><tr><td>Erythrocyte distribution width [Entitic volume] by Automated count</td><td>41.1</td><td>39 - 55</td><td>fL</td></tr><tr><td>Platelets [#/volume] in Blood by Automated count</td><td>314.1</td><td>150 - 450</td><td>10*3/uL</td></tr><tr><td>Platelet distribution width [Entitic volume] in Blood by Automated count</td><td><strong>491.3 H</strong></td><td>150 - 450</td><td>fL</td></tr><tr><td>Platelet mean volume [Entitic volume] in Blood by Automated count</td><td>10.7</td><td>9.6 - 13.8</td><td>fL</td></tr></tbody></table></div>"
                },
                "title": "Hematology"
              },
              {
                "code": {
                  "coding": [
                    {
                      "code": "$18719-5",
                      "system": "http://loinc.org",
                      "display": "Chemistry studies (set)"
                    }
                  ],
                  "text": "Chemistry"
                },
                "entry": [
                  {
                    "reference": "urn:uuid:6d2cc20a-2ec4-432d-92f4-596a76b54483"
                  },
                  {
                    "reference": "urn:uuid:edce73ff-7795-4c43-8060-5e78fda7bb3f"
                  },
                  {
                    "reference": "urn:uuid:ce347473-1603-420e-98ec-94a3f235ac78"
                  },
                  {
                    "reference": "urn:uuid:c6913fc3-d074-4953-958e-9c73441d27e3"
                  },
                  {
                    "reference": "urn:uuid:3c039fa1-e763-47b4-b7f0-5c7526f7e999"
                  },
                  {
                    "reference": "urn:uuid:17fbd740-ce71-43fe-ae83-4553891ce7c2"
                  },
                  {
                    "reference": "urn:uuid:5f6df982-a254-47f6-898f-e0595acd24ff"
                  },
                  {
                    "reference": "urn:uuid:1729c87a-5312-4731-b453-8d168e6f47cc"
                  },
                  {
                    "reference": "urn:uuid:0f60c7b4-f89c-48c8-92ba-c16e89f86a42"
                  }
                ],
                "text": {
                  "status": "generated",
                  "div": "<div xmlns=\"http://www.w3.org/1999/xhtml\"><h3>Chemistry</h3><table class=\"hl7__eu__lab__report\"><thead><tr><th>Test</th><th>14-APR-2024</th><th>Reference&#xA0;Range</th><th>Unit</th></tr></thead><tbody><tr><td>Hemoglobin A1c/Hemoglobin.total in Blood</td><td><strong>6.4 H</strong></td><td>4 - 6</td><td>%</td></tr><tr><td>Glucose [Mass/volume] in Blood</td><td>84.5</td><td>70 - 99</td><td>mg/dL</td></tr><tr><td>Urea nitrogen [Mass/volume] in Blood</td><td>11.8</td><td>7 - 20</td><td>mg/dL</td></tr><tr><td>Creatinine [Mass/volume] in Blood</td><td><strong>1.4 H</strong></td><td>0.6 - 1.3</td><td>mg/dL</td></tr><tr><td>Calcium [Mass/volume] in Blood</td><td>9.8</td><td>8.5 - 10.5</td><td>mg/dL</td></tr><tr><td>Sodium [Moles/volume] in Blood</td><td>143.7</td><td>135 - 145</td><td>mmol/L</td></tr><tr><td>Potassium [Moles/volume] in Blood</td><td>3.8</td><td>3.5 - 5.2</td><td>mmol/L</td></tr><tr><td>Chloride [Moles/volume] in Blood</td><td>103.3</td><td>98 - 114</td><td>mmol/L</td></tr><tr><td>Carbon dioxide, total [Moles/volume] in Blood</td><td><strong>23.5 L</strong></td><td>24 - 29</td><td>mmol/L</td></tr></tbody></table></div>"
                },
                "title": "Chemistry"
              }
            ],
            "title": "Laboratory Report"
          },
          {
            "text": {
              "status": "generated",
              "div": "<div xmlns=\"http://www.w3.org/1999/xhtml\"><h3>Annotation</h3><table class=\"hl7__eu__lab__report\"><tr><th>Conclusion and Recommendations based on this report and previous findings known to us</th></tr><tr><td>The patient shows mildly elevated HbA1c, suggesting impaired glucose tolerance or early diabetes, and a slightly increased creatinine, which may indicate reduced renal function. Mild anemia is present (low erythrocytes and hemoglobin), and total CO₂ is slightly low, possibly reflecting mild metabolic acidosis. Platelet distribution width is elevated, which may indicate increased platelet size variability. Further clinical correlation and follow-up are recommended.</td></tr></table></div>"
            },
            "code": {
              "coding": [
                {
                  "system": "http://loinc.org",
                  "code": "48767-8",
                  "display": "Annotation comment"
                }
              ]
            },
            "title": "Annotation comment"
          }
        ],
        "status": "final",
        "subject": {
          "reference": "urn:uuid:2cd6b0f9-3c5e-48a3-b115-8158282c2997",
          "display": "Benedetto Lombroso"
        },
        "date": "2024-04-14T09:22:02Z",
        "title": "Laboratory Report",
        "confidentiality": "N"
      }
    },
    {
      "fullUrl": "urn:uuid:ef02cb79-c54e-4130-aa6a-c78d580dd8cf",
      "resource": {
        "resourceType": "DiagnosticReport",
        "id": "ef02cb79-c54e-4130-aa6a-c78d580dd8cf",
        "meta": {
          "profile": [
            "http://hl7.eu/fhir/laboratory/StructureDefinition/DiagnosticReport-eu-lab"
          ]
        },
        "identifier": [
          {
            "assigner": {
              "display": "HL7 Europe"
            },
            "system": "urn:oid:2.16.840.1.113883.2.51.999",
            "value": "d9e28067-07c9-4d1c-b2db-ef109e8b4ec2"
          }
        ],
        "extension": [
          {
            "url": "http://hl7.org/fhir/5.0/StructureDefinition/extension-DiagnosticReport.composition",
            "valueReference": {
              "reference": "urn:uuid:3938421b-2acc-4699-ac3a-63464d9cce1d"
            }
          }
        ],
        "category": [
          {
            "coding": [
              {
                "code": "26436-6",
                "system": "http://loinc.org",
                "display": "Laboratory studies (set)"
              }
            ]
          }
        ],
        "specimen": [
          {
            "reference": "urn:uuid:66b884d0-f6f5-492b-89f0-8797b034f088"
          },
          {
            "reference": "urn:uuid:66b884d0-f6f5-492b-89f0-8797b034f088"
          }
        ],
        "result": [
          {
            "reference": "urn:uuid:6d2cc20a-2ec4-432d-92f4-596a76b54483"
          },
          {
            "reference": "urn:uuid:edce73ff-7795-4c43-8060-5e78fda7bb3f"
          },
          {
            "reference": "urn:uuid:ce347473-1603-420e-98ec-94a3f235ac78"
          },
          {
            "reference": "urn:uuid:c6913fc3-d074-4953-958e-9c73441d27e3"
          },
          {
            "reference": "urn:uuid:3c039fa1-e763-47b4-b7f0-5c7526f7e999"
          },
          {
            "reference": "urn:uuid:17fbd740-ce71-43fe-ae83-4553891ce7c2"
          },
          {
            "reference": "urn:uuid:5f6df982-a254-47f6-898f-e0595acd24ff"
          },
          {
            "reference": "urn:uuid:1729c87a-5312-4731-b453-8d168e6f47cc"
          },
          {
            "reference": "urn:uuid:0f60c7b4-f89c-48c8-92ba-c16e89f86a42"
          },
          {
            "reference": "urn:uuid:ad953e73-33e7-4327-8449-c6eeeb1b4ef7"
          },
          {
            "reference": "urn:uuid:63c1a67a-634b-4b6b-87f8-1ade3ac9fbdf"
          },
          {
            "reference": "urn:uuid:b2eada17-7a49-4596-9436-04c89266541f"
          },
          {
            "reference": "urn:uuid:467f6bc4-5d1a-4ad7-8693-43e10daf3a1e"
          },
          {
            "reference": "urn:uuid:951d8e98-493f-4630-aa10-44fcba1b4c56"
          },
          {
            "reference": "urn:uuid:3b6351d5-1e9b-426f-b79f-f21152998426"
          },
          {
            "reference": "urn:uuid:16fd4cfe-5373-4da3-90cc-c8cf138d9f98"
          },
          {
            "reference": "urn:uuid:9022075f-818d-4fe9-9fe0-be3c2c6e80cd"
          },
          {
            "reference": "urn:uuid:a97d9fd2-5e2f-4d03-b346-fbd99115fed8"
          },
          {
            "reference": "urn:uuid:f9da2b05-a5af-49d1-8952-e9c46843ba67"
          },
          {
            "reference": "urn:uuid:45200f9a-0fe0-4143-ae1d-195c0e8071d1"
          }
        ],
        "status": "registered",
        "code": {
          "coding": [
            {
              "code": "11502-2",
              "system": "http://loinc.org",
              "display": "Laboratory report"
            }
          ]
        },
        "subject": {
          "reference": "urn:uuid:2cd6b0f9-3c5e-48a3-b115-8158282c2997",
          "display": "Benedetto Lombroso"
        }
      }
    },
    {
      "fullUrl": "urn:uuid:2cd6b0f9-3c5e-48a3-b115-8158282c2997",
      "resource": {
        "resourceType": "Patient",
        "id": "2cd6b0f9-3c5e-48a3-b115-8158282c2997",
        "meta": {
          "security": [
            {
              "system": "http://terminology.hl7.org/CodeSystem/v3-ActReason",
              "code": "HTEST"
            },
            {
              "system": "http://terminology.hl7.org/CodeSystem/v3-ActReason",
              "code": "TRAIN"
            }
          ],
          "tag": [
            {
              "system": "https://synderai.net/fhir/CodeSystem/tags",
              "code": "synthetic",
              "display": "SYNDERAI Synthetic data"
            }
          ],
          "profile": [
            "http://hl7.eu/fhir/base/StructureDefinition/patient-eu-core"
          ]
        },
        "identifier": [
          {
            "type": {
              "coding": [
                {
                  "code": "PT",
                  "system": "http://terminology.hl7.org/CodeSystem/v2-0203"
                }
              ]
            },
            "system": "http://ec.europa.eu/identifier/eci",
            "value": "9244-804304-9"
          },
          {
            "type": {
              "coding": [
                {
                  "code": "MR",
                  "system": "http://terminology.hl7.org/CodeSystem/v2-0203"
                }
              ]
            },
            "system": "http://local.setting.eu/identifier",
            "value": "320c36e6-403e-bb27-4756-8ebdd21bc0e5"
          }
        ],
        "name": [
          {
            "family": "Lombroso"
          },
          {
            "given": [
              "Benedetto"
            ]
          },
          {
            "text": "Benedetto Lombroso"
          }
        ],
        "address": [
          {
            "line": [
              "Stretto Zaccagnini, 924"
            ],
            "use": "home",
            "type": "physical",
            "postalCode": "37121",
            "city": "Verona",
            "country": "Italy"
          }
        ],
        "telecom": [
          {
            "system": "phone",
            "value": "+39 016691228"
          }
        ],
        "extension": [
          {
            "url": "http://hl7.org/fhir/StructureDefinition/patient-nationality",
            "valueCodeableConcept": {
              "coding": [
                {
                  "code": "IT",
                  "system": "http://hl7.org/fhir/ValueSet/country"
                }
              ]
            }
          }
        ],
        "text": {
          "status": "generated",
          "div": "<div xmlns=\"http://www.w3.org/1999/xhtml\"><table class=\"hl7__ips\"><tr><td>Benedetto Lombroso</td><td>male</td><td>07-May-1989</td></tr></table></div>"
        },
        "gender": "male",
        "birthDate": "1989-05-07"
      }
    },
    {
      "fullUrl": "urn:uuid:3ff7e816-cf30-46a2-8f53-87a3d386c7b6",
      "resource": {
        "resourceType": "ServiceRequest",
        "id": "3ff7e816-cf30-46a2-8f53-87a3d386c7b6",
        "meta": {
          "profile": [
            "http://hl7.eu/fhir/laboratory/StructureDefinition/ServiceRequest-eu-lab"
          ]
        },
        "identifier": [
          {
            "system": "http://example.org",
            "value": "39d2268c-7fd7-435b-895f-8777ada12cfe"
          }
        ],
        "specimen": [
          {
            "reference": "urn:uuid:66b884d0-f6f5-492b-89f0-8797b034f088"
          }
        ],
        "reasonCode": [
          {
            "coding": [
              {
                "code": "15777000",
                "system": "http://snomed.info/sct",
                "display": "Prediabetes"
              }
            ]
          },
          {
            "coding": [
              {
                "code": "271737000",
                "system": "http://snomed.info/sct",
                "display": "Anemia"
              }
            ]
          }
        ],
        "status": "active",
        "intent": "order",
        "code": {
          "coding": [
            {
              "code": "108252007",
              "system": "http://snomed.info/sct",
              "display": "Laboratory procedure"
            }
          ]
        },
        "subject": {
          "reference": "urn:uuid:2cd6b0f9-3c5e-48a3-b115-8158282c2997",
          "display": "Benedetto Lombroso"
        },
        "requester": {
          "reference": "urn:uuid:aaffc345-0af4-41a4-99f2-3c08994525c6"
        }
      }
    },
    {
      "fullUrl": "urn:uuid:aaffc345-0af4-41a4-99f2-3c08994525c6",
      "resource": {
        "resourceType": "PractitionerRole",
        "id": "aaffc345-0af4-41a4-99f2-3c08994525c6",
        "meta": {
          "profile": [
            "http://hl7.eu/fhir/base/StructureDefinition/practitionerRole-eu"
          ]
        },
        "text": {
          "status": "generated",
          "div": "<div xmlns=\"http://www.w3.org/1999/xhtml\">Provider Role Id: aaffc345-0af4-41a4-99f2-3c08994525c6</div>"
        },
        "organization": {
          "reference": "urn:uuid:8e079344-0d1e-4dd8-8dae-bc1eb68e2274"
        }
      }
    },
    {
      "fullUrl": "urn:uuid:8e079344-0d1e-4dd8-8dae-bc1eb68e2274",
      "resource": {
        "resourceType": "Organization",
        "id": "8e079344-0d1e-4dd8-8dae-bc1eb68e2274",
        "meta": {
          "profile": [
            "http://hl7.eu/fhir/base/StructureDefinition/organization-eu"
          ]
        },
        "identifier": [
          {
            "assigner": {
              "display": "HL7 Europe"
            },
            "system": "urn:oid:2.16.840.1.113883.2.51.999",
            "value": "e8b725e1-87ca-4e36-ba55-eb3e523d9ed3"
          }
        ],
        "address": [
          {
            "line": [
              "Piazzale Aristide Stefani 1"
            ],
            "city": "Verona",
            "postalCode": "37124",
            "country": "Italy"
          }
        ],
        "text": {
          "status": "generated",
          "div": "<div xmlns=\"http://www.w3.org/1999/xhtml\">Provider Organization: Ospedale Civile Maggiore</div>"
        },
        "name": "Ospedale Civile Maggiore"
      }
    },
    {
      "fullUrl": "urn:uuid:66b884d0-f6f5-492b-89f0-8797b034f088",
      "resource": {
        "resourceType": "Specimen",
        "id": "66b884d0-f6f5-492b-89f0-8797b034f088",
        "meta": {
          "profile": [
            "http://hl7.eu/fhir/laboratory/StructureDefinition/Specimen-eu-lab"
          ]
        },
        "collection": {
          "collectedDateTime": "2024-04-14"
        },
        "text": {
          "status": "generated",
          "div": "<div xmlns=\"http://www.w3.org/1999/xhtml\"><table class=\"hl7__eu__lab__report\"><tr><th>Specimen</th><th>Collection Date</th></tr><tr><td>Whole blood specimen (specimen)</td><td><span class=\"nb\">14-Apr-2024</span></td></tr></table></div>"
        },
        "type": {
          "coding": [
            {
              "code": "258580003",
              "system": "http://snomed.info/sct",
              "display": "Whole blood specimen (specimen)"
            }
          ]
        }
      }
    },
    {
      "fullUrl": "urn:uuid:66b884d0-f6f5-492b-89f0-8797b034f088",
      "resource": {
        "resourceType": "Specimen",
        "id": "66b884d0-f6f5-492b-89f0-8797b034f088",
        "meta": {
          "profile": [
            "http://hl7.eu/fhir/laboratory/StructureDefinition/Specimen-eu-lab"
          ]
        },
        "collection": {
          "collectedDateTime": "2024-04-14"
        },
        "text": {
          "status": "generated",
          "div": "<div xmlns=\"http://www.w3.org/1999/xhtml\"><table class=\"hl7__eu__lab__report\"><tr><th>Specimen</th><th>Collection Date</th></tr><tr><td>Whole blood specimen (specimen)</td><td><span class=\"nb\">14-Apr-2024</span></td></tr></table></div>"
        },
        "type": {
          "coding": [
            {
              "code": "258580003",
              "system": "http://snomed.info/sct",
              "display": "Whole blood specimen (specimen)"
            }
          ]
        }
      }
    },
    {
      "fullUrl": "urn:uuid:6d2cc20a-2ec4-432d-92f4-596a76b54483",
      "resource": {
        "resourceType": "Observation",
        "id": "6d2cc20a-2ec4-432d-92f4-596a76b54483",
        "meta": {
          "profile": [
            "http://hl7.eu/fhir/laboratory/StructureDefinition/Observation-resultslab-eu-lab"
          ]
        },
        "performer": [
          {
            "display": "The Central European Lab"
          }
        ],
        "category": [
          {
            "coding": [
              {
                "system": "http://terminology.hl7.org/CodeSystem/observation-category",
                "code": "laboratory"
              }
            ]
          }
        ],
        "code": {
          "coding": [
            {
              "code": "4548-4",
              "system": "http://loinc.org",
              "display": "Hemoglobin A1c/Hemoglobin.total in Blood"
            }
          ],
          "text": "Hemoglobin A1c/Hemoglobin.total in Blood"
        },
        "valueQuantity": {
          "system": "http://unitsofmeasure.org",
          "value": 6.4,
          "unit": "%",
          "code": "%"
        },
        "referenceRange": [
          {
            "low": {
              "value": 4,
              "code": "%",
              "system": "http://unitsofmeasure.org"
            }
          },
          {
            "high": {
              "value": 6,
              "code": "%",
              "system": "http://unitsofmeasure.org"
            }
          }
        ],
        "interpretation": [
          {
            "coding": [
              {
                "code": "H",
                "system": "http://terminology.hl7.org/CodeSystem/v3-ObservationInterpretation",
                "display": "High"
              }
            ]
          }
        ],
        "text": {
          "status": "generated",
          "div": "<div xmlns=\"http://www.w3.org/1999/xhtml\"><table class=\"hl7__eu__lab__report\"><tr><th>Test</th><th>14-Apr-2024</th><th>Reference&#xA0;Range</th><th>Unit</th></tr><tr><td>Hemoglobin A1c/Hemoglobin.total in Blood</td><td>6.4</td><td>4 - 6</td><td>H</td><td>%</td></tr></table></div>"
        },
        "status": "final",
        "subject": {
          "reference": "urn:uuid:2cd6b0f9-3c5e-48a3-b115-8158282c2997",
          "display": "Benedetto Lombroso"
        },
        "effectiveDateTime": "2024-04-14T07:22:02Z",
        "specimen": {
          "reference": "urn:uuid:66b884d0-f6f5-492b-89f0-8797b034f088"
        }
      }
    },
    {
      "fullUrl": "urn:uuid:edce73ff-7795-4c43-8060-5e78fda7bb3f",
      "resource": {
        "resourceType": "Observation",
        "id": "edce73ff-7795-4c43-8060-5e78fda7bb3f",
        "meta": {
          "profile": [
            "http://hl7.eu/fhir/laboratory/StructureDefinition/Observation-resultslab-eu-lab"
          ]
        },
        "performer": [
          {
            "display": "The Central European Lab"
          }
        ],
        "category": [
          {
            "coding": [
              {
                "system": "http://terminology.hl7.org/CodeSystem/observation-category",
                "code": "laboratory"
              }
            ]
          }
        ],
        "code": {
          "coding": [
            {
              "code": "2339-0",
              "system": "http://loinc.org",
              "display": "Glucose [Mass/volume] in Blood"
            }
          ],
          "text": "Glucose [Mass/volume] in Blood"
        },
        "valueQuantity": {
          "system": "http://unitsofmeasure.org",
          "value": 84.5,
          "unit": "mg/dL",
          "code": "mg/dL"
        },
        "referenceRange": [
          {
            "low": {
              "value": 70,
              "code": "mg/dL",
              "system": "http://unitsofmeasure.org"
            }
          },
          {
            "high": {
              "value": 99,
              "code": "mg/dL",
              "system": "http://unitsofmeasure.org"
            }
          }
        ],
        "text": {
          "status": "generated",
          "div": "<div xmlns=\"http://www.w3.org/1999/xhtml\"><table class=\"hl7__eu__lab__report\"><tr><th>Test</th><th>14-Apr-2024</th><th>Reference&#xA0;Range</th><th>Unit</th></tr><tr><td>Glucose [Mass/volume] in Blood</td><td>84.5</td><td>70 - 99</td><td></td><td>mg/dL</td></tr></table></div>"
        },
        "status": "final",
        "subject": {
          "reference": "urn:uuid:2cd6b0f9-3c5e-48a3-b115-8158282c2997",
          "display": "Benedetto Lombroso"
        },
        "effectiveDateTime": "2024-04-14T07:22:02Z",
        "specimen": {
          "reference": "urn:uuid:66b884d0-f6f5-492b-89f0-8797b034f088"
        }
      }
    },
    {
      "fullUrl": "urn:uuid:ce347473-1603-420e-98ec-94a3f235ac78",
      "resource": {
        "resourceType": "Observation",
        "id": "ce347473-1603-420e-98ec-94a3f235ac78",
        "meta": {
          "profile": [
            "http://hl7.eu/fhir/laboratory/StructureDefinition/Observation-resultslab-eu-lab"
          ]
        },
        "performer": [
          {
            "display": "The Central European Lab"
          }
        ],
        "category": [
          {
            "coding": [
              {
                "system": "http://terminology.hl7.org/CodeSystem/observation-category",
                "code": "laboratory"
              }
            ]
          }
        ],
        "code": {
          "coding": [
            {
              "code": "6299-2",
              "system": "http://loinc.org",
              "display": "Urea nitrogen [Mass/volume] in Blood"
            }
          ],
          "text": "Urea nitrogen [Mass/volume] in Blood"
        },
        "valueQuantity": {
          "system": "http://unitsofmeasure.org",
          "value": 11.8,
          "unit": "mg/dL",
          "code": "mg/dL"
        },
        "referenceRange": [
          {
            "low": {
              "value": 7,
              "code": "mg/dL",
              "system": "http://unitsofmeasure.org"
            }
          },
          {
            "high": {
              "value": 20,
              "code": "mg/dL",
              "system": "http://unitsofmeasure.org"
            }
          }
        ],
        "text": {
          "status": "generated",
          "div": "<div xmlns=\"http://www.w3.org/1999/xhtml\"><table class=\"hl7__eu__lab__report\"><tr><th>Test</th><th>14-Apr-2024</th><th>Reference&#xA0;Range</th><th>Unit</th></tr><tr><td>Urea nitrogen [Mass/volume] in Blood</td><td>11.8</td><td>7 - 20</td><td></td><td>mg/dL</td></tr></table></div>"
        },
        "status": "final",
        "subject": {
          "reference": "urn:uuid:2cd6b0f9-3c5e-48a3-b115-8158282c2997",
          "display": "Benedetto Lombroso"
        },
        "effectiveDateTime": "2024-04-14T07:22:02Z",
        "specimen": {
          "reference": "urn:uuid:66b884d0-f6f5-492b-89f0-8797b034f088"
        }
      }
    },
    {
      "fullUrl": "urn:uuid:c6913fc3-d074-4953-958e-9c73441d27e3",
      "resource": {
        "resourceType": "Observation",
        "id": "c6913fc3-d074-4953-958e-9c73441d27e3",
        "meta": {
          "profile": [
            "http://hl7.eu/fhir/laboratory/StructureDefinition/Observation-resultslab-eu-lab"
          ]
        },
        "performer": [
          {
            "display": "The Central European Lab"
          }
        ],
        "category": [
          {
            "coding": [
              {
                "system": "http://terminology.hl7.org/CodeSystem/observation-category",
                "code": "laboratory"
              }
            ]
          }
        ],
        "code": {
          "coding": [
            {
              "code": "38483-4",
              "system": "http://loinc.org",
              "display": "Creatinine [Mass/volume] in Blood"
            }
          ],
          "text": "Creatinine [Mass/volume] in Blood"
        },
        "valueQuantity": {
          "system": "http://unitsofmeasure.org",
          "value": 1.4,
          "unit": "mg/dL",
          "code": "mg/dL"
        },
        "referenceRange": [
          {
            "low": {
              "value": 0.6,
              "code": "mg/dL",
              "system": "http://unitsofmeasure.org"
            }
          },
          {
            "high": {
              "value": 1.3,
              "code": "mg/dL",
              "system": "http://unitsofmeasure.org"
            }
          }
        ],
        "interpretation": [
          {
            "coding": [
              {
                "code": "H",
                "system": "http://terminology.hl7.org/CodeSystem/v3-ObservationInterpretation",
                "display": "High"
              }
            ]
          }
        ],
        "text": {
          "status": "generated",
          "div": "<div xmlns=\"http://www.w3.org/1999/xhtml\"><table class=\"hl7__eu__lab__report\"><tr><th>Test</th><th>14-Apr-2024</th><th>Reference&#xA0;Range</th><th>Unit</th></tr><tr><td>Creatinine [Mass/volume] in Blood</td><td>1.4</td><td>0.6 - 1.3</td><td>H</td><td>mg/dL</td></tr></table></div>"
        },
        "status": "final",
        "subject": {
          "reference": "urn:uuid:2cd6b0f9-3c5e-48a3-b115-8158282c2997",
          "display": "Benedetto Lombroso"
        },
        "effectiveDateTime": "2024-04-14T07:22:02Z",
        "specimen": {
          "reference": "urn:uuid:66b884d0-f6f5-492b-89f0-8797b034f088"
        }
      }
    },
    {
      "fullUrl": "urn:uuid:3c039fa1-e763-47b4-b7f0-5c7526f7e999",
      "resource": {
        "resourceType": "Observation",
        "id": "3c039fa1-e763-47b4-b7f0-5c7526f7e999",
        "meta": {
          "profile": [
            "http://hl7.eu/fhir/laboratory/StructureDefinition/Observation-resultslab-eu-lab"
          ]
        },
        "performer": [
          {
            "display": "The Central European Lab"
          }
        ],
        "category": [
          {
            "coding": [
              {
                "system": "http://terminology.hl7.org/CodeSystem/observation-category",
                "code": "laboratory"
              }
            ]
          }
        ],
        "code": {
          "coding": [
            {
              "code": "49765-1",
              "system": "http://loinc.org",
              "display": "Calcium [Mass/volume] in Blood"
            }
          ],
          "text": "Calcium [Mass/volume] in Blood"
        },
        "valueQuantity": {
          "system": "http://unitsofmeasure.org",
          "value": 9.8,
          "unit": "mg/dL",
          "code": "mg/dL"
        },
        "referenceRange": [
          {
            "low": {
              "value": 8.5,
              "code": "mg/dL",
              "system": "http://unitsofmeasure.org"
            }
          },
          {
            "high": {
              "value": 10.5,
              "code": "mg/dL",
              "system": "http://unitsofmeasure.org"
            }
          }
        ],
        "text": {
          "status": "generated",
          "div": "<div xmlns=\"http://www.w3.org/1999/xhtml\"><table class=\"hl7__eu__lab__report\"><tr><th>Test</th><th>14-Apr-2024</th><th>Reference&#xA0;Range</th><th>Unit</th></tr><tr><td>Calcium [Mass/volume] in Blood</td><td>9.8</td><td>8.5 - 10.5</td><td></td><td>mg/dL</td></tr></table></div>"
        },
        "status": "final",
        "subject": {
          "reference": "urn:uuid:2cd6b0f9-3c5e-48a3-b115-8158282c2997",
          "display": "Benedetto Lombroso"
        },
        "effectiveDateTime": "2024-04-14T07:22:02Z",
        "specimen": {
          "reference": "urn:uuid:66b884d0-f6f5-492b-89f0-8797b034f088"
        }
      }
    },
    {
      "fullUrl": "urn:uuid:17fbd740-ce71-43fe-ae83-4553891ce7c2",
      "resource": {
        "resourceType": "Observation",
        "id": "17fbd740-ce71-43fe-ae83-4553891ce7c2",
        "meta": {
          "profile": [
            "http://hl7.eu/fhir/laboratory/StructureDefinition/Observation-resultslab-eu-lab"
          ]
        },
        "performer": [
          {
            "display": "The Central European Lab"
          }
        ],
        "category": [
          {
            "coding": [
              {
                "system": "http://terminology.hl7.org/CodeSystem/observation-category",
                "code": "laboratory"
              }
            ]
          }
        ],
        "code": {
          "coding": [
            {
              "code": "2947-0",
              "system": "http://loinc.org",
              "display": "Sodium [Moles/volume] in Blood"
            }
          ],
          "text": "Sodium [Moles/volume] in Blood"
        },
        "valueQuantity": {
          "system": "http://unitsofmeasure.org",
          "value": 143.7,
          "unit": "mmol/L",
          "code": "mmol/L"
        },
        "referenceRange": [
          {
            "low": {
              "value": 135,
              "code": "mmol/L",
              "system": "http://unitsofmeasure.org"
            }
          },
          {
            "high": {
              "value": 145,
              "code": "mmol/L",
              "system": "http://unitsofmeasure.org"
            }
          }
        ],
        "text": {
          "status": "generated",
          "div": "<div xmlns=\"http://www.w3.org/1999/xhtml\"><table class=\"hl7__eu__lab__report\"><tr><th>Test</th><th>14-Apr-2024</th><th>Reference&#xA0;Range</th><th>Unit</th></tr><tr><td>Sodium [Moles/volume] in Blood</td><td>143.7</td><td>135 - 145</td><td></td><td>mmol/L</td></tr></table></div>"
        },
        "status": "final",
        "subject": {
          "reference": "urn:uuid:2cd6b0f9-3c5e-48a3-b115-8158282c2997",
          "display": "Benedetto Lombroso"
        },
        "effectiveDateTime": "2024-04-14T07:22:02Z",
        "specimen": {
          "reference": "urn:uuid:66b884d0-f6f5-492b-89f0-8797b034f088"
        }
      }
    },
    {
      "fullUrl": "urn:uuid:5f6df982-a254-47f6-898f-e0595acd24ff",
      "resource": {
        "resourceType": "Observation",
        "id": "5f6df982-a254-47f6-898f-e0595acd24ff",
        "meta": {
          "profile": [
            "http://hl7.eu/fhir/laboratory/StructureDefinition/Observation-resultslab-eu-lab"
          ]
        },
        "performer": [
          {
            "display": "The Central European Lab"
          }
        ],
        "category": [
          {
            "coding": [
              {
                "system": "http://terminology.hl7.org/CodeSystem/observation-category",
                "code": "laboratory"
              }
            ]
          }
        ],
        "code": {
          "coding": [
            {
              "code": "6298-4",
              "system": "http://loinc.org",
              "display": "Potassium [Moles/volume] in Blood"
            }
          ],
          "text": "Potassium [Moles/volume] in Blood"
        },
        "valueQuantity": {
          "system": "http://unitsofmeasure.org",
          "value": 3.8,
          "unit": "mmol/L",
          "code": "mmol/L"
        },
        "referenceRange": [
          {
            "low": {
              "value": 3.5,
              "code": "mmol/L",
              "system": "http://unitsofmeasure.org"
            }
          },
          {
            "high": {
              "value": 5.2,
              "code": "mmol/L",
              "system": "http://unitsofmeasure.org"
            }
          }
        ],
        "text": {
          "status": "generated",
          "div": "<div xmlns=\"http://www.w3.org/1999/xhtml\"><table class=\"hl7__eu__lab__report\"><tr><th>Test</th><th>14-Apr-2024</th><th>Reference&#xA0;Range</th><th>Unit</th></tr><tr><td>Potassium [Moles/volume] in Blood</td><td>3.8</td><td>3.5 - 5.2</td><td></td><td>mmol/L</td></tr></table></div>"
        },
        "status": "final",
        "subject": {
          "reference": "urn:uuid:2cd6b0f9-3c5e-48a3-b115-8158282c2997",
          "display": "Benedetto Lombroso"
        },
        "effectiveDateTime": "2024-04-14T07:22:02Z",
        "specimen": {
          "reference": "urn:uuid:66b884d0-f6f5-492b-89f0-8797b034f088"
        }
      }
    },
    {
      "fullUrl": "urn:uuid:1729c87a-5312-4731-b453-8d168e6f47cc",
      "resource": {
        "resourceType": "Observation",
        "id": "1729c87a-5312-4731-b453-8d168e6f47cc",
        "meta": {
          "profile": [
            "http://hl7.eu/fhir/laboratory/StructureDefinition/Observation-resultslab-eu-lab"
          ]
        },
        "performer": [
          {
            "display": "The Central European Lab"
          }
        ],
        "category": [
          {
            "coding": [
              {
                "system": "http://terminology.hl7.org/CodeSystem/observation-category",
                "code": "laboratory"
              }
            ]
          }
        ],
        "code": {
          "coding": [
            {
              "code": "2069-3",
              "system": "http://loinc.org",
              "display": "Chloride [Moles/volume] in Blood"
            }
          ],
          "text": "Chloride [Moles/volume] in Blood"
        },
        "valueQuantity": {
          "system": "http://unitsofmeasure.org",
          "value": 103.3,
          "unit": "mmol/L",
          "code": "mmol/L"
        },
        "referenceRange": [
          {
            "low": {
              "value": 98,
              "code": "mmol/L",
              "system": "http://unitsofmeasure.org"
            }
          },
          {
            "high": {
              "value": 114,
              "code": "mmol/L",
              "system": "http://unitsofmeasure.org"
            }
          }
        ],
        "text": {
          "status": "generated",
          "div": "<div xmlns=\"http://www.w3.org/1999/xhtml\"><table class=\"hl7__eu__lab__report\"><tr><th>Test</th><th>14-Apr-2024</th><th>Reference&#xA0;Range</th><th>Unit</th></tr><tr><td>Chloride [Moles/volume] in Blood</td><td>103.3</td><td>98 - 114</td><td></td><td>mmol/L</td></tr></table></div>"
        },
        "status": "final",
        "subject": {
          "reference": "urn:uuid:2cd6b0f9-3c5e-48a3-b115-8158282c2997",
          "display": "Benedetto Lombroso"
        },
        "effectiveDateTime": "2024-04-14T07:22:02Z",
        "specimen": {
          "reference": "urn:uuid:66b884d0-f6f5-492b-89f0-8797b034f088"
        }
      }
    },
    {
      "fullUrl": "urn:uuid:0f60c7b4-f89c-48c8-92ba-c16e89f86a42",
      "resource": {
        "resourceType": "Observation",
        "id": "0f60c7b4-f89c-48c8-92ba-c16e89f86a42",
        "meta": {
          "profile": [
            "http://hl7.eu/fhir/laboratory/StructureDefinition/Observation-resultslab-eu-lab"
          ]
        },
        "performer": [
          {
            "display": "The Central European Lab"
          }
        ],
        "category": [
          {
            "coding": [
              {
                "system": "http://terminology.hl7.org/CodeSystem/observation-category",
                "code": "laboratory"
              }
            ]
          }
        ],
        "code": {
          "coding": [
            {
              "code": "20565-8",
              "system": "http://loinc.org",
              "display": "Carbon dioxide, total [Moles/volume] in Blood"
            }
          ],
          "text": "Carbon dioxide, total [Moles/volume] in Blood"
        },
        "valueQuantity": {
          "system": "http://unitsofmeasure.org",
          "value": 23.5,
          "unit": "mmol/L",
          "code": "mmol/L"
        },
        "referenceRange": [
          {
            "low": {
              "value": 24,
              "code": "mmol/L",
              "system": "http://unitsofmeasure.org"
            }
          },
          {
            "high": {
              "value": 29,
              "code": "mmol/L",
              "system": "http://unitsofmeasure.org"
            }
          }
        ],
        "interpretation": [
          {
            "coding": [
              {
                "code": "L",
                "system": "http://terminology.hl7.org/CodeSystem/v3-ObservationInterpretation",
                "display": "Low"
              }
            ]
          }
        ],
        "text": {
          "status": "generated",
          "div": "<div xmlns=\"http://www.w3.org/1999/xhtml\"><table class=\"hl7__eu__lab__report\"><tr><th>Test</th><th>14-Apr-2024</th><th>Reference&#xA0;Range</th><th>Unit</th></tr><tr><td>Carbon dioxide, total [Moles/volume] in Blood</td><td>23.5</td><td>24 - 29</td><td>L</td><td>mmol/L</td></tr></table></div>"
        },
        "status": "final",
        "subject": {
          "reference": "urn:uuid:2cd6b0f9-3c5e-48a3-b115-8158282c2997",
          "display": "Benedetto Lombroso"
        },
        "effectiveDateTime": "2024-04-14T07:22:02Z",
        "specimen": {
          "reference": "urn:uuid:66b884d0-f6f5-492b-89f0-8797b034f088"
        }
      }
    },
    {
      "fullUrl": "urn:uuid:ad953e73-33e7-4327-8449-c6eeeb1b4ef7",
      "resource": {
        "resourceType": "Observation",
        "id": "ad953e73-33e7-4327-8449-c6eeeb1b4ef7",
        "meta": {
          "profile": [
            "http://hl7.eu/fhir/laboratory/StructureDefinition/Observation-resultslab-eu-lab"
          ]
        },
        "performer": [
          {
            "display": "The Central European Lab"
          }
        ],
        "category": [
          {
            "coding": [
              {
                "system": "http://terminology.hl7.org/CodeSystem/observation-category",
                "code": "laboratory"
              }
            ]
          }
        ],
        "code": {
          "coding": [
            {
              "code": "6690-2",
              "system": "http://loinc.org",
              "display": "Leukocytes [#/volume] in Blood by Automated count"
            }
          ],
          "text": "Leukocytes [#/volume] in Blood by Automated count"
        },
        "valueQuantity": {
          "system": "http://unitsofmeasure.org",
          "value": 5.9,
          "unit": "10*3/uL",
          "code": "10*3/uL"
        },
        "referenceRange": [
          {
            "low": {
              "value": 3.4,
              "code": "10*3/uL",
              "system": "http://unitsofmeasure.org"
            }
          },
          {
            "high": {
              "value": 10.6,
              "code": "10*3/uL",
              "system": "http://unitsofmeasure.org"
            }
          }
        ],
        "text": {
          "status": "generated",
          "div": "<div xmlns=\"http://www.w3.org/1999/xhtml\"><table class=\"hl7__eu__lab__report\"><tr><th>Test</th><th>14-Apr-2024</th><th>Reference&#xA0;Range</th><th>Unit</th></tr><tr><td>Leukocytes [#/volume] in Blood by Automated count</td><td>5.9</td><td>3.4 - 10.6</td><td></td><td>10*3/uL</td></tr></table></div>"
        },
        "status": "final",
        "subject": {
          "reference": "urn:uuid:2cd6b0f9-3c5e-48a3-b115-8158282c2997",
          "display": "Benedetto Lombroso"
        },
        "effectiveDateTime": "2024-04-14T07:22:02Z",
        "specimen": {
          "reference": "urn:uuid:66b884d0-f6f5-492b-89f0-8797b034f088"
        }
      }
    },
    {
      "fullUrl": "urn:uuid:63c1a67a-634b-4b6b-87f8-1ade3ac9fbdf",
      "resource": {
        "resourceType": "Observation",
        "id": "63c1a67a-634b-4b6b-87f8-1ade3ac9fbdf",
        "meta": {
          "profile": [
            "http://hl7.eu/fhir/laboratory/StructureDefinition/Observation-resultslab-eu-lab"
          ]
        },
        "performer": [
          {
            "display": "The Central European Lab"
          }
        ],
        "category": [
          {
            "coding": [
              {
                "system": "http://terminology.hl7.org/CodeSystem/observation-category",
                "code": "laboratory"
              }
            ]
          }
        ],
        "code": {
          "coding": [
            {
              "code": "789-8",
              "system": "http://loinc.org",
              "display": "Erythrocytes [#/volume] in Blood by Automated count"
            }
          ],
          "text": "Erythrocytes [#/volume] in Blood by Automated count"
        },
        "valueQuantity": {
          "system": "http://unitsofmeasure.org",
          "value": 4,
          "unit": "10*6/uL",
          "code": "10*6/uL"
        },
        "referenceRange": [
          {
            "low": {
              "value": 4.2,
              "code": "10*6/uL",
              "system": "http://unitsofmeasure.org"
            }
          },
          {
            "high": {
              "value": 6.2,
              "code": "10*6/uL",
              "system": "http://unitsofmeasure.org"
            }
          }
        ],
        "interpretation": [
          {
            "coding": [
              {
                "code": "L",
                "system": "http://terminology.hl7.org/CodeSystem/v3-ObservationInterpretation",
                "display": "Low"
              }
            ]
          }
        ],
        "text": {
          "status": "generated",
          "div": "<div xmlns=\"http://www.w3.org/1999/xhtml\"><table class=\"hl7__eu__lab__report\"><tr><th>Test</th><th>14-Apr-2024</th><th>Reference&#xA0;Range</th><th>Unit</th></tr><tr><td>Erythrocytes [#/volume] in Blood by Automated count</td><td>4.0</td><td>4.2 - 6.2</td><td>L</td><td>10*6/uL</td></tr></table></div>"
        },
        "status": "final",
        "subject": {
          "reference": "urn:uuid:2cd6b0f9-3c5e-48a3-b115-8158282c2997",
          "display": "Benedetto Lombroso"
        },
        "effectiveDateTime": "2024-04-14T07:22:02Z",
        "specimen": {
          "reference": "urn:uuid:66b884d0-f6f5-492b-89f0-8797b034f088"
        }
      }
    },
    {
      "fullUrl": "urn:uuid:b2eada17-7a49-4596-9436-04c89266541f",
      "resource": {
        "resourceType": "Observation",
        "id": "b2eada17-7a49-4596-9436-04c89266541f",
        "meta": {
          "profile": [
            "http://hl7.eu/fhir/laboratory/StructureDefinition/Observation-resultslab-eu-lab"
          ]
        },
        "performer": [
          {
            "display": "The Central European Lab"
          }
        ],
        "category": [
          {
            "coding": [
              {
                "system": "http://terminology.hl7.org/CodeSystem/observation-category",
                "code": "laboratory"
              }
            ]
          }
        ],
        "code": {
          "coding": [
            {
              "code": "718-7",
              "system": "http://loinc.org",
              "display": "Hemoglobin [Mass/volume] in Blood"
            }
          ],
          "text": "Hemoglobin [Mass/volume] in Blood"
        },
        "valueQuantity": {
          "system": "http://unitsofmeasure.org",
          "value": 13,
          "unit": "g/dL",
          "code": "g/dL"
        },
        "referenceRange": [
          {
            "low": {
              "value": 13.5,
              "code": "g/dL",
              "system": "http://unitsofmeasure.org"
            }
          },
          {
            "high": {
              "value": 17.5,
              "code": "g/dL",
              "system": "http://unitsofmeasure.org"
            }
          }
        ],
        "interpretation": [
          {
            "coding": [
              {
                "code": "L",
                "system": "http://terminology.hl7.org/CodeSystem/v3-ObservationInterpretation",
                "display": "Low"
              }
            ]
          }
        ],
        "text": {
          "status": "generated",
          "div": "<div xmlns=\"http://www.w3.org/1999/xhtml\"><table class=\"hl7__eu__lab__report\"><tr><th>Test</th><th>14-Apr-2024</th><th>Reference&#xA0;Range</th><th>Unit</th></tr><tr><td>Hemoglobin [Mass/volume] in Blood</td><td>13.0</td><td>13.5 - 17.5</td><td>L</td><td>g/dL</td></tr></table></div>"
        },
        "status": "final",
        "subject": {
          "reference": "urn:uuid:2cd6b0f9-3c5e-48a3-b115-8158282c2997",
          "display": "Benedetto Lombroso"
        },
        "effectiveDateTime": "2024-04-14T07:22:02Z",
        "specimen": {
          "reference": "urn:uuid:66b884d0-f6f5-492b-89f0-8797b034f088"
        }
      }
    },
    {
      "fullUrl": "urn:uuid:467f6bc4-5d1a-4ad7-8693-43e10daf3a1e",
      "resource": {
        "resourceType": "Observation",
        "id": "467f6bc4-5d1a-4ad7-8693-43e10daf3a1e",
        "meta": {
          "profile": [
            "http://hl7.eu/fhir/laboratory/StructureDefinition/Observation-resultslab-eu-lab"
          ]
        },
        "performer": [
          {
            "display": "The Central European Lab"
          }
        ],
        "category": [
          {
            "coding": [
              {
                "system": "http://terminology.hl7.org/CodeSystem/observation-category",
                "code": "laboratory"
              }
            ]
          }
        ],
        "code": {
          "coding": [
            {
              "code": "4544-3",
              "system": "http://loinc.org",
              "display": "Hematocrit [Volume Fraction] of Blood by Automated count"
            }
          ],
          "text": "Hematocrit [Volume Fraction] of Blood by Automated count"
        },
        "valueQuantity": {
          "system": "http://unitsofmeasure.org",
          "value": 49.4,
          "unit": "%",
          "code": "%"
        },
        "referenceRange": [
          {
            "low": {
              "value": 38,
              "code": "%",
              "system": "http://unitsofmeasure.org"
            }
          },
          {
            "high": {
              "value": 50,
              "code": "%",
              "system": "http://unitsofmeasure.org"
            }
          }
        ],
        "text": {
          "status": "generated",
          "div": "<div xmlns=\"http://www.w3.org/1999/xhtml\"><table class=\"hl7__eu__lab__report\"><tr><th>Test</th><th>14-Apr-2024</th><th>Reference&#xA0;Range</th><th>Unit</th></tr><tr><td>Hematocrit [Volume Fraction] of Blood by Automated count</td><td>49.4</td><td>38 - 50</td><td></td><td>%</td></tr></table></div>"
        },
        "status": "final",
        "subject": {
          "reference": "urn:uuid:2cd6b0f9-3c5e-48a3-b115-8158282c2997",
          "display": "Benedetto Lombroso"
        },
        "effectiveDateTime": "2024-04-14T07:22:02Z",
        "specimen": {
          "reference": "urn:uuid:66b884d0-f6f5-492b-89f0-8797b034f088"
        }
      }
    },
    {
      "fullUrl": "urn:uuid:951d8e98-493f-4630-aa10-44fcba1b4c56",
      "resource": {
        "resourceType": "Observation",
        "id": "951d8e98-493f-4630-aa10-44fcba1b4c56",
        "meta": {
          "profile": [
            "http://hl7.eu/fhir/laboratory/StructureDefinition/Observation-resultslab-eu-lab"
          ]
        },
        "performer": [
          {
            "display": "The Central European Lab"
          }
        ],
        "category": [
          {
            "coding": [
              {
                "system": "http://terminology.hl7.org/CodeSystem/observation-category",
                "code": "laboratory"
              }
            ]
          }
        ],
        "code": {
          "coding": [
            {
              "code": "787-2",
              "system": "http://loinc.org",
              "display": "MCV [Entitic volume] by Automated count"
            }
          ],
          "text": "MCV [Entitic volume] by Automated count"
        },
        "valueQuantity": {
          "system": "http://unitsofmeasure.org",
          "value": 94.7,
          "unit": "fL",
          "code": "fL"
        },
        "referenceRange": [
          {
            "low": {
              "value": 80,
              "code": "fL",
              "system": "http://unitsofmeasure.org"
            }
          },
          {
            "high": {
              "value": 99,
              "code": "fL",
              "system": "http://unitsofmeasure.org"
            }
          }
        ],
        "text": {
          "status": "generated",
          "div": "<div xmlns=\"http://www.w3.org/1999/xhtml\"><table class=\"hl7__eu__lab__report\"><tr><th>Test</th><th>14-Apr-2024</th><th>Reference&#xA0;Range</th><th>Unit</th></tr><tr><td>MCV [Entitic volume] by Automated count</td><td>94.7</td><td>80 - 99</td><td></td><td>fL</td></tr></table></div>"
        },
        "status": "final",
        "subject": {
          "reference": "urn:uuid:2cd6b0f9-3c5e-48a3-b115-8158282c2997",
          "display": "Benedetto Lombroso"
        },
        "effectiveDateTime": "2024-04-14T07:22:02Z",
        "specimen": {
          "reference": "urn:uuid:66b884d0-f6f5-492b-89f0-8797b034f088"
        }
      }
    },
    {
      "fullUrl": "urn:uuid:3b6351d5-1e9b-426f-b79f-f21152998426",
      "resource": {
        "resourceType": "Observation",
        "id": "3b6351d5-1e9b-426f-b79f-f21152998426",
        "meta": {
          "profile": [
            "http://hl7.eu/fhir/laboratory/StructureDefinition/Observation-resultslab-eu-lab"
          ]
        },
        "performer": [
          {
            "display": "The Central European Lab"
          }
        ],
        "category": [
          {
            "coding": [
              {
                "system": "http://terminology.hl7.org/CodeSystem/observation-category",
                "code": "laboratory"
              }
            ]
          }
        ],
        "code": {
          "coding": [
            {
              "code": "785-6",
              "system": "http://loinc.org",
              "display": "MCH [Entitic mass] by Automated count"
            }
          ],
          "text": "MCH [Entitic mass] by Automated count"
        },
        "valueQuantity": {
          "system": "http://unitsofmeasure.org",
          "value": 30.3,
          "unit": "pg",
          "code": "pg"
        },
        "referenceRange": [
          {
            "low": {
              "value": 27,
              "code": "pg",
              "system": "http://unitsofmeasure.org"
            }
          },
          {
            "high": {
              "value": 34,
              "code": "pg",
              "system": "http://unitsofmeasure.org"
            }
          }
        ],
        "text": {
          "status": "generated",
          "div": "<div xmlns=\"http://www.w3.org/1999/xhtml\"><table class=\"hl7__eu__lab__report\"><tr><th>Test</th><th>14-Apr-2024</th><th>Reference&#xA0;Range</th><th>Unit</th></tr><tr><td>MCH [Entitic mass] by Automated count</td><td>30.3</td><td>27 - 34</td><td></td><td>pg</td></tr></table></div>"
        },
        "status": "final",
        "subject": {
          "reference": "urn:uuid:2cd6b0f9-3c5e-48a3-b115-8158282c2997",
          "display": "Benedetto Lombroso"
        },
        "effectiveDateTime": "2024-04-14T07:22:02Z",
        "specimen": {
          "reference": "urn:uuid:66b884d0-f6f5-492b-89f0-8797b034f088"
        }
      }
    },
    {
      "fullUrl": "urn:uuid:16fd4cfe-5373-4da3-90cc-c8cf138d9f98",
      "resource": {
        "resourceType": "Observation",
        "id": "16fd4cfe-5373-4da3-90cc-c8cf138d9f98",
        "meta": {
          "profile": [
            "http://hl7.eu/fhir/laboratory/StructureDefinition/Observation-resultslab-eu-lab"
          ]
        },
        "performer": [
          {
            "display": "The Central European Lab"
          }
        ],
        "category": [
          {
            "coding": [
              {
                "system": "http://terminology.hl7.org/CodeSystem/observation-category",
                "code": "laboratory"
              }
            ]
          }
        ],
        "code": {
          "coding": [
            {
              "code": "786-4",
              "system": "http://loinc.org",
              "display": "MCHC [Mass/volume] by Automated count"
            }
          ],
          "text": "MCHC [Mass/volume] by Automated count"
        },
        "valueQuantity": {
          "system": "http://unitsofmeasure.org",
          "value": 34.1,
          "unit": "g/dL",
          "code": "g/dL"
        },
        "referenceRange": [
          {
            "low": {
              "value": 31,
              "code": "g/dL",
              "system": "http://unitsofmeasure.org"
            }
          },
          {
            "high": {
              "value": 37,
              "code": "g/dL",
              "system": "http://unitsofmeasure.org"
            }
          }
        ],
        "text": {
          "status": "generated",
          "div": "<div xmlns=\"http://www.w3.org/1999/xhtml\"><table class=\"hl7__eu__lab__report\"><tr><th>Test</th><th>14-Apr-2024</th><th>Reference&#xA0;Range</th><th>Unit</th></tr><tr><td>MCHC [Mass/volume] by Automated count</td><td>34.1</td><td>31 - 37</td><td></td><td>g/dL</td></tr></table></div>"
        },
        "status": "final",
        "subject": {
          "reference": "urn:uuid:2cd6b0f9-3c5e-48a3-b115-8158282c2997",
          "display": "Benedetto Lombroso"
        },
        "effectiveDateTime": "2024-04-14T07:22:02Z",
        "specimen": {
          "reference": "urn:uuid:66b884d0-f6f5-492b-89f0-8797b034f088"
        }
      }
    },
    {
      "fullUrl": "urn:uuid:9022075f-818d-4fe9-9fe0-be3c2c6e80cd",
      "resource": {
        "resourceType": "Observation",
        "id": "9022075f-818d-4fe9-9fe0-be3c2c6e80cd",
        "meta": {
          "profile": [
            "http://hl7.eu/fhir/laboratory/StructureDefinition/Observation-resultslab-eu-lab"
          ]
        },
        "performer": [
          {
            "display": "The Central European Lab"
          }
        ],
        "category": [
          {
            "coding": [
              {
                "system": "http://terminology.hl7.org/CodeSystem/observation-category",
                "code": "laboratory"
              }
            ]
          }
        ],
        "code": {
          "coding": [
            {
              "code": "21000-5",
              "system": "http://loinc.org",
              "display": "Erythrocyte distribution width [Entitic volume] by Automated count"
            }
          ],
          "text": "Erythrocyte distribution width [Entitic volume] by Automated count"
        },
        "valueQuantity": {
          "system": "http://unitsofmeasure.org",
          "value": 41.1,
          "unit": "fL",
          "code": "fL"
        },
        "referenceRange": [
          {
            "low": {
              "value": 39,
              "code": "fL",
              "system": "http://unitsofmeasure.org"
            }
          },
          {
            "high": {
              "value": 55,
              "code": "fL",
              "system": "http://unitsofmeasure.org"
            }
          }
        ],
        "text": {
          "status": "generated",
          "div": "<div xmlns=\"http://www.w3.org/1999/xhtml\"><table class=\"hl7__eu__lab__report\"><tr><th>Test</th><th>14-Apr-2024</th><th>Reference&#xA0;Range</th><th>Unit</th></tr><tr><td>Erythrocyte distribution width [Entitic volume] by Automated count</td><td>41.1</td><td>39 - 55</td><td></td><td>fL</td></tr></table></div>"
        },
        "status": "final",
        "subject": {
          "reference": "urn:uuid:2cd6b0f9-3c5e-48a3-b115-8158282c2997",
          "display": "Benedetto Lombroso"
        },
        "effectiveDateTime": "2024-04-14T07:22:02Z",
        "specimen": {
          "reference": "urn:uuid:66b884d0-f6f5-492b-89f0-8797b034f088"
        }
      }
    },
    {
      "fullUrl": "urn:uuid:a97d9fd2-5e2f-4d03-b346-fbd99115fed8",
      "resource": {
        "resourceType": "Observation",
        "id": "a97d9fd2-5e2f-4d03-b346-fbd99115fed8",
        "meta": {
          "profile": [
            "http://hl7.eu/fhir/laboratory/StructureDefinition/Observation-resultslab-eu-lab"
          ]
        },
        "performer": [
          {
            "display": "The Central European Lab"
          }
        ],
        "category": [
          {
            "coding": [
              {
                "system": "http://terminology.hl7.org/CodeSystem/observation-category",
                "code": "laboratory"
              }
            ]
          }
        ],
        "code": {
          "coding": [
            {
              "code": "777-3",
              "system": "http://loinc.org",
              "display": "Platelets [#/volume] in Blood by Automated count"
            }
          ],
          "text": "Platelets [#/volume] in Blood by Automated count"
        },
        "valueQuantity": {
          "system": "http://unitsofmeasure.org",
          "value": 314.1,
          "unit": "10*3/uL",
          "code": "10*3/uL"
        },
        "referenceRange": [
          {
            "low": {
              "value": 150,
              "code": "10*3/uL",
              "system": "http://unitsofmeasure.org"
            }
          },
          {
            "high": {
              "value": 450,
              "code": "10*3/uL",
              "system": "http://unitsofmeasure.org"
            }
          }
        ],
        "text": {
          "status": "generated",
          "div": "<div xmlns=\"http://www.w3.org/1999/xhtml\"><table class=\"hl7__eu__lab__report\"><tr><th>Test</th><th>14-Apr-2024</th><th>Reference&#xA0;Range</th><th>Unit</th></tr><tr><td>Platelets [#/volume] in Blood by Automated count</td><td>314.1</td><td>150 - 450</td><td></td><td>10*3/uL</td></tr></table></div>"
        },
        "status": "final",
        "subject": {
          "reference": "urn:uuid:2cd6b0f9-3c5e-48a3-b115-8158282c2997",
          "display": "Benedetto Lombroso"
        },
        "effectiveDateTime": "2024-04-14T07:22:02Z",
        "specimen": {
          "reference": "urn:uuid:66b884d0-f6f5-492b-89f0-8797b034f088"
        }
      }
    },
    {
      "fullUrl": "urn:uuid:f9da2b05-a5af-49d1-8952-e9c46843ba67",
      "resource": {
        "resourceType": "Observation",
        "id": "f9da2b05-a5af-49d1-8952-e9c46843ba67",
        "meta": {
          "profile": [
            "http://hl7.eu/fhir/laboratory/StructureDefinition/Observation-resultslab-eu-lab"
          ]
        },
        "performer": [
          {
            "display": "The Central European Lab"
          }
        ],
        "category": [
          {
            "coding": [
              {
                "system": "http://terminology.hl7.org/CodeSystem/observation-category",
                "code": "laboratory"
              }
            ]
          }
        ],
        "code": {
          "coding": [
            {
              "code": "32207-3",
              "system": "http://loinc.org",
              "display": "Platelet distribution width [Entitic volume] in Blood by Automated count"
            }
          ],
          "text": "Platelet distribution width [Entitic volume] in Blood by Automated count"
        },
        "valueQuantity": {
          "system": "http://unitsofmeasure.org",
          "value": 491.3,
          "unit": "fL",
          "code": "fL"
        },
        "referenceRange": [
          {
            "low": {
              "value": 150,
              "code": "fL",
              "system": "http://unitsofmeasure.org"
            }
          },
          {
            "high": {
              "value": 450,
              "code": "fL",
              "system": "http://unitsofmeasure.org"
            }
          }
        ],
        "interpretation": [
          {
            "coding": [
              {
                "code": "H",
                "system": "http://terminology.hl7.org/CodeSystem/v3-ObservationInterpretation",
                "display": "High"
              }
            ]
          }
        ],
        "text": {
          "status": "generated",
          "div": "<div xmlns=\"http://www.w3.org/1999/xhtml\"><table class=\"hl7__eu__lab__report\"><tr><th>Test</th><th>14-Apr-2024</th><th>Reference&#xA0;Range</th><th>Unit</th></tr><tr><td>Platelet distribution width [Entitic volume] in Blood by Automated count</td><td>491.3</td><td>150 - 450</td><td>H</td><td>fL</td></tr></table></div>"
        },
        "status": "final",
        "subject": {
          "reference": "urn:uuid:2cd6b0f9-3c5e-48a3-b115-8158282c2997",
          "display": "Benedetto Lombroso"
        },
        "effectiveDateTime": "2024-04-14T07:22:02Z",
        "specimen": {
          "reference": "urn:uuid:66b884d0-f6f5-492b-89f0-8797b034f088"
        }
      }
    },
    {
      "fullUrl": "urn:uuid:45200f9a-0fe0-4143-ae1d-195c0e8071d1",
      "resource": {
        "resourceType": "Observation",
        "id": "45200f9a-0fe0-4143-ae1d-195c0e8071d1",
        "meta": {
          "profile": [
            "http://hl7.eu/fhir/laboratory/StructureDefinition/Observation-resultslab-eu-lab"
          ]
        },
        "performer": [
          {
            "display": "The Central European Lab"
          }
        ],
        "category": [
          {
            "coding": [
              {
                "system": "http://terminology.hl7.org/CodeSystem/observation-category",
                "code": "laboratory"
              }
            ]
          }
        ],
        "code": {
          "coding": [
            {
              "code": "32623-1",
              "system": "http://loinc.org",
              "display": "Platelet mean volume [Entitic volume] in Blood by Automated count"
            }
          ],
          "text": "Platelet mean volume [Entitic volume] in Blood by Automated count"
        },
        "valueQuantity": {
          "system": "http://unitsofmeasure.org",
          "value": 10.7,
          "unit": "fL",
          "code": "fL"
        },
        "referenceRange": [
          {
            "low": {
              "value": 9.6,
              "code": "fL",
              "system": "http://unitsofmeasure.org"
            }
          },
          {
            "high": {
              "value": 13.8,
              "code": "fL",
              "system": "http://unitsofmeasure.org"
            }
          }
        ],
        "text": {
          "status": "generated",
          "div": "<div xmlns=\"http://www.w3.org/1999/xhtml\"><table class=\"hl7__eu__lab__report\"><tr><th>Test</th><th>14-Apr-2024</th><th>Reference&#xA0;Range</th><th>Unit</th></tr><tr><td>Platelet mean volume [Entitic volume] in Blood by Automated count</td><td>10.7</td><td>9.6 - 13.8</td><td></td><td>fL</td></tr></table></div>"
        },
        "status": "final",
        "subject": {
          "reference": "urn:uuid:2cd6b0f9-3c5e-48a3-b115-8158282c2997",
          "display": "Benedetto Lombroso"
        },
        "effectiveDateTime": "2024-04-14T07:22:02Z",
        "specimen": {
          "reference": "urn:uuid:66b884d0-f6f5-492b-89f0-8797b034f088"
        }
      }
    },
    {
      "fullUrl": "urn:uuid:cfcff248-28e0-4aca-98cd-488a7e13f6c3",
      "resource": {
        "resourceType": "Device",
        "id": "cfcff248-28e0-4aca-98cd-488a7e13f6c3",
        "deviceName": [
          {
            "name": "SYNDERAI Synthetic Generator",
            "type": "manufacturer-name"
          }
        ],
        "version": [
          {
            "value": "5.0"
          }
        ],
        "text": {
          "status": "generated",
          "div": "<div xmlns=\"http://www.w3.org/1999/xhtml\">SYNDERAI Synthetic Generator v5.0</div>"
        },
        "status": "active\"",
        "distinctIdentifier": "synderai-generator-50",
        "manufacturer": "SYNDERAI Project"
      }
    },
    {
      "fullUrl": "urn:uuid:4ec3ffc3-0e51-4deb-9508-87f0264e656f",
      "resource": {
        "resourceType": "Provenance",
        "id": "4ec3ffc3-0e51-4deb-9508-87f0264e656f",
        "target": [
          {
            "reference": "Patient/2cd6b0f9-3c5e-48a3-b115-8158282c2997"
          },
          {
            "reference": "Bundle/ffb4c536-4e89-4e14-bc62-7b349b067eac"
          },
          {
            "reference": "Composition/d32e2267-7db0-4831-a840-7f3f404d089c"
          },
          {
            "reference": "PractitionerRole/04babd1e-b0ab-47c6-b84a-af787e273a6c"
          },
          {
            "reference": "Practitioner/03ff2fd3-8251-483d-98dc-b2c6323326fe"
          },
          {
            "reference": "PractitionerRole/aaffc345-0af4-41a4-99f2-3c08994525c6"
          },
          {
            "reference": "Organization/8e079344-0d1e-4dd8-8dae-bc1eb68e2274"
          }
        ],
        "activity": {
          "text": "Synthetic Example Data Generation"
        },
        "policy": [
          "https://synderai.net/synderai-synthetic-data-policy"
        ],
        "agent": [
          {
            "type": {
              "text": "author"
            },
            "who": {
              "reference": "Device/cfcff248-28e0-4aca-98cd-488a7e13f6c3"
            }
          }
        ],
        "reason": [
          {
            "text": "Interoperability Testing and Training (non-clinical use)"
          }
        ],
        "text": {
          "status": "generated",
          "div": "<div xmlns=\"http://www.w3.org/1999/xhtml\">Provenance for SYNDERAI Synthetic Example Data Resource</div>"
        },
        "recorded": "2024-04-14T09:22:02Z"
      }
    },
    {
      "fullUrl": "urn:uuid:04babd1e-b0ab-47c6-b84a-af787e273a6c",
      "resource": {
        "resourceType": "PractitionerRole",
        "id": "04babd1e-b0ab-47c6-b84a-af787e273a6c",
        "meta": {
          "profile": [
            "http://hl7.eu/fhir/base/StructureDefinition/practitionerRole-eu"
          ]
        },
        "text": {
          "status": "generated",
          "div": "<div xmlns=\"http://www.w3.org/1999/xhtml\">Laboratory Role Id: 04babd1e-b0ab-47c6-b84a-af787e273a6c</div>"
        },
        "practitioner": {
          "reference": "urn:uuid:03ff2fd3-8251-483d-98dc-b2c6323326fe"
        }
      }
    },
    {
      "fullUrl": "urn:uuid:03ff2fd3-8251-483d-98dc-b2c6323326fe",
      "resource": {
        "resourceType": "Practitioner",
        "id": "03ff2fd3-8251-483d-98dc-b2c6323326fe",
        "meta": {
          "profile": [
            "http://hl7.eu/fhir/base/StructureDefinition/practitioner-eu"
          ]
        },
        "identifier": [
          {
            "assigner": {
              "display": "HL7 Europe"
            },
            "system": "urn:oid:2.16.840.1.113883.2.51.999",
            "value": "9ccf28da-a5d1-487e-a292-320ad1c5978f"
          }
        ],
        "name": [
          {
            "prefix": [
              "dr"
            ],
            "given": [
              "Ex"
            ],
            "family": "Ample"
          }
        ],
        "address": [
          {
            "line": [
              "Laboratoire Central Européenne",
              "Boulevard du Jardin Botanique 32"
            ],
            "postalCode": "1000",
            "city": "Brussels",
            "country": "Belgium"
          }
        ],
        "text": {
          "status": "generated",
          "div": "<div xmlns=\"http://www.w3.org/1999/xhtml\">Laboratory: Laboratoire Central Européenne, 1000 Brussels, Belgium</div>"
        }
      }
    }
  ],
  "type": "document",
  "timestamp": "2024-04-14T09:22:02Z"
}
