{
  "resourceType": "Bundle",
  "id": "faa300ef-cbba-4d90-8fc1-ba60bffe3770",
  "meta": {
    "profile": [
      "http://hl7.eu/fhir/laboratory/StructureDefinition/Bundle-eu-lab"
    ]
  },
  "identifier": {
    "assigner": {
      "display": "HL7 Europe"
    },
    "system": "urn:oid:2.16.840.1.113883.2.51.999",
    "value": "94982eb9-3ac4-4f4a-b427-b0c755e2f0aa"
  },
  "entry": [
    {
      "fullUrl": "urn:uuid:66e3cbdb-2109-4dab-8716-7bd11b04e1ee",
      "resource": {
        "resourceType": "Composition",
        "id": "66e3cbdb-2109-4dab-8716-7bd11b04e1ee",
        "meta": {
          "profile": [
            "http://hl7.eu/fhir/laboratory/StructureDefinition/Composition-eu-lab"
          ]
        },
        "identifier": {
          "assigner": {
            "display": "HL7 Europe"
          },
          "system": "urn:oid:2.16.840.1.113883.2.51.999",
          "value": "eca6904f-869f-4613-ad02-397a3ee620e2"
        },
        "author": [
          {
            "reference": "urn:uuid:cdcee002-c03c-4e91-8799-4830c7736248"
          }
        ],
        "category": [
          {
            "coding": [
              {
                "code": "26436-6",
                "system": "http://loinc.org",
                "display": "Laboratory studies (set)"
              }
            ]
          }
        ],
        "type": {
          "coding": [
            {
              "code": "11502-2",
              "system": "http://loinc.org",
              "display": "Laboratory report"
            }
          ],
          "text": "Laboratory Report"
        },
        "section": [
          {
            "code": {
              "coding": [
                {
                  "code": "26436-6",
                  "system": "http://loinc.org",
                  "display": "Laboratory studies (set)"
                }
              ],
              "text": "Laboratory studies"
            },
            "section": [
              {
                "code": {
                  "coding": [
                    {
                      "code": "$18719-5",
                      "system": "http://loinc.org",
                      "display": "Chemistry studies (set)"
                    }
                  ],
                  "text": "Chemistry"
                },
                "entry": [
                  {
                    "reference": "urn:uuid:c0afb5cd-9dd7-496e-aa47-7637625371fc"
                  },
                  {
                    "reference": "urn:uuid:938becda-9ef1-4a43-a241-c31eb0e17610"
                  },
                  {
                    "reference": "urn:uuid:59028d84-5121-44a6-9248-425f7d98f191"
                  },
                  {
                    "reference": "urn:uuid:7367bd03-6e16-4319-b928-78b25e6b974e"
                  },
                  {
                    "reference": "urn:uuid:9b993deb-7201-4c52-9685-d4e3d01f245b"
                  },
                  {
                    "reference": "urn:uuid:3d8da083-fa35-4935-a862-7a58404eb58b"
                  },
                  {
                    "reference": "urn:uuid:001a63fa-0c6f-4408-b057-83e53557513b"
                  },
                  {
                    "reference": "urn:uuid:005f1bcd-885c-48cc-b093-5c77721891e0"
                  },
                  {
                    "reference": "urn:uuid:a41ce3b3-286c-4b32-a147-1b78ef06ee11"
                  },
                  {
                    "reference": "urn:uuid:71e3c6f3-02e4-406f-ac26-0b79141c2925"
                  },
                  {
                    "reference": "urn:uuid:97f9b14e-65ca-4916-8273-fed3909db55d"
                  },
                  {
                    "reference": "urn:uuid:1e6b341a-5276-4038-940b-0ef580242447"
                  },
                  {
                    "reference": "urn:uuid:6f9e783b-dcc9-4f13-8884-96e24946dfaa"
                  },
                  {
                    "reference": "urn:uuid:77983e74-a853-424b-b2f5-c901f8d3af2d"
                  },
                  {
                    "reference": "urn:uuid:3b7dae08-ed6f-4693-914e-4dfa494db6bc"
                  },
                  {
                    "reference": "urn:uuid:7d042100-3b47-4ba2-afeb-fec7453ed4f6"
                  },
                  {
                    "reference": "urn:uuid:c3b4caa0-43cd-4f51-ac87-321ee287d634"
                  },
                  {
                    "reference": "urn:uuid:ef1a1bc6-cfd6-4f34-a42f-86081f775754"
                  }
                ],
                "text": {
                  "status": "generated",
                  "div": "<div xmlns=\"http://www.w3.org/1999/xhtml\"><h3>Chemistry</h3><table class=\"hl7__eu__lab__report\"><thead><tr><th>Test</th><th>04-OCT-2022</th><th>Reference&#xA0;Range</th><th>Unit</th></tr></thead><tbody><tr><td>Glucose [Mass/volume] in Serum or Plasma</td><td>91.6</td><td>70 - 99</td><td>mg/dL</td></tr><tr><td>Urea nitrogen [Mass/volume] in Serum or Plasma</td><td>12.9</td><td>7 - 50</td><td>mg/dL</td></tr><tr><td>Creatinine [Mass/volume] in Serum or Plasma</td><td><strong>2.0 H</strong></td><td>0.6 - 1.1</td><td>mg/dL</td></tr><tr><td>Calcium [Mass/volume] in Serum or Plasma</td><td>8.6</td><td>8.6 - 10.4</td><td>mg/dL</td></tr><tr><td>Sodium [Moles/volume] in Serum or Plasma</td><td>141.4</td><td>135 - 145</td><td>mmol/L</td></tr><tr><td>Potassium [Moles/volume] in Serum or Plasma</td><td>4.0</td><td>3.5 - 5.1</td><td>mmol/L</td></tr><tr><td>Chloride [Moles/volume] in Serum or Plasma</td><td><strong>108.2 H</strong></td><td>98 - 108</td><td>mmol/L</td></tr><tr><td>Carbon dioxide, total [Moles/volume] in Serum or Plasma</td><td>25.6</td><td>22 - 32</td><td>mmol/L</td></tr><tr><td>Ketones [Presence] in Urine by Test strip</td><td>Urine ketone test = ++</td><td></td><td></td></tr><tr><td>Hemoglobin A1c/Hemoglobin.total in Blood</td><td><strong>3.3 L</strong></td><td>4 - 6.4</td><td>%</td></tr><tr><td>Glucose [Mass/volume] in Blood</td><td>91.6</td><td>70 - 100</td><td>mg/dL</td></tr><tr><td>Urea nitrogen [Mass/volume] in Blood</td><td>12.9</td><td>7 - 43</td><td>mg/dL</td></tr><tr><td>Creatinine [Mass/volume] in Blood</td><td><strong>3.0 H</strong></td><td>0.6 - 1.1</td><td>mg/dL</td></tr><tr><td>Calcium [Mass/volume] in Blood</td><td>8.6</td><td>8.5 - 10.5</td><td>mg/dL</td></tr><tr><td>Sodium [Moles/volume] in Blood</td><td>141.4</td><td>135 - 145</td><td>mmol/L</td></tr><tr><td>Potassium [Moles/volume] in Blood</td><td>4.0</td><td>3.5 - 5.1</td><td>mmol/L</td></tr><tr><td>Chloride [Moles/volume] in Blood</td><td><strong>108.2 H</strong></td><td>98 - 108</td><td>mmol/L</td></tr><tr><td>Carbon dioxide, total [Moles/volume] in Blood</td><td>25.6</td><td>22 - 29</td><td>mmol/L</td></tr></tbody></table></div>"
                },
                "title": "Chemistry"
              },
              {
                "code": {
                  "coding": [
                    {
                      "code": "$18729-4",
                      "system": "http://loinc.org",
                      "display": "Urinalysis studies (set)"
                    }
                  ],
                  "text": "Urinalysis"
                },
                "entry": [
                  {
                    "reference": "urn:uuid:897f2861-c93d-4263-9821-d405ea58c636"
                  },
                  {
                    "reference": "urn:uuid:aecc5ab3-4932-410c-a359-0fd1b805e969"
                  },
                  {
                    "reference": "urn:uuid:6e7616e2-24c6-48ee-b577-56d43623f4a7"
                  },
                  {
                    "reference": "urn:uuid:5d617c50-3dcf-410e-b016-43eb167ae8cd"
                  },
                  {
                    "reference": "urn:uuid:3d0fb1b3-9bb0-480d-9148-80c5e5ac1037"
                  },
                  {
                    "reference": "urn:uuid:777e65fc-62f7-491e-8964-f56a481c161e"
                  },
                  {
                    "reference": "urn:uuid:8f8331c8-53a9-427d-8cdb-08731ca6dec0"
                  },
                  {
                    "reference": "urn:uuid:13022bf9-8a99-40b3-af01-f889802d7021"
                  },
                  {
                    "reference": "urn:uuid:b09a869b-eadc-4d57-9d0c-cc920ceee982"
                  },
                  {
                    "reference": "urn:uuid:6502b353-e71f-482a-8ed3-2dc72f270cff"
                  },
                  {
                    "reference": "urn:uuid:57a569d4-63e1-4a9f-a8ae-9f0aa50997bb"
                  },
                  {
                    "reference": "urn:uuid:83c51515-af0d-4322-9bad-0f4ceee87fb8"
                  }
                ],
                "text": {
                  "status": "generated",
                  "div": "<div xmlns=\"http://www.w3.org/1999/xhtml\"><h3>Urinalysis</h3><table class=\"hl7__eu__lab__report\"><thead><tr><th>Test</th><th>04-OCT-2022</th><th>Reference&#xA0;Range</th><th>Unit</th></tr></thead><tbody><tr><td>Glucose [Mass/volume] in Urine by Test strip</td><td><strong>1.2 H</strong></td><td>0.8 - 0</td><td>mg/dL</td></tr><tr><td>Glucose [Presence] in Urine by Test strip</td><td>++</td><td></td><td></td></tr><tr><td>Bilirubin.total [Mass/volume] in Urine by Test strip</td><td>0.5</td><td>0 - 1</td><td>mg/dL</td></tr><tr><td>Bilirubin.total [Presence] in Urine by Test strip</td><td>Finding of bilirubin in urine</td><td></td><td></td></tr><tr><td>Ketones [Mass/volume] in Urine by Test strip</td><td><strong>14.8 H</strong></td><td>0 - 4</td><td>mg/dL</td></tr><tr><td>Specific gravity of Urine by Test strip</td><td><strong>1.0 L</strong></td><td>1.005 - 1.03</td><td>{nominal}</td></tr><tr><td>pH of Urine by Test strip</td><td>6.5</td><td>4.6 - 7</td><td>pH</td></tr><tr><td>Protein [Mass/volume] in Urine by Test strip</td><td><strong>358.6 H</strong></td><td>0 - 14</td><td>mg/dL</td></tr><tr><td>Protein [Presence] in Urine by Test strip</td><td>Urine protein test = ++</td><td></td><td></td></tr><tr><td>Nitrite [Presence] in Urine by Test strip</td><td>Urine nitrite negative</td><td></td><td></td></tr><tr><td>Hemoglobin [Presence] in Urine by Test strip</td><td>Urine blood test = negative</td><td></td><td></td></tr><tr><td>Leukocyte esterase [Presence] in Urine by Test strip</td><td>Urine leukocyte test negative</td><td></td><td></td></tr></tbody></table></div>"
                },
                "title": "Urinalysis"
              },
              {
                "code": {
                  "coding": [
                    {
                      "code": "$LP7846-1",
                      "system": "http://loinc.org",
                      "display": "Specimen information"
                    }
                  ],
                  "text": "Specimen information"
                },
                "entry": [
                  {
                    "reference": "urn:uuid:442c3e93-07c9-4b92-9194-ec893e5925a3"
                  },
                  {
                    "reference": "urn:uuid:dee75dce-39db-404b-903b-365c84c48d89"
                  },
                  {
                    "reference": "urn:uuid:c8bb93f1-7f41-40d6-9bb3-81820e71da77"
                  },
                  {
                    "reference": "urn:uuid:962124d1-f728-4523-a9d0-ce0a52ef8ab8"
                  }
                ],
                "text": {
                  "status": "generated",
                  "div": "<div xmlns=\"http://www.w3.org/1999/xhtml\"><h3>Specimen information</h3><table class=\"hl7__eu__lab__report\"><thead><tr><th>Test</th><th>04-OCT-2022</th><th>Specimen</th><th></th></tr></thead><tbody><tr><td>Appearance of Urine</td><td>Cloudy urine</td><td>Urine</td><td></td></tr><tr><td>Odor of Urine</td><td>Urine smell ammoniacal</td><td>Urine</td><td></td></tr><tr><td>Clarity of Urine</td><td>Translucent</td><td>Urine</td><td></td></tr><tr><td>Color of Urine</td><td>Brown color</td><td>Urine</td><td></td></tr></tbody></table></div>"
                },
                "title": "Specimen information"
              }
            ],
            "title": "Laboratory Report"
          },
          {
            "text": {
              "status": "generated",
              "div": "<div xmlns=\"http://www.w3.org/1999/xhtml\"><h3>Annotation</h3><table class=\"hl7__eu__lab__report\"><tr><th>Conclusion and Recommendations based on this report and previous findings known to us</th></tr><tr><td>The patient shows significantly elevated creatinine, proteinuria, glucosuria, and ketonuria, suggesting impaired renal function and possible nephrotic syndrome or acute kidney injury. Low HbA1c with normal glucose may indicate recent hypoglycemia or anemia. Urine findings (cloudy, brown, ammoniacal) and low specific gravity further support renal dysfunction. Recommend urgent nephrology evaluation and further assessment for underlying causes.</td></tr></table></div>"
            },
            "code": {
              "coding": [
                {
                  "system": "http://loinc.org",
                  "code": "48767-8",
                  "display": "Annotation comment"
                }
              ]
            },
            "title": "Annotation comment"
          }
        ],
        "status": "final",
        "subject": {
          "reference": "urn:uuid:a55d339e-5cee-43e1-8ab5-1c057b31bc1e",
          "display": "Meaghan Neary"
        },
        "date": "2022-10-04T00:11:04Z",
        "title": "Laboratory Report",
        "confidentiality": "N"
      }
    },
    {
      "fullUrl": "urn:uuid:2965a8df-6095-4bc7-beb9-605e5a63038a",
      "resource": {
        "resourceType": "DiagnosticReport",
        "id": "2965a8df-6095-4bc7-beb9-605e5a63038a",
        "meta": {
          "profile": [
            "http://hl7.eu/fhir/laboratory/StructureDefinition/DiagnosticReport-eu-lab"
          ]
        },
        "identifier": [
          {
            "assigner": {
              "display": "HL7 Europe"
            },
            "system": "urn:oid:2.16.840.1.113883.2.51.999",
            "value": "b414fb43-d843-46ee-a40d-abf4305449db"
          }
        ],
        "extension": [
          {
            "url": "http://hl7.org/fhir/5.0/StructureDefinition/extension-DiagnosticReport.composition",
            "valueReference": {
              "reference": "urn:uuid:eca6904f-869f-4613-ad02-397a3ee620e2"
            }
          }
        ],
        "category": [
          {
            "coding": [
              {
                "code": "26436-6",
                "system": "http://loinc.org",
                "display": "Laboratory studies (set)"
              }
            ]
          }
        ],
        "specimen": [
          {
            "reference": "urn:uuid:09253076-d372-46ee-abc9-2b3a6985e01a"
          },
          {
            "reference": "urn:uuid:cb932dd5-0369-484e-9e48-63aa0c649992"
          },
          {
            "reference": "urn:uuid:f7b6bd97-8d2b-407b-96f5-64fee207d3e0"
          }
        ],
        "result": [
          {
            "reference": "urn:uuid:c0afb5cd-9dd7-496e-aa47-7637625371fc"
          },
          {
            "reference": "urn:uuid:938becda-9ef1-4a43-a241-c31eb0e17610"
          },
          {
            "reference": "urn:uuid:59028d84-5121-44a6-9248-425f7d98f191"
          },
          {
            "reference": "urn:uuid:7367bd03-6e16-4319-b928-78b25e6b974e"
          },
          {
            "reference": "urn:uuid:9b993deb-7201-4c52-9685-d4e3d01f245b"
          },
          {
            "reference": "urn:uuid:3d8da083-fa35-4935-a862-7a58404eb58b"
          },
          {
            "reference": "urn:uuid:001a63fa-0c6f-4408-b057-83e53557513b"
          },
          {
            "reference": "urn:uuid:005f1bcd-885c-48cc-b093-5c77721891e0"
          },
          {
            "reference": "urn:uuid:442c3e93-07c9-4b92-9194-ec893e5925a3"
          },
          {
            "reference": "urn:uuid:dee75dce-39db-404b-903b-365c84c48d89"
          },
          {
            "reference": "urn:uuid:c8bb93f1-7f41-40d6-9bb3-81820e71da77"
          },
          {
            "reference": "urn:uuid:962124d1-f728-4523-a9d0-ce0a52ef8ab8"
          },
          {
            "reference": "urn:uuid:897f2861-c93d-4263-9821-d405ea58c636"
          },
          {
            "reference": "urn:uuid:aecc5ab3-4932-410c-a359-0fd1b805e969"
          },
          {
            "reference": "urn:uuid:6e7616e2-24c6-48ee-b577-56d43623f4a7"
          },
          {
            "reference": "urn:uuid:5d617c50-3dcf-410e-b016-43eb167ae8cd"
          },
          {
            "reference": "urn:uuid:3d0fb1b3-9bb0-480d-9148-80c5e5ac1037"
          },
          {
            "reference": "urn:uuid:a41ce3b3-286c-4b32-a147-1b78ef06ee11"
          },
          {
            "reference": "urn:uuid:777e65fc-62f7-491e-8964-f56a481c161e"
          },
          {
            "reference": "urn:uuid:8f8331c8-53a9-427d-8cdb-08731ca6dec0"
          },
          {
            "reference": "urn:uuid:13022bf9-8a99-40b3-af01-f889802d7021"
          },
          {
            "reference": "urn:uuid:b09a869b-eadc-4d57-9d0c-cc920ceee982"
          },
          {
            "reference": "urn:uuid:6502b353-e71f-482a-8ed3-2dc72f270cff"
          },
          {
            "reference": "urn:uuid:57a569d4-63e1-4a9f-a8ae-9f0aa50997bb"
          },
          {
            "reference": "urn:uuid:83c51515-af0d-4322-9bad-0f4ceee87fb8"
          },
          {
            "reference": "urn:uuid:71e3c6f3-02e4-406f-ac26-0b79141c2925"
          },
          {
            "reference": "urn:uuid:97f9b14e-65ca-4916-8273-fed3909db55d"
          },
          {
            "reference": "urn:uuid:1e6b341a-5276-4038-940b-0ef580242447"
          },
          {
            "reference": "urn:uuid:6f9e783b-dcc9-4f13-8884-96e24946dfaa"
          },
          {
            "reference": "urn:uuid:77983e74-a853-424b-b2f5-c901f8d3af2d"
          },
          {
            "reference": "urn:uuid:3b7dae08-ed6f-4693-914e-4dfa494db6bc"
          },
          {
            "reference": "urn:uuid:7d042100-3b47-4ba2-afeb-fec7453ed4f6"
          },
          {
            "reference": "urn:uuid:c3b4caa0-43cd-4f51-ac87-321ee287d634"
          },
          {
            "reference": "urn:uuid:ef1a1bc6-cfd6-4f34-a42f-86081f775754"
          }
        ],
        "status": "registered",
        "code": {
          "coding": [
            {
              "code": "11502-2",
              "system": "http://loinc.org",
              "display": "Laboratory report"
            }
          ]
        },
        "subject": {
          "reference": "urn:uuid:a55d339e-5cee-43e1-8ab5-1c057b31bc1e",
          "display": "Meaghan Neary"
        }
      }
    },
    {
      "fullUrl": "urn:uuid:a55d339e-5cee-43e1-8ab5-1c057b31bc1e",
      "resource": {
        "resourceType": "Patient",
        "id": "a55d339e-5cee-43e1-8ab5-1c057b31bc1e",
        "meta": {
          "security": [
            {
              "system": "http://terminology.hl7.org/CodeSystem/v3-ActReason",
              "code": "HTEST"
            },
            {
              "system": "http://terminology.hl7.org/CodeSystem/v3-ActReason",
              "code": "TRAIN"
            }
          ],
          "tag": [
            {
              "system": "https://synderai.net/fhir/CodeSystem/tags",
              "code": "synthetic",
              "display": "SYNDERAI Synthetic data"
            }
          ],
          "profile": [
            "http://hl7.eu/fhir/base/StructureDefinition/patient-eu-core"
          ]
        },
        "identifier": [
          {
            "type": {
              "coding": [
                {
                  "code": "PT",
                  "system": "http://terminology.hl7.org/CodeSystem/v2-0203"
                }
              ]
            },
            "system": "http://ec.europa.eu/identifier/eci",
            "value": "1586-567257-8"
          },
          {
            "type": {
              "coding": [
                {
                  "code": "MR",
                  "system": "http://terminology.hl7.org/CodeSystem/v2-0203"
                }
              ]
            },
            "system": "http://local.setting.eu/identifier",
            "value": "443e6379-f231-b364-3ccb-644740a1aa2a"
          }
        ],
        "name": [
          {
            "family": "Neary"
          },
          {
            "given": [
              "Meaghan"
            ]
          },
          {
            "text": "Meaghan Neary"
          }
        ],
        "address": [
          {
            "line": [
              "64 Linskey Street"
            ],
            "use": "home",
            "type": "physical",
            "postalCode": "D02",
            "city": "Dublin",
            "country": "Ireland"
          }
        ],
        "telecom": [
          {
            "system": "phone",
            "value": "001-967-573-0911x465"
          }
        ],
        "extension": [
          {
            "url": "http://hl7.org/fhir/StructureDefinition/patient-nationality",
            "valueCodeableConcept": {
              "coding": [
                {
                  "code": "IE",
                  "system": "http://hl7.org/fhir/ValueSet/country"
                }
              ]
            }
          }
        ],
        "text": {
          "status": "generated",
          "div": "<div xmlns=\"http://www.w3.org/1999/xhtml\"><table class=\"hl7__ips\"><tr><td>Meaghan Neary</td><td>female</td><td>19-Dec-1960</td></tr></table></div>"
        },
        "gender": "female",
        "birthDate": "1960-12-19"
      }
    },
    {
      "fullUrl": "urn:uuid:df7ab32d-1946-455c-893f-a3e38137fe31",
      "resource": {
        "resourceType": "ServiceRequest",
        "id": "df7ab32d-1946-455c-893f-a3e38137fe31",
        "meta": {
          "profile": [
            "http://hl7.eu/fhir/laboratory/StructureDefinition/ServiceRequest-eu-lab"
          ]
        },
        "identifier": [
          {
            "system": "http://example.org",
            "value": "81c77f8a-2c79-4693-8df8-a432c12a07e8"
          }
        ],
        "specimen": [
          {
            "reference": "urn:uuid:09253076-d372-46ee-abc9-2b3a6985e01a"
          },
          {
            "reference": "urn:uuid:cb932dd5-0369-484e-9e48-63aa0c649992"
          },
          {
            "reference": "urn:uuid:f7b6bd97-8d2b-407b-96f5-64fee207d3e0"
          }
        ],
        "reasonCode": [
          {
            "coding": [
              {
                "code": "55822004",
                "system": "http://snomed.info/sct",
                "display": "Hyperlipidemia"
              }
            ]
          },
          {
            "coding": [
              {
                "code": "433144002",
                "system": "http://snomed.info/sct",
                "display": "Chronic kidney disease stage 3"
              }
            ]
          },
          {
            "coding": [
              {
                "code": "157141000119108",
                "system": "http://snomed.info/sct",
                "display": "Proteinuria due to type 2 diabetes mellitus"
              }
            ]
          },
          {
            "coding": [
              {
                "code": "431856006",
                "system": "http://snomed.info/sct",
                "display": "Chronic kidney disease stage 2"
              }
            ]
          },
          {
            "coding": [
              {
                "code": "90781000119102",
                "system": "http://snomed.info/sct",
                "display": "Microalbuminuria due to type 2 diabetes mellitus"
              }
            ]
          },
          {
            "coding": [
              {
                "code": "127013003",
                "system": "http://snomed.info/sct",
                "display": "Disorder of kidney due to diabetes mellitus"
              }
            ]
          },
          {
            "coding": [
              {
                "code": "431855005",
                "system": "http://snomed.info/sct",
                "display": "Chronic kidney disease stage 1"
              }
            ]
          },
          {
            "coding": [
              {
                "code": "237602007",
                "system": "http://snomed.info/sct",
                "display": "Metabolic syndrome X"
              }
            ]
          },
          {
            "coding": [
              {
                "code": "271737000",
                "system": "http://snomed.info/sct",
                "display": "Anemia"
              }
            ]
          },
          {
            "coding": [
              {
                "code": "15777000",
                "system": "http://snomed.info/sct",
                "display": "Prediabetes"
              }
            ]
          },
          {
            "coding": [
              {
                "code": "59621000",
                "system": "http://snomed.info/sct",
                "display": "Essential hypertension"
              }
            ]
          }
        ],
        "status": "active",
        "intent": "order",
        "code": {
          "coding": [
            {
              "code": "108252007",
              "system": "http://snomed.info/sct",
              "display": "Laboratory procedure"
            }
          ]
        },
        "subject": {
          "reference": "urn:uuid:a55d339e-5cee-43e1-8ab5-1c057b31bc1e",
          "display": "Meaghan Neary"
        },
        "requester": {
          "reference": "urn:uuid:9646e511-402e-48c4-818d-ce302bf7cad9"
        }
      }
    },
    {
      "fullUrl": "urn:uuid:9646e511-402e-48c4-818d-ce302bf7cad9",
      "resource": {
        "resourceType": "PractitionerRole",
        "id": "9646e511-402e-48c4-818d-ce302bf7cad9",
        "meta": {
          "profile": [
            "http://hl7.eu/fhir/base/StructureDefinition/practitionerRole-eu"
          ]
        },
        "text": {
          "status": "generated",
          "div": "<div xmlns=\"http://www.w3.org/1999/xhtml\">Provider Role Id: 9646e511-402e-48c4-818d-ce302bf7cad9</div>"
        },
        "organization": {
          "reference": "urn:uuid:9a596bfd-36ef-41a0-8fdd-5087d001519f"
        }
      }
    },
    {
      "fullUrl": "urn:uuid:9a596bfd-36ef-41a0-8fdd-5087d001519f",
      "resource": {
        "resourceType": "Organization",
        "id": "9a596bfd-36ef-41a0-8fdd-5087d001519f",
        "meta": {
          "profile": [
            "http://hl7.eu/fhir/base/StructureDefinition/organization-eu"
          ]
        },
        "identifier": [
          {
            "assigner": {
              "display": "HL7 Europe"
            },
            "system": "urn:oid:2.16.840.1.113883.2.51.999",
            "value": "c680af17-074b-46db-9a18-aec9f0eb24cf"
          }
        ],
        "address": [
          {
            "line": [
              "Parnell Square West nan"
            ],
            "city": "Dublin",
            "postalCode": "D01",
            "country": "Ireland"
          }
        ],
        "text": {
          "status": "generated",
          "div": "<div xmlns=\"http://www.w3.org/1999/xhtml\">Provider Organization: Rotunda Hospital</div>"
        },
        "name": "Rotunda Hospital"
      }
    },
    {
      "fullUrl": "urn:uuid:09253076-d372-46ee-abc9-2b3a6985e01a",
      "resource": {
        "resourceType": "Specimen",
        "id": "09253076-d372-46ee-abc9-2b3a6985e01a",
        "meta": {
          "profile": [
            "http://hl7.eu/fhir/laboratory/StructureDefinition/Specimen-eu-lab"
          ]
        },
        "collection": {
          "collectedDateTime": "2022-10-03"
        },
        "text": {
          "status": "generated",
          "div": "<div xmlns=\"http://www.w3.org/1999/xhtml\"><table class=\"hl7__eu__lab__report\"><tr><th>Specimen</th><th>Collection Date</th></tr><tr><td>Acellular blood (serum or plasma) specimen</td><td><span class=\"nb\">03-Oct-2022</span></td></tr></table></div>"
        },
        "type": {
          "coding": [
            {
              "code": "122592007",
              "system": "http://snomed.info/sct",
              "display": "Acellular blood (serum or plasma) specimen"
            }
          ]
        }
      }
    },
    {
      "fullUrl": "urn:uuid:cb932dd5-0369-484e-9e48-63aa0c649992",
      "resource": {
        "resourceType": "Specimen",
        "id": "cb932dd5-0369-484e-9e48-63aa0c649992",
        "meta": {
          "profile": [
            "http://hl7.eu/fhir/laboratory/StructureDefinition/Specimen-eu-lab"
          ]
        },
        "collection": {
          "collectedDateTime": "2022-10-03"
        },
        "text": {
          "status": "generated",
          "div": "<div xmlns=\"http://www.w3.org/1999/xhtml\"><table class=\"hl7__eu__lab__report\"><tr><th>Specimen</th><th>Collection Date</th></tr><tr><td>Urine specimen</td><td><span class=\"nb\">03-Oct-2022</span></td></tr></table></div>"
        },
        "type": {
          "coding": [
            {
              "code": "122575003",
              "system": "http://snomed.info/sct",
              "display": "Urine specimen"
            }
          ]
        }
      }
    },
    {
      "fullUrl": "urn:uuid:f7b6bd97-8d2b-407b-96f5-64fee207d3e0",
      "resource": {
        "resourceType": "Specimen",
        "id": "f7b6bd97-8d2b-407b-96f5-64fee207d3e0",
        "meta": {
          "profile": [
            "http://hl7.eu/fhir/laboratory/StructureDefinition/Specimen-eu-lab"
          ]
        },
        "collection": {
          "collectedDateTime": "2022-10-03"
        },
        "text": {
          "status": "generated",
          "div": "<div xmlns=\"http://www.w3.org/1999/xhtml\"><table class=\"hl7__eu__lab__report\"><tr><th>Specimen</th><th>Collection Date</th></tr><tr><td>Whole blood specimen (specimen)</td><td><span class=\"nb\">03-Oct-2022</span></td></tr></table></div>"
        },
        "type": {
          "coding": [
            {
              "code": "258580003",
              "system": "http://snomed.info/sct",
              "display": "Whole blood specimen (specimen)"
            }
          ]
        }
      }
    },
    {
      "fullUrl": "urn:uuid:c0afb5cd-9dd7-496e-aa47-7637625371fc",
      "resource": {
        "resourceType": "Observation",
        "id": "c0afb5cd-9dd7-496e-aa47-7637625371fc",
        "meta": {
          "profile": [
            "http://hl7.eu/fhir/laboratory/StructureDefinition/Observation-resultslab-eu-lab"
          ]
        },
        "performer": [
          {
            "display": "The Central European Lab"
          }
        ],
        "category": [
          {
            "coding": [
              {
                "system": "http://terminology.hl7.org/CodeSystem/observation-category",
                "code": "laboratory"
              }
            ]
          }
        ],
        "code": {
          "coding": [
            {
              "code": "2345-7",
              "system": "http://loinc.org",
              "display": "Glucose [Mass/volume] in Serum or Plasma"
            }
          ],
          "text": "Glucose [Mass/volume] in Serum or Plasma"
        },
        "valueQuantity": {
          "system": "http://unitsofmeasure.org",
          "value": 91.6,
          "unit": "mg/dL",
          "code": "mg/dL"
        },
        "referenceRange": [
          {
            "low": {
              "value": 70,
              "code": "mg/dL",
              "system": "http://unitsofmeasure.org"
            }
          },
          {
            "high": {
              "value": 99,
              "code": "mg/dL",
              "system": "http://unitsofmeasure.org"
            }
          }
        ],
        "text": {
          "status": "generated",
          "div": "<div xmlns=\"http://www.w3.org/1999/xhtml\"><table class=\"hl7__eu__lab__report\"><tr><th>Test</th><th>04-Oct-2022</th><th>Reference&#xA0;Range</th><th>Unit</th></tr><tr><td>Glucose [Mass/volume] in Serum or Plasma</td><td>91.6</td><td>70 - 99</td><td></td><td>mg/dL</td></tr></table></div>"
        },
        "status": "final",
        "subject": {
          "reference": "urn:uuid:a55d339e-5cee-43e1-8ab5-1c057b31bc1e",
          "display": "Meaghan Neary"
        },
        "effectiveDateTime": "2022-10-03T22:11:04Z",
        "specimen": {
          "reference": "urn:uuid:09253076-d372-46ee-abc9-2b3a6985e01a"
        }
      }
    },
    {
      "fullUrl": "urn:uuid:938becda-9ef1-4a43-a241-c31eb0e17610",
      "resource": {
        "resourceType": "Observation",
        "id": "938becda-9ef1-4a43-a241-c31eb0e17610",
        "meta": {
          "profile": [
            "http://hl7.eu/fhir/laboratory/StructureDefinition/Observation-resultslab-eu-lab"
          ]
        },
        "performer": [
          {
            "display": "The Central European Lab"
          }
        ],
        "category": [
          {
            "coding": [
              {
                "system": "http://terminology.hl7.org/CodeSystem/observation-category",
                "code": "laboratory"
              }
            ]
          }
        ],
        "code": {
          "coding": [
            {
              "code": "3094-0",
              "system": "http://loinc.org",
              "display": "Urea nitrogen [Mass/volume] in Serum or Plasma"
            }
          ],
          "text": "Urea nitrogen [Mass/volume] in Serum or Plasma"
        },
        "valueQuantity": {
          "system": "http://unitsofmeasure.org",
          "value": 12.9,
          "unit": "mg/dL",
          "code": "mg/dL"
        },
        "referenceRange": [
          {
            "low": {
              "value": 7,
              "code": "mg/dL",
              "system": "http://unitsofmeasure.org"
            }
          },
          {
            "high": {
              "value": 50,
              "code": "mg/dL",
              "system": "http://unitsofmeasure.org"
            }
          }
        ],
        "text": {
          "status": "generated",
          "div": "<div xmlns=\"http://www.w3.org/1999/xhtml\"><table class=\"hl7__eu__lab__report\"><tr><th>Test</th><th>04-Oct-2022</th><th>Reference&#xA0;Range</th><th>Unit</th></tr><tr><td>Urea nitrogen [Mass/volume] in Serum or Plasma</td><td>12.9</td><td>7 - 50</td><td></td><td>mg/dL</td></tr></table></div>"
        },
        "status": "final",
        "subject": {
          "reference": "urn:uuid:a55d339e-5cee-43e1-8ab5-1c057b31bc1e",
          "display": "Meaghan Neary"
        },
        "effectiveDateTime": "2022-10-03T22:11:04Z",
        "specimen": {
          "reference": "urn:uuid:09253076-d372-46ee-abc9-2b3a6985e01a"
        }
      }
    },
    {
      "fullUrl": "urn:uuid:59028d84-5121-44a6-9248-425f7d98f191",
      "resource": {
        "resourceType": "Observation",
        "id": "59028d84-5121-44a6-9248-425f7d98f191",
        "meta": {
          "profile": [
            "http://hl7.eu/fhir/laboratory/StructureDefinition/Observation-resultslab-eu-lab"
          ]
        },
        "performer": [
          {
            "display": "The Central European Lab"
          }
        ],
        "category": [
          {
            "coding": [
              {
                "system": "http://terminology.hl7.org/CodeSystem/observation-category",
                "code": "laboratory"
              }
            ]
          }
        ],
        "code": {
          "coding": [
            {
              "code": "2160-0",
              "system": "http://loinc.org",
              "display": "Creatinine [Mass/volume] in Serum or Plasma"
            }
          ],
          "text": "Creatinine [Mass/volume] in Serum or Plasma"
        },
        "valueQuantity": {
          "system": "http://unitsofmeasure.org",
          "value": 2,
          "unit": "mg/dL",
          "code": "mg/dL"
        },
        "referenceRange": [
          {
            "low": {
              "value": 0.6,
              "code": "mg/dL",
              "system": "http://unitsofmeasure.org"
            }
          },
          {
            "high": {
              "value": 1.1,
              "code": "mg/dL",
              "system": "http://unitsofmeasure.org"
            }
          }
        ],
        "interpretation": [
          {
            "coding": [
              {
                "code": "H",
                "system": "http://terminology.hl7.org/CodeSystem/v3-ObservationInterpretation",
                "display": "High"
              }
            ]
          }
        ],
        "text": {
          "status": "generated",
          "div": "<div xmlns=\"http://www.w3.org/1999/xhtml\"><table class=\"hl7__eu__lab__report\"><tr><th>Test</th><th>04-Oct-2022</th><th>Reference&#xA0;Range</th><th>Unit</th></tr><tr><td>Creatinine [Mass/volume] in Serum or Plasma</td><td>2.0</td><td>0.6 - 1.1</td><td>H</td><td>mg/dL</td></tr></table></div>"
        },
        "status": "final",
        "subject": {
          "reference": "urn:uuid:a55d339e-5cee-43e1-8ab5-1c057b31bc1e",
          "display": "Meaghan Neary"
        },
        "effectiveDateTime": "2022-10-03T22:11:04Z",
        "specimen": {
          "reference": "urn:uuid:09253076-d372-46ee-abc9-2b3a6985e01a"
        }
      }
    },
    {
      "fullUrl": "urn:uuid:7367bd03-6e16-4319-b928-78b25e6b974e",
      "resource": {
        "resourceType": "Observation",
        "id": "7367bd03-6e16-4319-b928-78b25e6b974e",
        "meta": {
          "profile": [
            "http://hl7.eu/fhir/laboratory/StructureDefinition/Observation-resultslab-eu-lab"
          ]
        },
        "performer": [
          {
            "display": "The Central European Lab"
          }
        ],
        "category": [
          {
            "coding": [
              {
                "system": "http://terminology.hl7.org/CodeSystem/observation-category",
                "code": "laboratory"
              }
            ]
          }
        ],
        "code": {
          "coding": [
            {
              "code": "17861-6",
              "system": "http://loinc.org",
              "display": "Calcium [Mass/volume] in Serum or Plasma"
            }
          ],
          "text": "Calcium [Mass/volume] in Serum or Plasma"
        },
        "valueQuantity": {
          "system": "http://unitsofmeasure.org",
          "value": 8.6,
          "unit": "mg/dL",
          "code": "mg/dL"
        },
        "referenceRange": [
          {
            "low": {
              "value": 8.6,
              "code": "mg/dL",
              "system": "http://unitsofmeasure.org"
            }
          },
          {
            "high": {
              "value": 10.4,
              "code": "mg/dL",
              "system": "http://unitsofmeasure.org"
            }
          }
        ],
        "text": {
          "status": "generated",
          "div": "<div xmlns=\"http://www.w3.org/1999/xhtml\"><table class=\"hl7__eu__lab__report\"><tr><th>Test</th><th>04-Oct-2022</th><th>Reference&#xA0;Range</th><th>Unit</th></tr><tr><td>Calcium [Mass/volume] in Serum or Plasma</td><td>8.6</td><td>8.6 - 10.4</td><td></td><td>mg/dL</td></tr></table></div>"
        },
        "status": "final",
        "subject": {
          "reference": "urn:uuid:a55d339e-5cee-43e1-8ab5-1c057b31bc1e",
          "display": "Meaghan Neary"
        },
        "effectiveDateTime": "2022-10-03T22:11:04Z",
        "specimen": {
          "reference": "urn:uuid:09253076-d372-46ee-abc9-2b3a6985e01a"
        }
      }
    },
    {
      "fullUrl": "urn:uuid:9b993deb-7201-4c52-9685-d4e3d01f245b",
      "resource": {
        "resourceType": "Observation",
        "id": "9b993deb-7201-4c52-9685-d4e3d01f245b",
        "meta": {
          "profile": [
            "http://hl7.eu/fhir/laboratory/StructureDefinition/Observation-resultslab-eu-lab"
          ]
        },
        "performer": [
          {
            "display": "The Central European Lab"
          }
        ],
        "category": [
          {
            "coding": [
              {
                "system": "http://terminology.hl7.org/CodeSystem/observation-category",
                "code": "laboratory"
              }
            ]
          }
        ],
        "code": {
          "coding": [
            {
              "code": "2951-2",
              "system": "http://loinc.org",
              "display": "Sodium [Moles/volume] in Serum or Plasma"
            }
          ],
          "text": "Sodium [Moles/volume] in Serum or Plasma"
        },
        "valueQuantity": {
          "system": "http://unitsofmeasure.org",
          "value": 141.4,
          "unit": "mmol/L",
          "code": "mmol/L"
        },
        "referenceRange": [
          {
            "low": {
              "value": 135,
              "code": "mmol/L",
              "system": "http://unitsofmeasure.org"
            }
          },
          {
            "high": {
              "value": 145,
              "code": "mmol/L",
              "system": "http://unitsofmeasure.org"
            }
          }
        ],
        "text": {
          "status": "generated",
          "div": "<div xmlns=\"http://www.w3.org/1999/xhtml\"><table class=\"hl7__eu__lab__report\"><tr><th>Test</th><th>04-Oct-2022</th><th>Reference&#xA0;Range</th><th>Unit</th></tr><tr><td>Sodium [Moles/volume] in Serum or Plasma</td><td>141.4</td><td>135 - 145</td><td></td><td>mmol/L</td></tr></table></div>"
        },
        "status": "final",
        "subject": {
          "reference": "urn:uuid:a55d339e-5cee-43e1-8ab5-1c057b31bc1e",
          "display": "Meaghan Neary"
        },
        "effectiveDateTime": "2022-10-03T22:11:04Z",
        "specimen": {
          "reference": "urn:uuid:09253076-d372-46ee-abc9-2b3a6985e01a"
        }
      }
    },
    {
      "fullUrl": "urn:uuid:3d8da083-fa35-4935-a862-7a58404eb58b",
      "resource": {
        "resourceType": "Observation",
        "id": "3d8da083-fa35-4935-a862-7a58404eb58b",
        "meta": {
          "profile": [
            "http://hl7.eu/fhir/laboratory/StructureDefinition/Observation-resultslab-eu-lab"
          ]
        },
        "performer": [
          {
            "display": "The Central European Lab"
          }
        ],
        "category": [
          {
            "coding": [
              {
                "system": "http://terminology.hl7.org/CodeSystem/observation-category",
                "code": "laboratory"
              }
            ]
          }
        ],
        "code": {
          "coding": [
            {
              "code": "2823-3",
              "system": "http://loinc.org",
              "display": "Potassium [Moles/volume] in Serum or Plasma"
            }
          ],
          "text": "Potassium [Moles/volume] in Serum or Plasma"
        },
        "valueQuantity": {
          "system": "http://unitsofmeasure.org",
          "value": 4,
          "unit": "mmol/L",
          "code": "mmol/L"
        },
        "referenceRange": [
          {
            "low": {
              "value": 3.5,
              "code": "mmol/L",
              "system": "http://unitsofmeasure.org"
            }
          },
          {
            "high": {
              "value": 5.1,
              "code": "mmol/L",
              "system": "http://unitsofmeasure.org"
            }
          }
        ],
        "text": {
          "status": "generated",
          "div": "<div xmlns=\"http://www.w3.org/1999/xhtml\"><table class=\"hl7__eu__lab__report\"><tr><th>Test</th><th>04-Oct-2022</th><th>Reference&#xA0;Range</th><th>Unit</th></tr><tr><td>Potassium [Moles/volume] in Serum or Plasma</td><td>4.0</td><td>3.5 - 5.1</td><td></td><td>mmol/L</td></tr></table></div>"
        },
        "status": "final",
        "subject": {
          "reference": "urn:uuid:a55d339e-5cee-43e1-8ab5-1c057b31bc1e",
          "display": "Meaghan Neary"
        },
        "effectiveDateTime": "2022-10-03T22:11:04Z",
        "specimen": {
          "reference": "urn:uuid:09253076-d372-46ee-abc9-2b3a6985e01a"
        }
      }
    },
    {
      "fullUrl": "urn:uuid:001a63fa-0c6f-4408-b057-83e53557513b",
      "resource": {
        "resourceType": "Observation",
        "id": "001a63fa-0c6f-4408-b057-83e53557513b",
        "meta": {
          "profile": [
            "http://hl7.eu/fhir/laboratory/StructureDefinition/Observation-resultslab-eu-lab"
          ]
        },
        "performer": [
          {
            "display": "The Central European Lab"
          }
        ],
        "category": [
          {
            "coding": [
              {
                "system": "http://terminology.hl7.org/CodeSystem/observation-category",
                "code": "laboratory"
              }
            ]
          }
        ],
        "code": {
          "coding": [
            {
              "code": "2075-0",
              "system": "http://loinc.org",
              "display": "Chloride [Moles/volume] in Serum or Plasma"
            }
          ],
          "text": "Chloride [Moles/volume] in Serum or Plasma"
        },
        "valueQuantity": {
          "system": "http://unitsofmeasure.org",
          "value": 108.2,
          "unit": "mmol/L",
          "code": "mmol/L"
        },
        "referenceRange": [
          {
            "low": {
              "value": 98,
              "code": "mmol/L",
              "system": "http://unitsofmeasure.org"
            }
          },
          {
            "high": {
              "value": 108,
              "code": "mmol/L",
              "system": "http://unitsofmeasure.org"
            }
          }
        ],
        "interpretation": [
          {
            "coding": [
              {
                "code": "H",
                "system": "http://terminology.hl7.org/CodeSystem/v3-ObservationInterpretation",
                "display": "High"
              }
            ]
          }
        ],
        "text": {
          "status": "generated",
          "div": "<div xmlns=\"http://www.w3.org/1999/xhtml\"><table class=\"hl7__eu__lab__report\"><tr><th>Test</th><th>04-Oct-2022</th><th>Reference&#xA0;Range</th><th>Unit</th></tr><tr><td>Chloride [Moles/volume] in Serum or Plasma</td><td>108.2</td><td>98 - 108</td><td>H</td><td>mmol/L</td></tr></table></div>"
        },
        "status": "final",
        "subject": {
          "reference": "urn:uuid:a55d339e-5cee-43e1-8ab5-1c057b31bc1e",
          "display": "Meaghan Neary"
        },
        "effectiveDateTime": "2022-10-03T22:11:04Z",
        "specimen": {
          "reference": "urn:uuid:09253076-d372-46ee-abc9-2b3a6985e01a"
        }
      }
    },
    {
      "fullUrl": "urn:uuid:005f1bcd-885c-48cc-b093-5c77721891e0",
      "resource": {
        "resourceType": "Observation",
        "id": "005f1bcd-885c-48cc-b093-5c77721891e0",
        "meta": {
          "profile": [
            "http://hl7.eu/fhir/laboratory/StructureDefinition/Observation-resultslab-eu-lab"
          ]
        },
        "performer": [
          {
            "display": "The Central European Lab"
          }
        ],
        "category": [
          {
            "coding": [
              {
                "system": "http://terminology.hl7.org/CodeSystem/observation-category",
                "code": "laboratory"
              }
            ]
          }
        ],
        "code": {
          "coding": [
            {
              "code": "2028-9",
              "system": "http://loinc.org",
              "display": "Carbon dioxide, total [Moles/volume] in Serum or Plasma"
            }
          ],
          "text": "Carbon dioxide, total [Moles/volume] in Serum or Plasma"
        },
        "valueQuantity": {
          "system": "http://unitsofmeasure.org",
          "value": 25.6,
          "unit": "mmol/L",
          "code": "mmol/L"
        },
        "referenceRange": [
          {
            "low": {
              "value": 22,
              "code": "mmol/L",
              "system": "http://unitsofmeasure.org"
            }
          },
          {
            "high": {
              "value": 32,
              "code": "mmol/L",
              "system": "http://unitsofmeasure.org"
            }
          }
        ],
        "text": {
          "status": "generated",
          "div": "<div xmlns=\"http://www.w3.org/1999/xhtml\"><table class=\"hl7__eu__lab__report\"><tr><th>Test</th><th>04-Oct-2022</th><th>Reference&#xA0;Range</th><th>Unit</th></tr><tr><td>Carbon dioxide, total [Moles/volume] in Serum or Plasma</td><td>25.6</td><td>22 - 32</td><td></td><td>mmol/L</td></tr></table></div>"
        },
        "status": "final",
        "subject": {
          "reference": "urn:uuid:a55d339e-5cee-43e1-8ab5-1c057b31bc1e",
          "display": "Meaghan Neary"
        },
        "effectiveDateTime": "2022-10-03T22:11:04Z",
        "specimen": {
          "reference": "urn:uuid:09253076-d372-46ee-abc9-2b3a6985e01a"
        }
      }
    },
    {
      "fullUrl": "urn:uuid:442c3e93-07c9-4b92-9194-ec893e5925a3",
      "resource": {
        "resourceType": "Observation",
        "id": "442c3e93-07c9-4b92-9194-ec893e5925a3",
        "meta": {
          "profile": [
            "http://hl7.eu/fhir/laboratory/StructureDefinition/Observation-resultslab-eu-lab"
          ]
        },
        "performer": [
          {
            "display": "The Central European Lab"
          }
        ],
        "category": [
          {
            "coding": [
              {
                "system": "http://terminology.hl7.org/CodeSystem/observation-category",
                "code": "laboratory"
              }
            ]
          }
        ],
        "code": {
          "coding": [
            {
              "code": "5767-9",
              "system": "http://loinc.org",
              "display": "Appearance of Urine"
            }
          ],
          "text": "Appearance of Urine"
        },
        "text": {
          "status": "generated",
          "div": "<div xmlns=\"http://www.w3.org/1999/xhtml\"><table class=\"hl7__eu__lab__report\"><tr><th>Test</th><th>04-Oct-2022</th><th>Reference&#xA0;Range</th><th>Unit</th></tr><tr><td>Appearance of Urine</td></tr></table></div>"
        },
        "status": "final",
        "subject": {
          "reference": "urn:uuid:a55d339e-5cee-43e1-8ab5-1c057b31bc1e",
          "display": "Meaghan Neary"
        },
        "effectiveDateTime": "2022-10-03T22:11:04Z",
        "specimen": {
          "reference": "urn:uuid:cb932dd5-0369-484e-9e48-63aa0c649992"
        }
      }
    },
    {
      "fullUrl": "urn:uuid:dee75dce-39db-404b-903b-365c84c48d89",
      "resource": {
        "resourceType": "Observation",
        "id": "dee75dce-39db-404b-903b-365c84c48d89",
        "meta": {
          "profile": [
            "http://hl7.eu/fhir/laboratory/StructureDefinition/Observation-resultslab-eu-lab"
          ]
        },
        "performer": [
          {
            "display": "The Central European Lab"
          }
        ],
        "category": [
          {
            "coding": [
              {
                "system": "http://terminology.hl7.org/CodeSystem/observation-category",
                "code": "laboratory"
              }
            ]
          }
        ],
        "code": {
          "coding": [
            {
              "code": "34533-0",
              "system": "http://loinc.org",
              "display": "Odor of Urine"
            }
          ],
          "text": "Odor of Urine"
        },
        "text": {
          "status": "generated",
          "div": "<div xmlns=\"http://www.w3.org/1999/xhtml\"><table class=\"hl7__eu__lab__report\"><tr><th>Test</th><th>04-Oct-2022</th><th>Reference&#xA0;Range</th><th>Unit</th></tr><tr><td>Odor of Urine</td></tr></table></div>"
        },
        "status": "final",
        "subject": {
          "reference": "urn:uuid:a55d339e-5cee-43e1-8ab5-1c057b31bc1e",
          "display": "Meaghan Neary"
        },
        "effectiveDateTime": "2022-10-03T22:11:04Z",
        "specimen": {
          "reference": "urn:uuid:cb932dd5-0369-484e-9e48-63aa0c649992"
        }
      }
    },
    {
      "fullUrl": "urn:uuid:c8bb93f1-7f41-40d6-9bb3-81820e71da77",
      "resource": {
        "resourceType": "Observation",
        "id": "c8bb93f1-7f41-40d6-9bb3-81820e71da77",
        "meta": {
          "profile": [
            "http://hl7.eu/fhir/laboratory/StructureDefinition/Observation-resultslab-eu-lab"
          ]
        },
        "performer": [
          {
            "display": "The Central European Lab"
          }
        ],
        "category": [
          {
            "coding": [
              {
                "system": "http://terminology.hl7.org/CodeSystem/observation-category",
                "code": "laboratory"
              }
            ]
          }
        ],
        "code": {
          "coding": [
            {
              "code": "32167-9",
              "system": "http://loinc.org",
              "display": "Clarity of Urine"
            }
          ],
          "text": "Clarity of Urine"
        },
        "text": {
          "status": "generated",
          "div": "<div xmlns=\"http://www.w3.org/1999/xhtml\"><table class=\"hl7__eu__lab__report\"><tr><th>Test</th><th>04-Oct-2022</th><th>Reference&#xA0;Range</th><th>Unit</th></tr><tr><td>Clarity of Urine</td></tr></table></div>"
        },
        "status": "final",
        "subject": {
          "reference": "urn:uuid:a55d339e-5cee-43e1-8ab5-1c057b31bc1e",
          "display": "Meaghan Neary"
        },
        "effectiveDateTime": "2022-10-03T22:11:04Z",
        "specimen": {
          "reference": "urn:uuid:cb932dd5-0369-484e-9e48-63aa0c649992"
        }
      }
    },
    {
      "fullUrl": "urn:uuid:962124d1-f728-4523-a9d0-ce0a52ef8ab8",
      "resource": {
        "resourceType": "Observation",
        "id": "962124d1-f728-4523-a9d0-ce0a52ef8ab8",
        "meta": {
          "profile": [
            "http://hl7.eu/fhir/laboratory/StructureDefinition/Observation-resultslab-eu-lab"
          ]
        },
        "performer": [
          {
            "display": "The Central European Lab"
          }
        ],
        "category": [
          {
            "coding": [
              {
                "system": "http://terminology.hl7.org/CodeSystem/observation-category",
                "code": "laboratory"
              }
            ]
          }
        ],
        "code": {
          "coding": [
            {
              "code": "5778-6",
              "system": "http://loinc.org",
              "display": "Color of Urine"
            }
          ],
          "text": "Color of Urine"
        },
        "text": {
          "status": "generated",
          "div": "<div xmlns=\"http://www.w3.org/1999/xhtml\"><table class=\"hl7__eu__lab__report\"><tr><th>Test</th><th>04-Oct-2022</th><th>Reference&#xA0;Range</th><th>Unit</th></tr><tr><td>Color of Urine</td></tr></table></div>"
        },
        "status": "final",
        "subject": {
          "reference": "urn:uuid:a55d339e-5cee-43e1-8ab5-1c057b31bc1e",
          "display": "Meaghan Neary"
        },
        "effectiveDateTime": "2022-10-03T22:11:04Z",
        "specimen": {
          "reference": "urn:uuid:cb932dd5-0369-484e-9e48-63aa0c649992"
        }
      }
    },
    {
      "fullUrl": "urn:uuid:897f2861-c93d-4263-9821-d405ea58c636",
      "resource": {
        "resourceType": "Observation",
        "id": "897f2861-c93d-4263-9821-d405ea58c636",
        "meta": {
          "profile": [
            "http://hl7.eu/fhir/laboratory/StructureDefinition/Observation-resultslab-eu-lab"
          ]
        },
        "performer": [
          {
            "display": "The Central European Lab"
          }
        ],
        "category": [
          {
            "coding": [
              {
                "system": "http://terminology.hl7.org/CodeSystem/observation-category",
                "code": "laboratory"
              }
            ]
          }
        ],
        "code": {
          "coding": [
            {
              "code": "5792-7",
              "system": "http://loinc.org",
              "display": "Glucose [Mass/volume] in Urine by Test strip"
            }
          ],
          "text": "Glucose [Mass/volume] in Urine by Test strip"
        },
        "valueQuantity": {
          "system": "http://unitsofmeasure.org",
          "value": 1.2,
          "unit": "mg/dL",
          "code": "mg/dL"
        },
        "referenceRange": [
          {
            "low": {
              "value": 0.8,
              "code": "mg/dL",
              "system": "http://unitsofmeasure.org"
            }
          },
          {
            "high": {
              "value": 0,
              "code": "mg/dL",
              "system": "http://unitsofmeasure.org"
            }
          }
        ],
        "interpretation": [
          {
            "coding": [
              {
                "code": "H",
                "system": "http://terminology.hl7.org/CodeSystem/v3-ObservationInterpretation",
                "display": "High"
              }
            ]
          }
        ],
        "text": {
          "status": "generated",
          "div": "<div xmlns=\"http://www.w3.org/1999/xhtml\"><table class=\"hl7__eu__lab__report\"><tr><th>Test</th><th>04-Oct-2022</th><th>Reference&#xA0;Range</th><th>Unit</th></tr><tr><td>Glucose [Mass/volume] in Urine by Test strip</td><td>1.2</td><td>0.8 - 0</td><td>H</td><td>mg/dL</td></tr></table></div>"
        },
        "status": "final",
        "subject": {
          "reference": "urn:uuid:a55d339e-5cee-43e1-8ab5-1c057b31bc1e",
          "display": "Meaghan Neary"
        },
        "effectiveDateTime": "2022-10-03T22:11:04Z",
        "specimen": {
          "reference": "urn:uuid:cb932dd5-0369-484e-9e48-63aa0c649992"
        }
      }
    },
    {
      "fullUrl": "urn:uuid:aecc5ab3-4932-410c-a359-0fd1b805e969",
      "resource": {
        "resourceType": "Observation",
        "id": "aecc5ab3-4932-410c-a359-0fd1b805e969",
        "meta": {
          "profile": [
            "http://hl7.eu/fhir/laboratory/StructureDefinition/Observation-resultslab-eu-lab"
          ]
        },
        "performer": [
          {
            "display": "The Central European Lab"
          }
        ],
        "category": [
          {
            "coding": [
              {
                "system": "http://terminology.hl7.org/CodeSystem/observation-category",
                "code": "laboratory"
              }
            ]
          }
        ],
        "code": {
          "coding": [
            {
              "code": "25428-4",
              "system": "http://loinc.org",
              "display": "Glucose [Presence] in Urine by Test strip"
            }
          ],
          "text": "Glucose [Presence] in Urine by Test strip"
        },
        "text": {
          "status": "generated",
          "div": "<div xmlns=\"http://www.w3.org/1999/xhtml\"><table class=\"hl7__eu__lab__report\"><tr><th>Test</th><th>04-Oct-2022</th><th>Reference&#xA0;Range</th><th>Unit</th></tr><tr><td>Glucose [Presence] in Urine by Test strip</td></tr></table></div>"
        },
        "status": "final",
        "subject": {
          "reference": "urn:uuid:a55d339e-5cee-43e1-8ab5-1c057b31bc1e",
          "display": "Meaghan Neary"
        },
        "effectiveDateTime": "2022-10-03T22:11:04Z",
        "specimen": {
          "reference": "urn:uuid:cb932dd5-0369-484e-9e48-63aa0c649992"
        }
      }
    },
    {
      "fullUrl": "urn:uuid:6e7616e2-24c6-48ee-b577-56d43623f4a7",
      "resource": {
        "resourceType": "Observation",
        "id": "6e7616e2-24c6-48ee-b577-56d43623f4a7",
        "meta": {
          "profile": [
            "http://hl7.eu/fhir/laboratory/StructureDefinition/Observation-resultslab-eu-lab"
          ]
        },
        "performer": [
          {
            "display": "The Central European Lab"
          }
        ],
        "category": [
          {
            "coding": [
              {
                "system": "http://terminology.hl7.org/CodeSystem/observation-category",
                "code": "laboratory"
              }
            ]
          }
        ],
        "code": {
          "coding": [
            {
              "code": "20505-4",
              "system": "http://loinc.org",
              "display": "Bilirubin.total [Mass/volume] in Urine by Test strip"
            }
          ],
          "text": "Bilirubin.total [Mass/volume] in Urine by Test strip"
        },
        "valueQuantity": {
          "system": "http://unitsofmeasure.org",
          "value": 0.5,
          "unit": "mg/dL",
          "code": "mg/dL"
        },
        "referenceRange": [
          {
            "low": {
              "value": 0,
              "code": "mg/dL",
              "system": "http://unitsofmeasure.org"
            }
          },
          {
            "high": {
              "value": 1,
              "code": "mg/dL",
              "system": "http://unitsofmeasure.org"
            }
          }
        ],
        "text": {
          "status": "generated",
          "div": "<div xmlns=\"http://www.w3.org/1999/xhtml\"><table class=\"hl7__eu__lab__report\"><tr><th>Test</th><th>04-Oct-2022</th><th>Reference&#xA0;Range</th><th>Unit</th></tr><tr><td>Bilirubin.total [Mass/volume] in Urine by Test strip</td><td>0.5</td><td>0 - 1</td><td></td><td>mg/dL</td></tr></table></div>"
        },
        "status": "final",
        "subject": {
          "reference": "urn:uuid:a55d339e-5cee-43e1-8ab5-1c057b31bc1e",
          "display": "Meaghan Neary"
        },
        "effectiveDateTime": "2022-10-03T22:11:04Z",
        "specimen": {
          "reference": "urn:uuid:cb932dd5-0369-484e-9e48-63aa0c649992"
        }
      }
    },
    {
      "fullUrl": "urn:uuid:5d617c50-3dcf-410e-b016-43eb167ae8cd",
      "resource": {
        "resourceType": "Observation",
        "id": "5d617c50-3dcf-410e-b016-43eb167ae8cd",
        "meta": {
          "profile": [
            "http://hl7.eu/fhir/laboratory/StructureDefinition/Observation-resultslab-eu-lab"
          ]
        },
        "performer": [
          {
            "display": "The Central European Lab"
          }
        ],
        "category": [
          {
            "coding": [
              {
                "system": "http://terminology.hl7.org/CodeSystem/observation-category",
                "code": "laboratory"
              }
            ]
          }
        ],
        "code": {
          "coding": [
            {
              "code": "5770-3",
              "system": "http://loinc.org",
              "display": "Bilirubin.total [Presence] in Urine by Test strip"
            }
          ],
          "text": "Bilirubin.total [Presence] in Urine by Test strip"
        },
        "text": {
          "status": "generated",
          "div": "<div xmlns=\"http://www.w3.org/1999/xhtml\"><table class=\"hl7__eu__lab__report\"><tr><th>Test</th><th>04-Oct-2022</th><th>Reference&#xA0;Range</th><th>Unit</th></tr><tr><td>Bilirubin.total [Presence] in Urine by Test strip</td></tr></table></div>"
        },
        "status": "final",
        "subject": {
          "reference": "urn:uuid:a55d339e-5cee-43e1-8ab5-1c057b31bc1e",
          "display": "Meaghan Neary"
        },
        "effectiveDateTime": "2022-10-03T22:11:04Z",
        "specimen": {
          "reference": "urn:uuid:cb932dd5-0369-484e-9e48-63aa0c649992"
        }
      }
    },
    {
      "fullUrl": "urn:uuid:3d0fb1b3-9bb0-480d-9148-80c5e5ac1037",
      "resource": {
        "resourceType": "Observation",
        "id": "3d0fb1b3-9bb0-480d-9148-80c5e5ac1037",
        "meta": {
          "profile": [
            "http://hl7.eu/fhir/laboratory/StructureDefinition/Observation-resultslab-eu-lab"
          ]
        },
        "performer": [
          {
            "display": "The Central European Lab"
          }
        ],
        "category": [
          {
            "coding": [
              {
                "system": "http://terminology.hl7.org/CodeSystem/observation-category",
                "code": "laboratory"
              }
            ]
          }
        ],
        "code": {
          "coding": [
            {
              "code": "5797-6",
              "system": "http://loinc.org",
              "display": "Ketones [Mass/volume] in Urine by Test strip"
            }
          ],
          "text": "Ketones [Mass/volume] in Urine by Test strip"
        },
        "valueQuantity": {
          "system": "http://unitsofmeasure.org",
          "value": 14.8,
          "unit": "mg/dL",
          "code": "mg/dL"
        },
        "referenceRange": [
          {
            "low": {
              "value": 0,
              "code": "mg/dL",
              "system": "http://unitsofmeasure.org"
            }
          },
          {
            "high": {
              "value": 4,
              "code": "mg/dL",
              "system": "http://unitsofmeasure.org"
            }
          }
        ],
        "interpretation": [
          {
            "coding": [
              {
                "code": "H",
                "system": "http://terminology.hl7.org/CodeSystem/v3-ObservationInterpretation",
                "display": "High"
              }
            ]
          }
        ],
        "text": {
          "status": "generated",
          "div": "<div xmlns=\"http://www.w3.org/1999/xhtml\"><table class=\"hl7__eu__lab__report\"><tr><th>Test</th><th>04-Oct-2022</th><th>Reference&#xA0;Range</th><th>Unit</th></tr><tr><td>Ketones [Mass/volume] in Urine by Test strip</td><td>14.8</td><td>0 - 4</td><td>H</td><td>mg/dL</td></tr></table></div>"
        },
        "status": "final",
        "subject": {
          "reference": "urn:uuid:a55d339e-5cee-43e1-8ab5-1c057b31bc1e",
          "display": "Meaghan Neary"
        },
        "effectiveDateTime": "2022-10-03T22:11:04Z",
        "specimen": {
          "reference": "urn:uuid:cb932dd5-0369-484e-9e48-63aa0c649992"
        }
      }
    },
    {
      "fullUrl": "urn:uuid:a41ce3b3-286c-4b32-a147-1b78ef06ee11",
      "resource": {
        "resourceType": "Observation",
        "id": "a41ce3b3-286c-4b32-a147-1b78ef06ee11",
        "meta": {
          "profile": [
            "http://hl7.eu/fhir/laboratory/StructureDefinition/Observation-resultslab-eu-lab"
          ]
        },
        "performer": [
          {
            "display": "The Central European Lab"
          }
        ],
        "category": [
          {
            "coding": [
              {
                "system": "http://terminology.hl7.org/CodeSystem/observation-category",
                "code": "laboratory"
              }
            ]
          }
        ],
        "code": {
          "coding": [
            {
              "code": "2514-8",
              "system": "http://loinc.org",
              "display": "Ketones [Presence] in Urine by Test strip"
            }
          ],
          "text": "Ketones [Presence] in Urine by Test strip"
        },
        "text": {
          "status": "generated",
          "div": "<div xmlns=\"http://www.w3.org/1999/xhtml\"><table class=\"hl7__eu__lab__report\"><tr><th>Test</th><th>04-Oct-2022</th><th>Reference&#xA0;Range</th><th>Unit</th></tr><tr><td>Ketones [Presence] in Urine by Test strip</td></tr></table></div>"
        },
        "status": "final",
        "subject": {
          "reference": "urn:uuid:a55d339e-5cee-43e1-8ab5-1c057b31bc1e",
          "display": "Meaghan Neary"
        },
        "effectiveDateTime": "2022-10-03T22:11:04Z",
        "specimen": {
          "reference": "urn:uuid:cb932dd5-0369-484e-9e48-63aa0c649992"
        }
      }
    },
    {
      "fullUrl": "urn:uuid:777e65fc-62f7-491e-8964-f56a481c161e",
      "resource": {
        "resourceType": "Observation",
        "id": "777e65fc-62f7-491e-8964-f56a481c161e",
        "meta": {
          "profile": [
            "http://hl7.eu/fhir/laboratory/StructureDefinition/Observation-resultslab-eu-lab"
          ]
        },
        "performer": [
          {
            "display": "The Central European Lab"
          }
        ],
        "category": [
          {
            "coding": [
              {
                "system": "http://terminology.hl7.org/CodeSystem/observation-category",
                "code": "laboratory"
              }
            ]
          }
        ],
        "code": {
          "coding": [
            {
              "code": "5811-5",
              "system": "http://loinc.org",
              "display": "Specific gravity of Urine by Test strip"
            }
          ],
          "text": "Specific gravity of Urine by Test strip"
        },
        "valueQuantity": {
          "system": "http://unitsofmeasure.org",
          "value": 1,
          "unit": "{nominal}",
          "code": "{nominal}"
        },
        "referenceRange": [
          {
            "low": {
              "value": 1.005,
              "code": "g/mL",
              "system": "http://unitsofmeasure.org"
            }
          },
          {
            "high": {
              "value": 1.03,
              "code": "g/mL",
              "system": "http://unitsofmeasure.org"
            }
          }
        ],
        "interpretation": [
          {
            "coding": [
              {
                "code": "L",
                "system": "http://terminology.hl7.org/CodeSystem/v3-ObservationInterpretation",
                "display": "Low"
              }
            ]
          }
        ],
        "text": {
          "status": "generated",
          "div": "<div xmlns=\"http://www.w3.org/1999/xhtml\"><table class=\"hl7__eu__lab__report\"><tr><th>Test</th><th>04-Oct-2022</th><th>Reference&#xA0;Range</th><th>Unit</th></tr><tr><td>Specific gravity of Urine by Test strip</td><td>1.0</td><td>1.005 - 1.03</td><td>L</td><td>{nominal}</td></tr></table></div>"
        },
        "status": "final",
        "subject": {
          "reference": "urn:uuid:a55d339e-5cee-43e1-8ab5-1c057b31bc1e",
          "display": "Meaghan Neary"
        },
        "effectiveDateTime": "2022-10-03T22:11:04Z",
        "specimen": {
          "reference": "urn:uuid:cb932dd5-0369-484e-9e48-63aa0c649992"
        }
      }
    },
    {
      "fullUrl": "urn:uuid:8f8331c8-53a9-427d-8cdb-08731ca6dec0",
      "resource": {
        "resourceType": "Observation",
        "id": "8f8331c8-53a9-427d-8cdb-08731ca6dec0",
        "meta": {
          "profile": [
            "http://hl7.eu/fhir/laboratory/StructureDefinition/Observation-resultslab-eu-lab"
          ]
        },
        "performer": [
          {
            "display": "The Central European Lab"
          }
        ],
        "category": [
          {
            "coding": [
              {
                "system": "http://terminology.hl7.org/CodeSystem/observation-category",
                "code": "laboratory"
              }
            ]
          }
        ],
        "code": {
          "coding": [
            {
              "code": "5803-2",
              "system": "http://loinc.org",
              "display": "pH of Urine by Test strip"
            }
          ],
          "text": "pH of Urine by Test strip"
        },
        "valueQuantity": {
          "system": "http://unitsofmeasure.org",
          "value": 6.5,
          "unit": "pH",
          "code": "pH"
        },
        "referenceRange": [
          {
            "low": {
              "value": 4.6,
              "code": "pH",
              "system": "http://unitsofmeasure.org"
            }
          },
          {
            "high": {
              "value": 7,
              "code": "pH",
              "system": "http://unitsofmeasure.org"
            }
          }
        ],
        "text": {
          "status": "generated",
          "div": "<div xmlns=\"http://www.w3.org/1999/xhtml\"><table class=\"hl7__eu__lab__report\"><tr><th>Test</th><th>04-Oct-2022</th><th>Reference&#xA0;Range</th><th>Unit</th></tr><tr><td>pH of Urine by Test strip</td><td>6.5</td><td>4.6 - 7</td><td></td><td>pH</td></tr></table></div>"
        },
        "status": "final",
        "subject": {
          "reference": "urn:uuid:a55d339e-5cee-43e1-8ab5-1c057b31bc1e",
          "display": "Meaghan Neary"
        },
        "effectiveDateTime": "2022-10-03T22:11:04Z",
        "specimen": {
          "reference": "urn:uuid:cb932dd5-0369-484e-9e48-63aa0c649992"
        }
      }
    },
    {
      "fullUrl": "urn:uuid:13022bf9-8a99-40b3-af01-f889802d7021",
      "resource": {
        "resourceType": "Observation",
        "id": "13022bf9-8a99-40b3-af01-f889802d7021",
        "meta": {
          "profile": [
            "http://hl7.eu/fhir/laboratory/StructureDefinition/Observation-resultslab-eu-lab"
          ]
        },
        "performer": [
          {
            "display": "The Central European Lab"
          }
        ],
        "category": [
          {
            "coding": [
              {
                "system": "http://terminology.hl7.org/CodeSystem/observation-category",
                "code": "laboratory"
              }
            ]
          }
        ],
        "code": {
          "coding": [
            {
              "code": "5804-0",
              "system": "http://loinc.org",
              "display": "Protein [Mass/volume] in Urine by Test strip"
            }
          ],
          "text": "Protein [Mass/volume] in Urine by Test strip"
        },
        "valueQuantity": {
          "system": "http://unitsofmeasure.org",
          "value": 358.6,
          "unit": "mg/dL",
          "code": "mg/dL"
        },
        "referenceRange": [
          {
            "low": {
              "value": 0,
              "code": "mg/dL",
              "system": "http://unitsofmeasure.org"
            }
          },
          {
            "high": {
              "value": 14,
              "code": "mg/dL",
              "system": "http://unitsofmeasure.org"
            }
          }
        ],
        "interpretation": [
          {
            "coding": [
              {
                "code": "H",
                "system": "http://terminology.hl7.org/CodeSystem/v3-ObservationInterpretation",
                "display": "High"
              }
            ]
          }
        ],
        "text": {
          "status": "generated",
          "div": "<div xmlns=\"http://www.w3.org/1999/xhtml\"><table class=\"hl7__eu__lab__report\"><tr><th>Test</th><th>04-Oct-2022</th><th>Reference&#xA0;Range</th><th>Unit</th></tr><tr><td>Protein [Mass/volume] in Urine by Test strip</td><td>358.6</td><td>0 - 14</td><td>H</td><td>mg/dL</td></tr></table></div>"
        },
        "status": "final",
        "subject": {
          "reference": "urn:uuid:a55d339e-5cee-43e1-8ab5-1c057b31bc1e",
          "display": "Meaghan Neary"
        },
        "effectiveDateTime": "2022-10-03T22:11:04Z",
        "specimen": {
          "reference": "urn:uuid:cb932dd5-0369-484e-9e48-63aa0c649992"
        }
      }
    },
    {
      "fullUrl": "urn:uuid:b09a869b-eadc-4d57-9d0c-cc920ceee982",
      "resource": {
        "resourceType": "Observation",
        "id": "b09a869b-eadc-4d57-9d0c-cc920ceee982",
        "meta": {
          "profile": [
            "http://hl7.eu/fhir/laboratory/StructureDefinition/Observation-resultslab-eu-lab"
          ]
        },
        "performer": [
          {
            "display": "The Central European Lab"
          }
        ],
        "category": [
          {
            "coding": [
              {
                "system": "http://terminology.hl7.org/CodeSystem/observation-category",
                "code": "laboratory"
              }
            ]
          }
        ],
        "code": {
          "coding": [
            {
              "code": "20454-5",
              "system": "http://loinc.org",
              "display": "Protein [Presence] in Urine by Test strip"
            }
          ],
          "text": "Protein [Presence] in Urine by Test strip"
        },
        "text": {
          "status": "generated",
          "div": "<div xmlns=\"http://www.w3.org/1999/xhtml\"><table class=\"hl7__eu__lab__report\"><tr><th>Test</th><th>04-Oct-2022</th><th>Reference&#xA0;Range</th><th>Unit</th></tr><tr><td>Protein [Presence] in Urine by Test strip</td></tr></table></div>"
        },
        "status": "final",
        "subject": {
          "reference": "urn:uuid:a55d339e-5cee-43e1-8ab5-1c057b31bc1e",
          "display": "Meaghan Neary"
        },
        "effectiveDateTime": "2022-10-03T22:11:04Z",
        "specimen": {
          "reference": "urn:uuid:cb932dd5-0369-484e-9e48-63aa0c649992"
        }
      }
    },
    {
      "fullUrl": "urn:uuid:6502b353-e71f-482a-8ed3-2dc72f270cff",
      "resource": {
        "resourceType": "Observation",
        "id": "6502b353-e71f-482a-8ed3-2dc72f270cff",
        "meta": {
          "profile": [
            "http://hl7.eu/fhir/laboratory/StructureDefinition/Observation-resultslab-eu-lab"
          ]
        },
        "performer": [
          {
            "display": "The Central European Lab"
          }
        ],
        "category": [
          {
            "coding": [
              {
                "system": "http://terminology.hl7.org/CodeSystem/observation-category",
                "code": "laboratory"
              }
            ]
          }
        ],
        "code": {
          "coding": [
            {
              "code": "5802-4",
              "system": "http://loinc.org",
              "display": "Nitrite [Presence] in Urine by Test strip"
            }
          ],
          "text": "Nitrite [Presence] in Urine by Test strip"
        },
        "text": {
          "status": "generated",
          "div": "<div xmlns=\"http://www.w3.org/1999/xhtml\"><table class=\"hl7__eu__lab__report\"><tr><th>Test</th><th>04-Oct-2022</th><th>Reference&#xA0;Range</th><th>Unit</th></tr><tr><td>Nitrite [Presence] in Urine by Test strip</td></tr></table></div>"
        },
        "status": "final",
        "subject": {
          "reference": "urn:uuid:a55d339e-5cee-43e1-8ab5-1c057b31bc1e",
          "display": "Meaghan Neary"
        },
        "effectiveDateTime": "2022-10-03T22:11:04Z",
        "specimen": {
          "reference": "urn:uuid:cb932dd5-0369-484e-9e48-63aa0c649992"
        }
      }
    },
    {
      "fullUrl": "urn:uuid:57a569d4-63e1-4a9f-a8ae-9f0aa50997bb",
      "resource": {
        "resourceType": "Observation",
        "id": "57a569d4-63e1-4a9f-a8ae-9f0aa50997bb",
        "meta": {
          "profile": [
            "http://hl7.eu/fhir/laboratory/StructureDefinition/Observation-resultslab-eu-lab"
          ]
        },
        "performer": [
          {
            "display": "The Central European Lab"
          }
        ],
        "category": [
          {
            "coding": [
              {
                "system": "http://terminology.hl7.org/CodeSystem/observation-category",
                "code": "laboratory"
              }
            ]
          }
        ],
        "code": {
          "coding": [
            {
              "code": "5794-3",
              "system": "http://loinc.org",
              "display": "Hemoglobin [Presence] in Urine by Test strip"
            }
          ],
          "text": "Hemoglobin [Presence] in Urine by Test strip"
        },
        "text": {
          "status": "generated",
          "div": "<div xmlns=\"http://www.w3.org/1999/xhtml\"><table class=\"hl7__eu__lab__report\"><tr><th>Test</th><th>04-Oct-2022</th><th>Reference&#xA0;Range</th><th>Unit</th></tr><tr><td>Hemoglobin [Presence] in Urine by Test strip</td></tr></table></div>"
        },
        "status": "final",
        "subject": {
          "reference": "urn:uuid:a55d339e-5cee-43e1-8ab5-1c057b31bc1e",
          "display": "Meaghan Neary"
        },
        "effectiveDateTime": "2022-10-03T22:11:04Z",
        "specimen": {
          "reference": "urn:uuid:cb932dd5-0369-484e-9e48-63aa0c649992"
        }
      }
    },
    {
      "fullUrl": "urn:uuid:83c51515-af0d-4322-9bad-0f4ceee87fb8",
      "resource": {
        "resourceType": "Observation",
        "id": "83c51515-af0d-4322-9bad-0f4ceee87fb8",
        "meta": {
          "profile": [
            "http://hl7.eu/fhir/laboratory/StructureDefinition/Observation-resultslab-eu-lab"
          ]
        },
        "performer": [
          {
            "display": "The Central European Lab"
          }
        ],
        "category": [
          {
            "coding": [
              {
                "system": "http://terminology.hl7.org/CodeSystem/observation-category",
                "code": "laboratory"
              }
            ]
          }
        ],
        "code": {
          "coding": [
            {
              "code": "5799-2",
              "system": "http://loinc.org",
              "display": "Leukocyte esterase [Presence] in Urine by Test strip"
            }
          ],
          "text": "Leukocyte esterase [Presence] in Urine by Test strip"
        },
        "text": {
          "status": "generated",
          "div": "<div xmlns=\"http://www.w3.org/1999/xhtml\"><table class=\"hl7__eu__lab__report\"><tr><th>Test</th><th>04-Oct-2022</th><th>Reference&#xA0;Range</th><th>Unit</th></tr><tr><td>Leukocyte esterase [Presence] in Urine by Test strip</td></tr></table></div>"
        },
        "status": "final",
        "subject": {
          "reference": "urn:uuid:a55d339e-5cee-43e1-8ab5-1c057b31bc1e",
          "display": "Meaghan Neary"
        },
        "effectiveDateTime": "2022-10-03T22:11:04Z",
        "specimen": {
          "reference": "urn:uuid:cb932dd5-0369-484e-9e48-63aa0c649992"
        }
      }
    },
    {
      "fullUrl": "urn:uuid:71e3c6f3-02e4-406f-ac26-0b79141c2925",
      "resource": {
        "resourceType": "Observation",
        "id": "71e3c6f3-02e4-406f-ac26-0b79141c2925",
        "meta": {
          "profile": [
            "http://hl7.eu/fhir/laboratory/StructureDefinition/Observation-resultslab-eu-lab"
          ]
        },
        "performer": [
          {
            "display": "The Central European Lab"
          }
        ],
        "category": [
          {
            "coding": [
              {
                "system": "http://terminology.hl7.org/CodeSystem/observation-category",
                "code": "laboratory"
              }
            ]
          }
        ],
        "code": {
          "coding": [
            {
              "code": "4548-4",
              "system": "http://loinc.org",
              "display": "Hemoglobin A1c/Hemoglobin.total in Blood"
            }
          ],
          "text": "Hemoglobin A1c/Hemoglobin.total in Blood"
        },
        "valueQuantity": {
          "system": "http://unitsofmeasure.org",
          "value": 3.3,
          "unit": "%",
          "code": "%"
        },
        "referenceRange": [
          {
            "low": {
              "value": 4,
              "code": "%",
              "system": "http://unitsofmeasure.org"
            }
          },
          {
            "high": {
              "value": 6.4,
              "code": "%",
              "system": "http://unitsofmeasure.org"
            }
          }
        ],
        "interpretation": [
          {
            "coding": [
              {
                "code": "L",
                "system": "http://terminology.hl7.org/CodeSystem/v3-ObservationInterpretation",
                "display": "Low"
              }
            ]
          }
        ],
        "text": {
          "status": "generated",
          "div": "<div xmlns=\"http://www.w3.org/1999/xhtml\"><table class=\"hl7__eu__lab__report\"><tr><th>Test</th><th>04-Oct-2022</th><th>Reference&#xA0;Range</th><th>Unit</th></tr><tr><td>Hemoglobin A1c/Hemoglobin.total in Blood</td><td>3.3</td><td>4 - 6.4</td><td>L</td><td>%</td></tr></table></div>"
        },
        "status": "final",
        "subject": {
          "reference": "urn:uuid:a55d339e-5cee-43e1-8ab5-1c057b31bc1e",
          "display": "Meaghan Neary"
        },
        "effectiveDateTime": "2022-10-03T22:11:04Z",
        "specimen": {
          "reference": "urn:uuid:f7b6bd97-8d2b-407b-96f5-64fee207d3e0"
        }
      }
    },
    {
      "fullUrl": "urn:uuid:97f9b14e-65ca-4916-8273-fed3909db55d",
      "resource": {
        "resourceType": "Observation",
        "id": "97f9b14e-65ca-4916-8273-fed3909db55d",
        "meta": {
          "profile": [
            "http://hl7.eu/fhir/laboratory/StructureDefinition/Observation-resultslab-eu-lab"
          ]
        },
        "performer": [
          {
            "display": "The Central European Lab"
          }
        ],
        "category": [
          {
            "coding": [
              {
                "system": "http://terminology.hl7.org/CodeSystem/observation-category",
                "code": "laboratory"
              }
            ]
          }
        ],
        "code": {
          "coding": [
            {
              "code": "2339-0",
              "system": "http://loinc.org",
              "display": "Glucose [Mass/volume] in Blood"
            }
          ],
          "text": "Glucose [Mass/volume] in Blood"
        },
        "valueQuantity": {
          "system": "http://unitsofmeasure.org",
          "value": 91.6,
          "unit": "mg/dL",
          "code": "mg/dL"
        },
        "referenceRange": [
          {
            "low": {
              "value": 70,
              "code": "mg/dL",
              "system": "http://unitsofmeasure.org"
            }
          },
          {
            "high": {
              "value": 100,
              "code": "mg/dL",
              "system": "http://unitsofmeasure.org"
            }
          }
        ],
        "text": {
          "status": "generated",
          "div": "<div xmlns=\"http://www.w3.org/1999/xhtml\"><table class=\"hl7__eu__lab__report\"><tr><th>Test</th><th>04-Oct-2022</th><th>Reference&#xA0;Range</th><th>Unit</th></tr><tr><td>Glucose [Mass/volume] in Blood</td><td>91.6</td><td>70 - 100</td><td></td><td>mg/dL</td></tr></table></div>"
        },
        "status": "final",
        "subject": {
          "reference": "urn:uuid:a55d339e-5cee-43e1-8ab5-1c057b31bc1e",
          "display": "Meaghan Neary"
        },
        "effectiveDateTime": "2022-10-03T22:11:04Z",
        "specimen": {
          "reference": "urn:uuid:f7b6bd97-8d2b-407b-96f5-64fee207d3e0"
        }
      }
    },
    {
      "fullUrl": "urn:uuid:1e6b341a-5276-4038-940b-0ef580242447",
      "resource": {
        "resourceType": "Observation",
        "id": "1e6b341a-5276-4038-940b-0ef580242447",
        "meta": {
          "profile": [
            "http://hl7.eu/fhir/laboratory/StructureDefinition/Observation-resultslab-eu-lab"
          ]
        },
        "performer": [
          {
            "display": "The Central European Lab"
          }
        ],
        "category": [
          {
            "coding": [
              {
                "system": "http://terminology.hl7.org/CodeSystem/observation-category",
                "code": "laboratory"
              }
            ]
          }
        ],
        "code": {
          "coding": [
            {
              "code": "6299-2",
              "system": "http://loinc.org",
              "display": "Urea nitrogen [Mass/volume] in Blood"
            }
          ],
          "text": "Urea nitrogen [Mass/volume] in Blood"
        },
        "valueQuantity": {
          "system": "http://unitsofmeasure.org",
          "value": 12.9,
          "unit": "mg/dL",
          "code": "mg/dL"
        },
        "referenceRange": [
          {
            "low": {
              "value": 7,
              "code": "mg/dL",
              "system": "http://unitsofmeasure.org"
            }
          },
          {
            "high": {
              "value": 43,
              "code": "mg/dL",
              "system": "http://unitsofmeasure.org"
            }
          }
        ],
        "text": {
          "status": "generated",
          "div": "<div xmlns=\"http://www.w3.org/1999/xhtml\"><table class=\"hl7__eu__lab__report\"><tr><th>Test</th><th>04-Oct-2022</th><th>Reference&#xA0;Range</th><th>Unit</th></tr><tr><td>Urea nitrogen [Mass/volume] in Blood</td><td>12.9</td><td>7 - 43</td><td></td><td>mg/dL</td></tr></table></div>"
        },
        "status": "final",
        "subject": {
          "reference": "urn:uuid:a55d339e-5cee-43e1-8ab5-1c057b31bc1e",
          "display": "Meaghan Neary"
        },
        "effectiveDateTime": "2022-10-03T22:11:04Z",
        "specimen": {
          "reference": "urn:uuid:f7b6bd97-8d2b-407b-96f5-64fee207d3e0"
        }
      }
    },
    {
      "fullUrl": "urn:uuid:6f9e783b-dcc9-4f13-8884-96e24946dfaa",
      "resource": {
        "resourceType": "Observation",
        "id": "6f9e783b-dcc9-4f13-8884-96e24946dfaa",
        "meta": {
          "profile": [
            "http://hl7.eu/fhir/laboratory/StructureDefinition/Observation-resultslab-eu-lab"
          ]
        },
        "performer": [
          {
            "display": "The Central European Lab"
          }
        ],
        "category": [
          {
            "coding": [
              {
                "system": "http://terminology.hl7.org/CodeSystem/observation-category",
                "code": "laboratory"
              }
            ]
          }
        ],
        "code": {
          "coding": [
            {
              "code": "38483-4",
              "system": "http://loinc.org",
              "display": "Creatinine [Mass/volume] in Blood"
            }
          ],
          "text": "Creatinine [Mass/volume] in Blood"
        },
        "valueQuantity": {
          "system": "http://unitsofmeasure.org",
          "value": 3,
          "unit": "mg/dL",
          "code": "mg/dL"
        },
        "referenceRange": [
          {
            "low": {
              "value": 0.6,
              "code": "mg/dL",
              "system": "http://unitsofmeasure.org"
            }
          },
          {
            "high": {
              "value": 1.1,
              "code": "mg/dL",
              "system": "http://unitsofmeasure.org"
            }
          }
        ],
        "interpretation": [
          {
            "coding": [
              {
                "code": "H",
                "system": "http://terminology.hl7.org/CodeSystem/v3-ObservationInterpretation",
                "display": "High"
              }
            ]
          }
        ],
        "text": {
          "status": "generated",
          "div": "<div xmlns=\"http://www.w3.org/1999/xhtml\"><table class=\"hl7__eu__lab__report\"><tr><th>Test</th><th>04-Oct-2022</th><th>Reference&#xA0;Range</th><th>Unit</th></tr><tr><td>Creatinine [Mass/volume] in Blood</td><td>3.0</td><td>0.6 - 1.1</td><td>H</td><td>mg/dL</td></tr></table></div>"
        },
        "status": "final",
        "subject": {
          "reference": "urn:uuid:a55d339e-5cee-43e1-8ab5-1c057b31bc1e",
          "display": "Meaghan Neary"
        },
        "effectiveDateTime": "2022-10-03T22:11:04Z",
        "specimen": {
          "reference": "urn:uuid:f7b6bd97-8d2b-407b-96f5-64fee207d3e0"
        }
      }
    },
    {
      "fullUrl": "urn:uuid:77983e74-a853-424b-b2f5-c901f8d3af2d",
      "resource": {
        "resourceType": "Observation",
        "id": "77983e74-a853-424b-b2f5-c901f8d3af2d",
        "meta": {
          "profile": [
            "http://hl7.eu/fhir/laboratory/StructureDefinition/Observation-resultslab-eu-lab"
          ]
        },
        "performer": [
          {
            "display": "The Central European Lab"
          }
        ],
        "category": [
          {
            "coding": [
              {
                "system": "http://terminology.hl7.org/CodeSystem/observation-category",
                "code": "laboratory"
              }
            ]
          }
        ],
        "code": {
          "coding": [
            {
              "code": "49765-1",
              "system": "http://loinc.org",
              "display": "Calcium [Mass/volume] in Blood"
            }
          ],
          "text": "Calcium [Mass/volume] in Blood"
        },
        "valueQuantity": {
          "system": "http://unitsofmeasure.org",
          "value": 8.6,
          "unit": "mg/dL",
          "code": "mg/dL"
        },
        "referenceRange": [
          {
            "low": {
              "value": 8.5,
              "code": "mg/dL",
              "system": "http://unitsofmeasure.org"
            }
          },
          {
            "high": {
              "value": 10.5,
              "code": "mg/dL",
              "system": "http://unitsofmeasure.org"
            }
          }
        ],
        "text": {
          "status": "generated",
          "div": "<div xmlns=\"http://www.w3.org/1999/xhtml\"><table class=\"hl7__eu__lab__report\"><tr><th>Test</th><th>04-Oct-2022</th><th>Reference&#xA0;Range</th><th>Unit</th></tr><tr><td>Calcium [Mass/volume] in Blood</td><td>8.6</td><td>8.5 - 10.5</td><td></td><td>mg/dL</td></tr></table></div>"
        },
        "status": "final",
        "subject": {
          "reference": "urn:uuid:a55d339e-5cee-43e1-8ab5-1c057b31bc1e",
          "display": "Meaghan Neary"
        },
        "effectiveDateTime": "2022-10-03T22:11:04Z",
        "specimen": {
          "reference": "urn:uuid:f7b6bd97-8d2b-407b-96f5-64fee207d3e0"
        }
      }
    },
    {
      "fullUrl": "urn:uuid:3b7dae08-ed6f-4693-914e-4dfa494db6bc",
      "resource": {
        "resourceType": "Observation",
        "id": "3b7dae08-ed6f-4693-914e-4dfa494db6bc",
        "meta": {
          "profile": [
            "http://hl7.eu/fhir/laboratory/StructureDefinition/Observation-resultslab-eu-lab"
          ]
        },
        "performer": [
          {
            "display": "The Central European Lab"
          }
        ],
        "category": [
          {
            "coding": [
              {
                "system": "http://terminology.hl7.org/CodeSystem/observation-category",
                "code": "laboratory"
              }
            ]
          }
        ],
        "code": {
          "coding": [
            {
              "code": "2947-0",
              "system": "http://loinc.org",
              "display": "Sodium [Moles/volume] in Blood"
            }
          ],
          "text": "Sodium [Moles/volume] in Blood"
        },
        "valueQuantity": {
          "system": "http://unitsofmeasure.org",
          "value": 141.4,
          "unit": "mmol/L",
          "code": "mmol/L"
        },
        "referenceRange": [
          {
            "low": {
              "value": 135,
              "code": "mmol/L",
              "system": "http://unitsofmeasure.org"
            }
          },
          {
            "high": {
              "value": 145,
              "code": "mmol/L",
              "system": "http://unitsofmeasure.org"
            }
          }
        ],
        "text": {
          "status": "generated",
          "div": "<div xmlns=\"http://www.w3.org/1999/xhtml\"><table class=\"hl7__eu__lab__report\"><tr><th>Test</th><th>04-Oct-2022</th><th>Reference&#xA0;Range</th><th>Unit</th></tr><tr><td>Sodium [Moles/volume] in Blood</td><td>141.4</td><td>135 - 145</td><td></td><td>mmol/L</td></tr></table></div>"
        },
        "status": "final",
        "subject": {
          "reference": "urn:uuid:a55d339e-5cee-43e1-8ab5-1c057b31bc1e",
          "display": "Meaghan Neary"
        },
        "effectiveDateTime": "2022-10-03T22:11:04Z",
        "specimen": {
          "reference": "urn:uuid:f7b6bd97-8d2b-407b-96f5-64fee207d3e0"
        }
      }
    },
    {
      "fullUrl": "urn:uuid:7d042100-3b47-4ba2-afeb-fec7453ed4f6",
      "resource": {
        "resourceType": "Observation",
        "id": "7d042100-3b47-4ba2-afeb-fec7453ed4f6",
        "meta": {
          "profile": [
            "http://hl7.eu/fhir/laboratory/StructureDefinition/Observation-resultslab-eu-lab"
          ]
        },
        "performer": [
          {
            "display": "The Central European Lab"
          }
        ],
        "category": [
          {
            "coding": [
              {
                "system": "http://terminology.hl7.org/CodeSystem/observation-category",
                "code": "laboratory"
              }
            ]
          }
        ],
        "code": {
          "coding": [
            {
              "code": "6298-4",
              "system": "http://loinc.org",
              "display": "Potassium [Moles/volume] in Blood"
            }
          ],
          "text": "Potassium [Moles/volume] in Blood"
        },
        "valueQuantity": {
          "system": "http://unitsofmeasure.org",
          "value": 4,
          "unit": "mmol/L",
          "code": "mmol/L"
        },
        "referenceRange": [
          {
            "low": {
              "value": 3.5,
              "code": "mmol/L",
              "system": "http://unitsofmeasure.org"
            }
          },
          {
            "high": {
              "value": 5.1,
              "code": "mmol/L",
              "system": "http://unitsofmeasure.org"
            }
          }
        ],
        "text": {
          "status": "generated",
          "div": "<div xmlns=\"http://www.w3.org/1999/xhtml\"><table class=\"hl7__eu__lab__report\"><tr><th>Test</th><th>04-Oct-2022</th><th>Reference&#xA0;Range</th><th>Unit</th></tr><tr><td>Potassium [Moles/volume] in Blood</td><td>4.0</td><td>3.5 - 5.1</td><td></td><td>mmol/L</td></tr></table></div>"
        },
        "status": "final",
        "subject": {
          "reference": "urn:uuid:a55d339e-5cee-43e1-8ab5-1c057b31bc1e",
          "display": "Meaghan Neary"
        },
        "effectiveDateTime": "2022-10-03T22:11:04Z",
        "specimen": {
          "reference": "urn:uuid:f7b6bd97-8d2b-407b-96f5-64fee207d3e0"
        }
      }
    },
    {
      "fullUrl": "urn:uuid:c3b4caa0-43cd-4f51-ac87-321ee287d634",
      "resource": {
        "resourceType": "Observation",
        "id": "c3b4caa0-43cd-4f51-ac87-321ee287d634",
        "meta": {
          "profile": [
            "http://hl7.eu/fhir/laboratory/StructureDefinition/Observation-resultslab-eu-lab"
          ]
        },
        "performer": [
          {
            "display": "The Central European Lab"
          }
        ],
        "category": [
          {
            "coding": [
              {
                "system": "http://terminology.hl7.org/CodeSystem/observation-category",
                "code": "laboratory"
              }
            ]
          }
        ],
        "code": {
          "coding": [
            {
              "code": "2069-3",
              "system": "http://loinc.org",
              "display": "Chloride [Moles/volume] in Blood"
            }
          ],
          "text": "Chloride [Moles/volume] in Blood"
        },
        "valueQuantity": {
          "system": "http://unitsofmeasure.org",
          "value": 108.2,
          "unit": "mmol/L",
          "code": "mmol/L"
        },
        "referenceRange": [
          {
            "low": {
              "value": 98,
              "code": "mmol/L",
              "system": "http://unitsofmeasure.org"
            }
          },
          {
            "high": {
              "value": 108,
              "code": "mmol/L",
              "system": "http://unitsofmeasure.org"
            }
          }
        ],
        "interpretation": [
          {
            "coding": [
              {
                "code": "H",
                "system": "http://terminology.hl7.org/CodeSystem/v3-ObservationInterpretation",
                "display": "High"
              }
            ]
          }
        ],
        "text": {
          "status": "generated",
          "div": "<div xmlns=\"http://www.w3.org/1999/xhtml\"><table class=\"hl7__eu__lab__report\"><tr><th>Test</th><th>04-Oct-2022</th><th>Reference&#xA0;Range</th><th>Unit</th></tr><tr><td>Chloride [Moles/volume] in Blood</td><td>108.2</td><td>98 - 108</td><td>H</td><td>mmol/L</td></tr></table></div>"
        },
        "status": "final",
        "subject": {
          "reference": "urn:uuid:a55d339e-5cee-43e1-8ab5-1c057b31bc1e",
          "display": "Meaghan Neary"
        },
        "effectiveDateTime": "2022-10-03T22:11:04Z",
        "specimen": {
          "reference": "urn:uuid:f7b6bd97-8d2b-407b-96f5-64fee207d3e0"
        }
      }
    },
    {
      "fullUrl": "urn:uuid:ef1a1bc6-cfd6-4f34-a42f-86081f775754",
      "resource": {
        "resourceType": "Observation",
        "id": "ef1a1bc6-cfd6-4f34-a42f-86081f775754",
        "meta": {
          "profile": [
            "http://hl7.eu/fhir/laboratory/StructureDefinition/Observation-resultslab-eu-lab"
          ]
        },
        "performer": [
          {
            "display": "The Central European Lab"
          }
        ],
        "category": [
          {
            "coding": [
              {
                "system": "http://terminology.hl7.org/CodeSystem/observation-category",
                "code": "laboratory"
              }
            ]
          }
        ],
        "code": {
          "coding": [
            {
              "code": "20565-8",
              "system": "http://loinc.org",
              "display": "Carbon dioxide, total [Moles/volume] in Blood"
            }
          ],
          "text": "Carbon dioxide, total [Moles/volume] in Blood"
        },
        "valueQuantity": {
          "system": "http://unitsofmeasure.org",
          "value": 25.6,
          "unit": "mmol/L",
          "code": "mmol/L"
        },
        "referenceRange": [
          {
            "low": {
              "value": 22,
              "code": "mmol/L",
              "system": "http://unitsofmeasure.org"
            }
          },
          {
            "high": {
              "value": 29,
              "code": "mmol/L",
              "system": "http://unitsofmeasure.org"
            }
          }
        ],
        "text": {
          "status": "generated",
          "div": "<div xmlns=\"http://www.w3.org/1999/xhtml\"><table class=\"hl7__eu__lab__report\"><tr><th>Test</th><th>04-Oct-2022</th><th>Reference&#xA0;Range</th><th>Unit</th></tr><tr><td>Carbon dioxide, total [Moles/volume] in Blood</td><td>25.6</td><td>22 - 29</td><td></td><td>mmol/L</td></tr></table></div>"
        },
        "status": "final",
        "subject": {
          "reference": "urn:uuid:a55d339e-5cee-43e1-8ab5-1c057b31bc1e",
          "display": "Meaghan Neary"
        },
        "effectiveDateTime": "2022-10-03T22:11:04Z",
        "specimen": {
          "reference": "urn:uuid:f7b6bd97-8d2b-407b-96f5-64fee207d3e0"
        }
      }
    },
    {
      "fullUrl": "urn:uuid:ca7dfc33-9317-4ae0-a3e6-2b9deec9c6f4",
      "resource": {
        "resourceType": "Device",
        "id": "ca7dfc33-9317-4ae0-a3e6-2b9deec9c6f4",
        "deviceName": [
          {
            "name": "SYNDERAI Synthetic Generator",
            "type": "manufacturer-name"
          }
        ],
        "version": [
          {
            "value": "5.0"
          }
        ],
        "text": {
          "status": "generated",
          "div": "<div xmlns=\"http://www.w3.org/1999/xhtml\">SYNDERAI Synthetic Generator v5.0</div>"
        },
        "status": "active\"",
        "distinctIdentifier": "synderai-generator-50",
        "manufacturer": "SYNDERAI Project"
      }
    },
    {
      "fullUrl": "urn:uuid:20e69163-ecf7-4178-8fb6-cbebb1925fd2",
      "resource": {
        "resourceType": "Provenance",
        "id": "20e69163-ecf7-4178-8fb6-cbebb1925fd2",
        "target": [
          {
            "reference": "Patient/a55d339e-5cee-43e1-8ab5-1c057b31bc1e"
          },
          {
            "reference": "Bundle/faa300ef-cbba-4d90-8fc1-ba60bffe3770"
          },
          {
            "reference": "Composition/66e3cbdb-2109-4dab-8716-7bd11b04e1ee"
          },
          {
            "reference": "PractitionerRole/cdcee002-c03c-4e91-8799-4830c7736248"
          },
          {
            "reference": "Practitioner/3378d2c6-8237-458f-9e2d-27548233e95a"
          },
          {
            "reference": "PractitionerRole/9646e511-402e-48c4-818d-ce302bf7cad9"
          },
          {
            "reference": "Organization/9a596bfd-36ef-41a0-8fdd-5087d001519f"
          }
        ],
        "activity": {
          "text": "Synthetic Example Data Generation"
        },
        "policy": [
          "https://synderai.net/synderai-synthetic-data-policy"
        ],
        "agent": [
          {
            "type": {
              "text": "author"
            },
            "who": {
              "reference": "Device/ca7dfc33-9317-4ae0-a3e6-2b9deec9c6f4"
            }
          }
        ],
        "reason": [
          {
            "text": "Interoperability Testing and Training (non-clinical use)"
          }
        ],
        "text": {
          "status": "generated",
          "div": "<div xmlns=\"http://www.w3.org/1999/xhtml\">Provenance for SYNDERAI Synthetic Example Data Resource</div>"
        },
        "recorded": "2022-10-04T00:11:04Z"
      }
    },
    {
      "fullUrl": "urn:uuid:cdcee002-c03c-4e91-8799-4830c7736248",
      "resource": {
        "resourceType": "PractitionerRole",
        "id": "cdcee002-c03c-4e91-8799-4830c7736248",
        "meta": {
          "profile": [
            "http://hl7.eu/fhir/base/StructureDefinition/practitionerRole-eu"
          ]
        },
        "text": {
          "status": "generated",
          "div": "<div xmlns=\"http://www.w3.org/1999/xhtml\">Laboratory Role Id: cdcee002-c03c-4e91-8799-4830c7736248</div>"
        },
        "practitioner": {
          "reference": "urn:uuid:3378d2c6-8237-458f-9e2d-27548233e95a"
        }
      }
    },
    {
      "fullUrl": "urn:uuid:3378d2c6-8237-458f-9e2d-27548233e95a",
      "resource": {
        "resourceType": "Practitioner",
        "id": "3378d2c6-8237-458f-9e2d-27548233e95a",
        "meta": {
          "profile": [
            "http://hl7.eu/fhir/base/StructureDefinition/practitioner-eu"
          ]
        },
        "identifier": [
          {
            "assigner": {
              "display": "HL7 Europe"
            },
            "system": "urn:oid:2.16.840.1.113883.2.51.999",
            "value": "81b48d86-c192-43ba-828a-4ecd056a044f"
          }
        ],
        "name": [
          {
            "prefix": [
              "dr"
            ],
            "given": [
              "Ex"
            ],
            "family": "Ample"
          }
        ],
        "address": [
          {
            "line": [
              "Laboratoire Central Europenne",
              "Boulevard du Jardin Botanique 32"
            ],
            "postalCode": "1000",
            "city": "Brussels",
            "country": "Belgium"
          }
        ],
        "text": {
          "status": "generated",
          "div": "<div xmlns=\"http://www.w3.org/1999/xhtml\">Laboratory: Laboratoire Central Europenne, 1000 Brussels, Belgium</div>"
        }
      }
    }
  ],
  "type": "document",
  "timestamp": "2022-10-04T00:11:04Z"
}
