{
  "resourceType": "Bundle",
  "id": "2303e9fa-4c85-4d25-b7c6-0a0670f128b4",
  "meta": {
    "profile": [
      "http://hl7.eu/fhir/laboratory/StructureDefinition/Bundle-eu-lab"
    ]
  },
  "identifier": {
    "assigner": {
      "display": "HL7 Europe"
    },
    "system": "urn:oid:2.16.840.1.113883.2.51.999",
    "value": "7b2e0bc5-8fe1-4e3d-904b-e3ce8a7b8048"
  },
  "entry": [
    {
      "fullUrl": "urn:uuid:bfa22ae6-3045-435e-88c4-41bf758c1dcf",
      "resource": {
        "resourceType": "Composition",
        "id": "bfa22ae6-3045-435e-88c4-41bf758c1dcf",
        "meta": {
          "profile": [
            "http://hl7.eu/fhir/laboratory/StructureDefinition/Composition-eu-lab"
          ]
        },
        "identifier": {
          "assigner": {
            "display": "HL7 Europe"
          },
          "system": "urn:oid:2.16.840.1.113883.2.51.999",
          "value": "0ef43bfe-d47a-4fcd-ad49-226f81a09ece"
        },
        "author": [
          {
            "reference": "urn:uuid:df95a2ef-128c-40fd-b70a-17433c6c16b2"
          }
        ],
        "category": [
          {
            "coding": [
              {
                "code": "26436-6",
                "system": "http://loinc.org",
                "display": "Laboratory studies (set)"
              }
            ]
          }
        ],
        "type": {
          "coding": [
            {
              "code": "11502-2",
              "system": "http://loinc.org",
              "display": "Laboratory report"
            }
          ],
          "text": "Laboratory Report"
        },
        "section": [
          {
            "code": {
              "coding": [
                {
                  "code": "26436-6",
                  "system": "http://loinc.org",
                  "display": "Laboratory studies (set)"
                }
              ],
              "text": "Laboratory studies"
            },
            "section": [
              {
                "code": {
                  "coding": [
                    {
                      "code": "$18719-5",
                      "system": "http://loinc.org",
                      "display": "Chemistry studies (set)"
                    }
                  ],
                  "text": "Chemistry"
                },
                "entry": [
                  {
                    "reference": "urn:uuid:0c262870-5d5a-4a50-844b-53d5abdea84c"
                  },
                  {
                    "reference": "urn:uuid:87019026-f62d-4125-8e4a-8399411bd6cf"
                  },
                  {
                    "reference": "urn:uuid:e6424160-8410-4e17-bc5f-801848d9b105"
                  },
                  {
                    "reference": "urn:uuid:df4c8be6-305b-4239-9207-d9d0dedc6972"
                  },
                  {
                    "reference": "urn:uuid:018cf0f2-efe3-4962-8e79-e6f0f5cf845e"
                  },
                  {
                    "reference": "urn:uuid:df85eaee-c65a-411f-9a73-82ea8cf5a8fe"
                  },
                  {
                    "reference": "urn:uuid:f7126301-0988-43b3-9649-eb80ac73bc84"
                  },
                  {
                    "reference": "urn:uuid:2dbf684b-3025-4f78-a5b4-94455b411449"
                  },
                  {
                    "reference": "urn:uuid:0952a20e-a286-49ca-9427-d08dac565433"
                  },
                  {
                    "reference": "urn:uuid:8626bb33-0ab3-4a14-b294-7080f9ab6b74"
                  },
                  {
                    "reference": "urn:uuid:c7e7972f-1388-45f0-85d0-bb6dd54811b9"
                  },
                  {
                    "reference": "urn:uuid:ec8026e0-6447-4acf-8f64-4ef953927695"
                  },
                  {
                    "reference": "urn:uuid:76555d56-6d1f-45be-b404-846d88694e74"
                  },
                  {
                    "reference": "urn:uuid:ca5fb456-d26c-4170-b7fe-184bd8bff2e6"
                  },
                  {
                    "reference": "urn:uuid:b1bfdd5e-df2a-4e55-b900-1a7d08261e1e"
                  },
                  {
                    "reference": "urn:uuid:6268a35d-01c6-48cd-b5da-d9b624348d0c"
                  },
                  {
                    "reference": "urn:uuid:fe192ba0-c9a8-449d-97ea-3c14fa21e1d3"
                  },
                  {
                    "reference": "urn:uuid:ac090b6a-49a0-41fc-a1d4-f376ed6517be"
                  }
                ],
                "text": {
                  "status": "generated",
                  "div": "<div xmlns=\"http://www.w3.org/1999/xhtml\"><h3>Chemistry</h3><table class=\"hl7__eu__lab__report\"><thead><tr><th>Test</th><th>06-JUL-2021</th><th>Reference&#xA0;Range</th><th>Unit</th></tr></thead><tbody><tr><td>Glucose [Mass/volume] in Serum or Plasma</td><td>89.9</td><td>70 - 99</td><td>mg/dL</td></tr><tr><td>Urea nitrogen [Mass/volume] in Serum or Plasma</td><td>16.9</td><td>7 - 50</td><td>mg/dL</td></tr><tr><td>Creatinine [Mass/volume] in Serum or Plasma</td><td><strong>2.0 H</strong></td><td>0.6 - 1.1</td><td>mg/dL</td></tr><tr><td>Calcium [Mass/volume] in Serum or Plasma</td><td>10.1</td><td>8.6 - 10.4</td><td>mg/dL</td></tr><tr><td>Sodium [Moles/volume] in Serum or Plasma</td><td>137.0</td><td>135 - 145</td><td>mmol/L</td></tr><tr><td>Potassium [Moles/volume] in Serum or Plasma</td><td>4.4</td><td>3.5 - 5.1</td><td>mmol/L</td></tr><tr><td>Chloride [Moles/volume] in Serum or Plasma</td><td>101.8</td><td>98 - 108</td><td>mmol/L</td></tr><tr><td>Carbon dioxide, total [Moles/volume] in Serum or Plasma</td><td><strong>20.6 L</strong></td><td>22 - 32</td><td>mmol/L</td></tr><tr><td>Ketones [Presence] in Urine by Test strip</td><td>Urine ketone test = ++</td><td></td><td></td></tr><tr><td>Hemoglobin A1c/Hemoglobin.total in Blood</td><td><strong>3.0 L</strong></td><td>4 - 6.4</td><td>%</td></tr><tr><td>Glucose [Mass/volume] in Blood</td><td>89.9</td><td>70 - 100</td><td>mg/dL</td></tr><tr><td>Urea nitrogen [Mass/volume] in Blood</td><td>16.9</td><td>7 - 43</td><td>mg/dL</td></tr><tr><td>Creatinine [Mass/volume] in Blood</td><td><strong>2.7 H</strong></td><td>0.6 - 1.1</td><td>mg/dL</td></tr><tr><td>Calcium [Mass/volume] in Blood</td><td>10.1</td><td>8.5 - 10.5</td><td>mg/dL</td></tr><tr><td>Sodium [Moles/volume] in Blood</td><td>137.0</td><td>135 - 145</td><td>mmol/L</td></tr><tr><td>Potassium [Moles/volume] in Blood</td><td>4.4</td><td>3.5 - 5.1</td><td>mmol/L</td></tr><tr><td>Chloride [Moles/volume] in Blood</td><td>101.8</td><td>98 - 108</td><td>mmol/L</td></tr><tr><td>Carbon dioxide, total [Moles/volume] in Blood</td><td><strong>20.6 L</strong></td><td>22 - 29</td><td>mmol/L</td></tr></tbody></table></div>"
                },
                "title": "Chemistry"
              },
              {
                "code": {
                  "coding": [
                    {
                      "code": "$18729-4",
                      "system": "http://loinc.org",
                      "display": "Urinalysis studies (set)"
                    }
                  ],
                  "text": "Urinalysis"
                },
                "entry": [
                  {
                    "reference": "urn:uuid:1761def4-2c66-4f97-9d1f-8bb5a56ed2dc"
                  },
                  {
                    "reference": "urn:uuid:edf9d0aa-3d70-4bab-8f31-4f76f64f3247"
                  },
                  {
                    "reference": "urn:uuid:e87dc069-c74b-4739-a87a-0bf614e032e3"
                  },
                  {
                    "reference": "urn:uuid:0bd5f670-565b-49ba-be79-9020f1208825"
                  },
                  {
                    "reference": "urn:uuid:3e47b746-0e2d-4c0f-aafd-a5a1d5b31ca3"
                  },
                  {
                    "reference": "urn:uuid:68366726-f5d9-462f-991d-d7480a851769"
                  },
                  {
                    "reference": "urn:uuid:50d95e5f-4670-4bb2-ad2e-b4b1ff5e40fe"
                  },
                  {
                    "reference": "urn:uuid:f1d0d9ad-ec10-4fe4-92ba-acd8fa8cd846"
                  },
                  {
                    "reference": "urn:uuid:5af36efc-0613-4d7d-b483-3774b3a19a8b"
                  },
                  {
                    "reference": "urn:uuid:777e4663-dcaa-43fa-b44b-563451a04499"
                  },
                  {
                    "reference": "urn:uuid:68865fe5-2953-491b-8683-8ea34d01f3bd"
                  },
                  {
                    "reference": "urn:uuid:ae876940-22e1-42e0-85d3-7eaf27391583"
                  }
                ],
                "text": {
                  "status": "generated",
                  "div": "<div xmlns=\"http://www.w3.org/1999/xhtml\"><h3>Urinalysis</h3><table class=\"hl7__eu__lab__report\"><thead><tr><th>Test</th><th>06-JUL-2021</th><th>Reference&#xA0;Range</th><th>Unit</th></tr></thead><tbody><tr><td>Glucose [Mass/volume] in Urine by Test strip</td><td><strong>0.8 H</strong></td><td>0.8 - 0</td><td>mg/dL</td></tr><tr><td>Glucose [Presence] in Urine by Test strip</td><td>++</td><td></td><td></td></tr><tr><td>Bilirubin.total [Mass/volume] in Urine by Test strip</td><td>0.9</td><td>0 - 1</td><td>mg/dL</td></tr><tr><td>Bilirubin.total [Presence] in Urine by Test strip</td><td>Finding of bilirubin in urine</td><td></td><td></td></tr><tr><td>Ketones [Mass/volume] in Urine by Test strip</td><td><strong>5.8 H</strong></td><td>0 - 4</td><td>mg/dL</td></tr><tr><td>Specific gravity of Urine by Test strip</td><td><strong>1.0 L</strong></td><td>1.005 - 1.03</td><td>{nominal}</td></tr><tr><td>pH of Urine by Test strip</td><td>6.2</td><td>4.6 - 7</td><td>pH</td></tr><tr><td>Protein [Mass/volume] in Urine by Test strip</td><td><strong>266.6 H</strong></td><td>0 - 14</td><td>mg/dL</td></tr><tr><td>Protein [Presence] in Urine by Test strip</td><td>Urine protein test = ++</td><td></td><td></td></tr><tr><td>Nitrite [Presence] in Urine by Test strip</td><td>Urine nitrite negative</td><td></td><td></td></tr><tr><td>Hemoglobin [Presence] in Urine by Test strip</td><td>Urine blood test = negative</td><td></td><td></td></tr><tr><td>Leukocyte esterase [Presence] in Urine by Test strip</td><td>Urine leukocyte test negative</td><td></td><td></td></tr></tbody></table></div>"
                },
                "title": "Urinalysis"
              },
              {
                "code": {
                  "coding": [
                    {
                      "code": "$LP7846-1",
                      "system": "http://loinc.org",
                      "display": "Specimen information"
                    }
                  ],
                  "text": "Specimen information"
                },
                "entry": [
                  {
                    "reference": "urn:uuid:27a9e88c-33f4-4587-ac99-68f73e735319"
                  },
                  {
                    "reference": "urn:uuid:3f446b36-bddc-4fe7-be1e-e08ea13ef404"
                  },
                  {
                    "reference": "urn:uuid:57b4a6fd-d541-4800-bb43-df77fe97859f"
                  },
                  {
                    "reference": "urn:uuid:22130019-4988-4b8e-8359-8e12e2599e08"
                  }
                ],
                "text": {
                  "status": "generated",
                  "div": "<div xmlns=\"http://www.w3.org/1999/xhtml\"><h3>Specimen information</h3><table class=\"hl7__eu__lab__report\"><thead><tr><th>Test</th><th>06-JUL-2021</th><th>Specimen</th><th></th></tr></thead><tbody><tr><td>Appearance of Urine</td><td>Cloudy urine</td><td>Urine</td><td></td></tr><tr><td>Odor of Urine</td><td>Urine smell ammoniacal</td><td>Urine</td><td></td></tr><tr><td>Clarity of Urine</td><td>Translucent</td><td>Urine</td><td></td></tr><tr><td>Color of Urine</td><td>Brown color</td><td>Urine</td><td></td></tr></tbody></table></div>"
                },
                "title": "Specimen information"
              }
            ],
            "title": "Laboratory Report"
          },
          {
            "text": {
              "status": "generated",
              "div": "<div xmlns=\"http://www.w3.org/1999/xhtml\"><h3>Annotation</h3><table class=\"hl7__eu__lab__report\"><tr><th>Conclusion and Recommendations based on this report and previous findings known to us</th></tr><tr><td>The patient shows elevated creatinine, low total CO₂, and significant proteinuria, suggesting impaired renal function with possible metabolic acidosis. Urine findings (cloudy, brown, low specific gravity, protein, glucose, ketones) further support renal dysfunction, possibly nephrotic syndrome or diabetic nephropathy, though HbA1c is low. No evidence of urinary infection. Recommend urgent nephrology evaluation and further assessment of renal and metabolic status.</td></tr></table></div>"
            },
            "code": {
              "coding": [
                {
                  "system": "http://loinc.org",
                  "code": "48767-8",
                  "display": "Annotation comment"
                }
              ]
            },
            "title": "Annotation comment"
          }
        ],
        "status": "final",
        "subject": {
          "reference": "urn:uuid:28d7f823-1c94-4e22-b730-f4c233700741",
          "display": "Meaghan Neary"
        },
        "date": "2021-07-06T00:11:04Z",
        "title": "Laboratory Report",
        "confidentiality": "N"
      }
    },
    {
      "fullUrl": "urn:uuid:98a4aea4-d92f-4241-bf6a-2b8d268ba06b",
      "resource": {
        "resourceType": "DiagnosticReport",
        "id": "98a4aea4-d92f-4241-bf6a-2b8d268ba06b",
        "meta": {
          "profile": [
            "http://hl7.eu/fhir/laboratory/StructureDefinition/DiagnosticReport-eu-lab"
          ]
        },
        "identifier": [
          {
            "assigner": {
              "display": "HL7 Europe"
            },
            "system": "urn:oid:2.16.840.1.113883.2.51.999",
            "value": "644f8f75-e3f4-48a3-8894-ffed2750406d"
          }
        ],
        "extension": [
          {
            "url": "http://hl7.org/fhir/5.0/StructureDefinition/extension-DiagnosticReport.composition",
            "valueReference": {
              "reference": "urn:uuid:0ef43bfe-d47a-4fcd-ad49-226f81a09ece"
            }
          }
        ],
        "category": [
          {
            "coding": [
              {
                "code": "26436-6",
                "system": "http://loinc.org",
                "display": "Laboratory studies (set)"
              }
            ]
          }
        ],
        "specimen": [
          {
            "reference": "urn:uuid:22d2e1b7-bc20-4d47-af50-643741a8ad11"
          },
          {
            "reference": "urn:uuid:70c8f97d-afda-4e84-9a2c-4e05d5015a66"
          },
          {
            "reference": "urn:uuid:ba70e213-e74d-4e51-a4f7-26da0719da15"
          }
        ],
        "result": [
          {
            "reference": "urn:uuid:0c262870-5d5a-4a50-844b-53d5abdea84c"
          },
          {
            "reference": "urn:uuid:87019026-f62d-4125-8e4a-8399411bd6cf"
          },
          {
            "reference": "urn:uuid:e6424160-8410-4e17-bc5f-801848d9b105"
          },
          {
            "reference": "urn:uuid:df4c8be6-305b-4239-9207-d9d0dedc6972"
          },
          {
            "reference": "urn:uuid:018cf0f2-efe3-4962-8e79-e6f0f5cf845e"
          },
          {
            "reference": "urn:uuid:df85eaee-c65a-411f-9a73-82ea8cf5a8fe"
          },
          {
            "reference": "urn:uuid:f7126301-0988-43b3-9649-eb80ac73bc84"
          },
          {
            "reference": "urn:uuid:2dbf684b-3025-4f78-a5b4-94455b411449"
          },
          {
            "reference": "urn:uuid:27a9e88c-33f4-4587-ac99-68f73e735319"
          },
          {
            "reference": "urn:uuid:3f446b36-bddc-4fe7-be1e-e08ea13ef404"
          },
          {
            "reference": "urn:uuid:57b4a6fd-d541-4800-bb43-df77fe97859f"
          },
          {
            "reference": "urn:uuid:22130019-4988-4b8e-8359-8e12e2599e08"
          },
          {
            "reference": "urn:uuid:1761def4-2c66-4f97-9d1f-8bb5a56ed2dc"
          },
          {
            "reference": "urn:uuid:edf9d0aa-3d70-4bab-8f31-4f76f64f3247"
          },
          {
            "reference": "urn:uuid:e87dc069-c74b-4739-a87a-0bf614e032e3"
          },
          {
            "reference": "urn:uuid:0bd5f670-565b-49ba-be79-9020f1208825"
          },
          {
            "reference": "urn:uuid:3e47b746-0e2d-4c0f-aafd-a5a1d5b31ca3"
          },
          {
            "reference": "urn:uuid:0952a20e-a286-49ca-9427-d08dac565433"
          },
          {
            "reference": "urn:uuid:68366726-f5d9-462f-991d-d7480a851769"
          },
          {
            "reference": "urn:uuid:50d95e5f-4670-4bb2-ad2e-b4b1ff5e40fe"
          },
          {
            "reference": "urn:uuid:f1d0d9ad-ec10-4fe4-92ba-acd8fa8cd846"
          },
          {
            "reference": "urn:uuid:5af36efc-0613-4d7d-b483-3774b3a19a8b"
          },
          {
            "reference": "urn:uuid:777e4663-dcaa-43fa-b44b-563451a04499"
          },
          {
            "reference": "urn:uuid:68865fe5-2953-491b-8683-8ea34d01f3bd"
          },
          {
            "reference": "urn:uuid:ae876940-22e1-42e0-85d3-7eaf27391583"
          },
          {
            "reference": "urn:uuid:8626bb33-0ab3-4a14-b294-7080f9ab6b74"
          },
          {
            "reference": "urn:uuid:c7e7972f-1388-45f0-85d0-bb6dd54811b9"
          },
          {
            "reference": "urn:uuid:ec8026e0-6447-4acf-8f64-4ef953927695"
          },
          {
            "reference": "urn:uuid:76555d56-6d1f-45be-b404-846d88694e74"
          },
          {
            "reference": "urn:uuid:ca5fb456-d26c-4170-b7fe-184bd8bff2e6"
          },
          {
            "reference": "urn:uuid:b1bfdd5e-df2a-4e55-b900-1a7d08261e1e"
          },
          {
            "reference": "urn:uuid:6268a35d-01c6-48cd-b5da-d9b624348d0c"
          },
          {
            "reference": "urn:uuid:fe192ba0-c9a8-449d-97ea-3c14fa21e1d3"
          },
          {
            "reference": "urn:uuid:ac090b6a-49a0-41fc-a1d4-f376ed6517be"
          }
        ],
        "status": "registered",
        "code": {
          "coding": [
            {
              "code": "11502-2",
              "system": "http://loinc.org",
              "display": "Laboratory report"
            }
          ]
        },
        "subject": {
          "reference": "urn:uuid:28d7f823-1c94-4e22-b730-f4c233700741",
          "display": "Meaghan Neary"
        }
      }
    },
    {
      "fullUrl": "urn:uuid:28d7f823-1c94-4e22-b730-f4c233700741",
      "resource": {
        "resourceType": "Patient",
        "id": "28d7f823-1c94-4e22-b730-f4c233700741",
        "meta": {
          "security": [
            {
              "system": "http://terminology.hl7.org/CodeSystem/v3-ActReason",
              "code": "HTEST"
            },
            {
              "system": "http://terminology.hl7.org/CodeSystem/v3-ActReason",
              "code": "TRAIN"
            }
          ],
          "tag": [
            {
              "system": "https://synderai.net/fhir/CodeSystem/tags",
              "code": "synthetic",
              "display": "SYNDERAI Synthetic data"
            }
          ],
          "profile": [
            "http://hl7.eu/fhir/base/StructureDefinition/patient-eu-core"
          ]
        },
        "identifier": [
          {
            "type": {
              "coding": [
                {
                  "code": "PT",
                  "system": "http://terminology.hl7.org/CodeSystem/v2-0203"
                }
              ]
            },
            "system": "http://ec.europa.eu/identifier/eci",
            "value": "1586-567257-8"
          },
          {
            "type": {
              "coding": [
                {
                  "code": "MR",
                  "system": "http://terminology.hl7.org/CodeSystem/v2-0203"
                }
              ]
            },
            "system": "http://local.setting.eu/identifier",
            "value": "443e6379-f231-b364-3ccb-644740a1aa2a"
          }
        ],
        "name": [
          {
            "family": "Neary"
          },
          {
            "given": [
              "Meaghan"
            ]
          },
          {
            "text": "Meaghan Neary"
          }
        ],
        "address": [
          {
            "line": [
              "64 Linskey Street"
            ],
            "use": "home",
            "type": "physical",
            "postalCode": "D02",
            "city": "Dublin",
            "country": "Ireland"
          }
        ],
        "telecom": [
          {
            "system": "phone",
            "value": "001-967-573-0911x465"
          }
        ],
        "extension": [
          {
            "url": "http://hl7.org/fhir/StructureDefinition/patient-nationality",
            "valueCodeableConcept": {
              "coding": [
                {
                  "code": "IE",
                  "system": "http://hl7.org/fhir/ValueSet/country"
                }
              ]
            }
          }
        ],
        "text": {
          "status": "generated",
          "div": "<div xmlns=\"http://www.w3.org/1999/xhtml\"><table class=\"hl7__ips\"><tr><td>Meaghan Neary</td><td>female</td><td>19-Dec-1960</td></tr></table></div>"
        },
        "gender": "female",
        "birthDate": "1960-12-19"
      }
    },
    {
      "fullUrl": "urn:uuid:4eab2d32-ecec-426f-ad32-05a4883c8577",
      "resource": {
        "resourceType": "ServiceRequest",
        "id": "4eab2d32-ecec-426f-ad32-05a4883c8577",
        "meta": {
          "profile": [
            "http://hl7.eu/fhir/laboratory/StructureDefinition/ServiceRequest-eu-lab"
          ]
        },
        "identifier": [
          {
            "system": "http://example.org",
            "value": "cb134633-fb64-4e9a-aafc-8b0932831c77"
          }
        ],
        "specimen": [
          {
            "reference": "urn:uuid:22d2e1b7-bc20-4d47-af50-643741a8ad11"
          },
          {
            "reference": "urn:uuid:70c8f97d-afda-4e84-9a2c-4e05d5015a66"
          },
          {
            "reference": "urn:uuid:ba70e213-e74d-4e51-a4f7-26da0719da15"
          }
        ],
        "reasonCode": [
          {
            "coding": [
              {
                "code": "55822004",
                "system": "http://snomed.info/sct",
                "display": "Hyperlipidemia"
              }
            ]
          },
          {
            "coding": [
              {
                "code": "433144002",
                "system": "http://snomed.info/sct",
                "display": "Chronic kidney disease stage 3"
              }
            ]
          },
          {
            "coding": [
              {
                "code": "157141000119108",
                "system": "http://snomed.info/sct",
                "display": "Proteinuria due to type 2 diabetes mellitus"
              }
            ]
          },
          {
            "coding": [
              {
                "code": "431856006",
                "system": "http://snomed.info/sct",
                "display": "Chronic kidney disease stage 2"
              }
            ]
          },
          {
            "coding": [
              {
                "code": "90781000119102",
                "system": "http://snomed.info/sct",
                "display": "Microalbuminuria due to type 2 diabetes mellitus"
              }
            ]
          },
          {
            "coding": [
              {
                "code": "127013003",
                "system": "http://snomed.info/sct",
                "display": "Disorder of kidney due to diabetes mellitus"
              }
            ]
          },
          {
            "coding": [
              {
                "code": "431855005",
                "system": "http://snomed.info/sct",
                "display": "Chronic kidney disease stage 1"
              }
            ]
          },
          {
            "coding": [
              {
                "code": "237602007",
                "system": "http://snomed.info/sct",
                "display": "Metabolic syndrome X"
              }
            ]
          },
          {
            "coding": [
              {
                "code": "271737000",
                "system": "http://snomed.info/sct",
                "display": "Anemia"
              }
            ]
          },
          {
            "coding": [
              {
                "code": "15777000",
                "system": "http://snomed.info/sct",
                "display": "Prediabetes"
              }
            ]
          },
          {
            "coding": [
              {
                "code": "59621000",
                "system": "http://snomed.info/sct",
                "display": "Essential hypertension"
              }
            ]
          }
        ],
        "status": "active",
        "intent": "order",
        "code": {
          "coding": [
            {
              "code": "108252007",
              "system": "http://snomed.info/sct",
              "display": "Laboratory procedure"
            }
          ]
        },
        "subject": {
          "reference": "urn:uuid:28d7f823-1c94-4e22-b730-f4c233700741",
          "display": "Meaghan Neary"
        },
        "requester": {
          "reference": "urn:uuid:93a2af44-97ad-4625-8f88-07c6f724c91d"
        }
      }
    },
    {
      "fullUrl": "urn:uuid:93a2af44-97ad-4625-8f88-07c6f724c91d",
      "resource": {
        "resourceType": "PractitionerRole",
        "id": "93a2af44-97ad-4625-8f88-07c6f724c91d",
        "meta": {
          "profile": [
            "http://hl7.eu/fhir/base/StructureDefinition/practitionerRole-eu"
          ]
        },
        "text": {
          "status": "generated",
          "div": "<div xmlns=\"http://www.w3.org/1999/xhtml\">Provider Role Id: 93a2af44-97ad-4625-8f88-07c6f724c91d</div>"
        },
        "organization": {
          "reference": "urn:uuid:9803d716-4b8e-40ed-bbd6-6fd1f1c23c36"
        }
      }
    },
    {
      "fullUrl": "urn:uuid:9803d716-4b8e-40ed-bbd6-6fd1f1c23c36",
      "resource": {
        "resourceType": "Organization",
        "id": "9803d716-4b8e-40ed-bbd6-6fd1f1c23c36",
        "meta": {
          "profile": [
            "http://hl7.eu/fhir/base/StructureDefinition/organization-eu"
          ]
        },
        "identifier": [
          {
            "assigner": {
              "display": "HL7 Europe"
            },
            "system": "urn:oid:2.16.840.1.113883.2.51.999",
            "value": "8d5bd6b1-bb47-48f6-873e-7b74c03dc396"
          }
        ],
        "address": [
          {
            "line": [
              "Parnell Square West nan"
            ],
            "city": "Dublin",
            "postalCode": "D01",
            "country": "Ireland"
          }
        ],
        "text": {
          "status": "generated",
          "div": "<div xmlns=\"http://www.w3.org/1999/xhtml\">Provider Organization: Rotunda Hospital</div>"
        },
        "name": "Rotunda Hospital"
      }
    },
    {
      "fullUrl": "urn:uuid:22d2e1b7-bc20-4d47-af50-643741a8ad11",
      "resource": {
        "resourceType": "Specimen",
        "id": "22d2e1b7-bc20-4d47-af50-643741a8ad11",
        "meta": {
          "profile": [
            "http://hl7.eu/fhir/laboratory/StructureDefinition/Specimen-eu-lab"
          ]
        },
        "collection": {
          "collectedDateTime": "2021-07-05"
        },
        "text": {
          "status": "generated",
          "div": "<div xmlns=\"http://www.w3.org/1999/xhtml\"><table class=\"hl7__eu__lab__report\"><tr><th>Specimen</th><th>Collection Date</th></tr><tr><td>Acellular blood (serum or plasma) specimen</td><td><span class=\"nb\">05-Jul-2021</span></td></tr></table></div>"
        },
        "type": {
          "coding": [
            {
              "code": "122592007",
              "system": "http://snomed.info/sct",
              "display": "Acellular blood (serum or plasma) specimen"
            }
          ]
        }
      }
    },
    {
      "fullUrl": "urn:uuid:70c8f97d-afda-4e84-9a2c-4e05d5015a66",
      "resource": {
        "resourceType": "Specimen",
        "id": "70c8f97d-afda-4e84-9a2c-4e05d5015a66",
        "meta": {
          "profile": [
            "http://hl7.eu/fhir/laboratory/StructureDefinition/Specimen-eu-lab"
          ]
        },
        "collection": {
          "collectedDateTime": "2021-07-05"
        },
        "text": {
          "status": "generated",
          "div": "<div xmlns=\"http://www.w3.org/1999/xhtml\"><table class=\"hl7__eu__lab__report\"><tr><th>Specimen</th><th>Collection Date</th></tr><tr><td>Urine specimen</td><td><span class=\"nb\">05-Jul-2021</span></td></tr></table></div>"
        },
        "type": {
          "coding": [
            {
              "code": "122575003",
              "system": "http://snomed.info/sct",
              "display": "Urine specimen"
            }
          ]
        }
      }
    },
    {
      "fullUrl": "urn:uuid:ba70e213-e74d-4e51-a4f7-26da0719da15",
      "resource": {
        "resourceType": "Specimen",
        "id": "ba70e213-e74d-4e51-a4f7-26da0719da15",
        "meta": {
          "profile": [
            "http://hl7.eu/fhir/laboratory/StructureDefinition/Specimen-eu-lab"
          ]
        },
        "collection": {
          "collectedDateTime": "2021-07-05"
        },
        "text": {
          "status": "generated",
          "div": "<div xmlns=\"http://www.w3.org/1999/xhtml\"><table class=\"hl7__eu__lab__report\"><tr><th>Specimen</th><th>Collection Date</th></tr><tr><td>Whole blood specimen (specimen)</td><td><span class=\"nb\">05-Jul-2021</span></td></tr></table></div>"
        },
        "type": {
          "coding": [
            {
              "code": "258580003",
              "system": "http://snomed.info/sct",
              "display": "Whole blood specimen (specimen)"
            }
          ]
        }
      }
    },
    {
      "fullUrl": "urn:uuid:0c262870-5d5a-4a50-844b-53d5abdea84c",
      "resource": {
        "resourceType": "Observation",
        "id": "0c262870-5d5a-4a50-844b-53d5abdea84c",
        "meta": {
          "profile": [
            "http://hl7.eu/fhir/laboratory/StructureDefinition/Observation-resultslab-eu-lab"
          ]
        },
        "performer": [
          {
            "display": "The Central European Lab"
          }
        ],
        "category": [
          {
            "coding": [
              {
                "system": "http://terminology.hl7.org/CodeSystem/observation-category",
                "code": "laboratory"
              }
            ]
          }
        ],
        "code": {
          "coding": [
            {
              "code": "2345-7",
              "system": "http://loinc.org",
              "display": "Glucose [Mass/volume] in Serum or Plasma"
            }
          ],
          "text": "Glucose [Mass/volume] in Serum or Plasma"
        },
        "valueQuantity": {
          "system": "http://unitsofmeasure.org",
          "value": 89.9,
          "unit": "mg/dL",
          "code": "mg/dL"
        },
        "referenceRange": [
          {
            "low": {
              "value": 70,
              "code": "mg/dL",
              "system": "http://unitsofmeasure.org"
            }
          },
          {
            "high": {
              "value": 99,
              "code": "mg/dL",
              "system": "http://unitsofmeasure.org"
            }
          }
        ],
        "text": {
          "status": "generated",
          "div": "<div xmlns=\"http://www.w3.org/1999/xhtml\"><table class=\"hl7__eu__lab__report\"><tr><th>Test</th><th>06-Jul-2021</th><th>Reference&#xA0;Range</th><th>Unit</th></tr><tr><td>Glucose [Mass/volume] in Serum or Plasma</td><td>89.9</td><td>70 - 99</td><td></td><td>mg/dL</td></tr></table></div>"
        },
        "status": "final",
        "subject": {
          "reference": "urn:uuid:28d7f823-1c94-4e22-b730-f4c233700741",
          "display": "Meaghan Neary"
        },
        "effectiveDateTime": "2021-07-05T22:11:04Z",
        "specimen": {
          "reference": "urn:uuid:22d2e1b7-bc20-4d47-af50-643741a8ad11"
        }
      }
    },
    {
      "fullUrl": "urn:uuid:87019026-f62d-4125-8e4a-8399411bd6cf",
      "resource": {
        "resourceType": "Observation",
        "id": "87019026-f62d-4125-8e4a-8399411bd6cf",
        "meta": {
          "profile": [
            "http://hl7.eu/fhir/laboratory/StructureDefinition/Observation-resultslab-eu-lab"
          ]
        },
        "performer": [
          {
            "display": "The Central European Lab"
          }
        ],
        "category": [
          {
            "coding": [
              {
                "system": "http://terminology.hl7.org/CodeSystem/observation-category",
                "code": "laboratory"
              }
            ]
          }
        ],
        "code": {
          "coding": [
            {
              "code": "3094-0",
              "system": "http://loinc.org",
              "display": "Urea nitrogen [Mass/volume] in Serum or Plasma"
            }
          ],
          "text": "Urea nitrogen [Mass/volume] in Serum or Plasma"
        },
        "valueQuantity": {
          "system": "http://unitsofmeasure.org",
          "value": 16.9,
          "unit": "mg/dL",
          "code": "mg/dL"
        },
        "referenceRange": [
          {
            "low": {
              "value": 7,
              "code": "mg/dL",
              "system": "http://unitsofmeasure.org"
            }
          },
          {
            "high": {
              "value": 50,
              "code": "mg/dL",
              "system": "http://unitsofmeasure.org"
            }
          }
        ],
        "text": {
          "status": "generated",
          "div": "<div xmlns=\"http://www.w3.org/1999/xhtml\"><table class=\"hl7__eu__lab__report\"><tr><th>Test</th><th>06-Jul-2021</th><th>Reference&#xA0;Range</th><th>Unit</th></tr><tr><td>Urea nitrogen [Mass/volume] in Serum or Plasma</td><td>16.9</td><td>7 - 50</td><td></td><td>mg/dL</td></tr></table></div>"
        },
        "status": "final",
        "subject": {
          "reference": "urn:uuid:28d7f823-1c94-4e22-b730-f4c233700741",
          "display": "Meaghan Neary"
        },
        "effectiveDateTime": "2021-07-05T22:11:04Z",
        "specimen": {
          "reference": "urn:uuid:22d2e1b7-bc20-4d47-af50-643741a8ad11"
        }
      }
    },
    {
      "fullUrl": "urn:uuid:e6424160-8410-4e17-bc5f-801848d9b105",
      "resource": {
        "resourceType": "Observation",
        "id": "e6424160-8410-4e17-bc5f-801848d9b105",
        "meta": {
          "profile": [
            "http://hl7.eu/fhir/laboratory/StructureDefinition/Observation-resultslab-eu-lab"
          ]
        },
        "performer": [
          {
            "display": "The Central European Lab"
          }
        ],
        "category": [
          {
            "coding": [
              {
                "system": "http://terminology.hl7.org/CodeSystem/observation-category",
                "code": "laboratory"
              }
            ]
          }
        ],
        "code": {
          "coding": [
            {
              "code": "2160-0",
              "system": "http://loinc.org",
              "display": "Creatinine [Mass/volume] in Serum or Plasma"
            }
          ],
          "text": "Creatinine [Mass/volume] in Serum or Plasma"
        },
        "valueQuantity": {
          "system": "http://unitsofmeasure.org",
          "value": 2,
          "unit": "mg/dL",
          "code": "mg/dL"
        },
        "referenceRange": [
          {
            "low": {
              "value": 0.6,
              "code": "mg/dL",
              "system": "http://unitsofmeasure.org"
            }
          },
          {
            "high": {
              "value": 1.1,
              "code": "mg/dL",
              "system": "http://unitsofmeasure.org"
            }
          }
        ],
        "interpretation": [
          {
            "coding": [
              {
                "code": "H",
                "system": "http://terminology.hl7.org/CodeSystem/v3-ObservationInterpretation",
                "display": "High"
              }
            ]
          }
        ],
        "text": {
          "status": "generated",
          "div": "<div xmlns=\"http://www.w3.org/1999/xhtml\"><table class=\"hl7__eu__lab__report\"><tr><th>Test</th><th>06-Jul-2021</th><th>Reference&#xA0;Range</th><th>Unit</th></tr><tr><td>Creatinine [Mass/volume] in Serum or Plasma</td><td>2.0</td><td>0.6 - 1.1</td><td>H</td><td>mg/dL</td></tr></table></div>"
        },
        "status": "final",
        "subject": {
          "reference": "urn:uuid:28d7f823-1c94-4e22-b730-f4c233700741",
          "display": "Meaghan Neary"
        },
        "effectiveDateTime": "2021-07-05T22:11:04Z",
        "specimen": {
          "reference": "urn:uuid:22d2e1b7-bc20-4d47-af50-643741a8ad11"
        }
      }
    },
    {
      "fullUrl": "urn:uuid:df4c8be6-305b-4239-9207-d9d0dedc6972",
      "resource": {
        "resourceType": "Observation",
        "id": "df4c8be6-305b-4239-9207-d9d0dedc6972",
        "meta": {
          "profile": [
            "http://hl7.eu/fhir/laboratory/StructureDefinition/Observation-resultslab-eu-lab"
          ]
        },
        "performer": [
          {
            "display": "The Central European Lab"
          }
        ],
        "category": [
          {
            "coding": [
              {
                "system": "http://terminology.hl7.org/CodeSystem/observation-category",
                "code": "laboratory"
              }
            ]
          }
        ],
        "code": {
          "coding": [
            {
              "code": "17861-6",
              "system": "http://loinc.org",
              "display": "Calcium [Mass/volume] in Serum or Plasma"
            }
          ],
          "text": "Calcium [Mass/volume] in Serum or Plasma"
        },
        "valueQuantity": {
          "system": "http://unitsofmeasure.org",
          "value": 10.1,
          "unit": "mg/dL",
          "code": "mg/dL"
        },
        "referenceRange": [
          {
            "low": {
              "value": 8.6,
              "code": "mg/dL",
              "system": "http://unitsofmeasure.org"
            }
          },
          {
            "high": {
              "value": 10.4,
              "code": "mg/dL",
              "system": "http://unitsofmeasure.org"
            }
          }
        ],
        "text": {
          "status": "generated",
          "div": "<div xmlns=\"http://www.w3.org/1999/xhtml\"><table class=\"hl7__eu__lab__report\"><tr><th>Test</th><th>06-Jul-2021</th><th>Reference&#xA0;Range</th><th>Unit</th></tr><tr><td>Calcium [Mass/volume] in Serum or Plasma</td><td>10.1</td><td>8.6 - 10.4</td><td></td><td>mg/dL</td></tr></table></div>"
        },
        "status": "final",
        "subject": {
          "reference": "urn:uuid:28d7f823-1c94-4e22-b730-f4c233700741",
          "display": "Meaghan Neary"
        },
        "effectiveDateTime": "2021-07-05T22:11:04Z",
        "specimen": {
          "reference": "urn:uuid:22d2e1b7-bc20-4d47-af50-643741a8ad11"
        }
      }
    },
    {
      "fullUrl": "urn:uuid:018cf0f2-efe3-4962-8e79-e6f0f5cf845e",
      "resource": {
        "resourceType": "Observation",
        "id": "018cf0f2-efe3-4962-8e79-e6f0f5cf845e",
        "meta": {
          "profile": [
            "http://hl7.eu/fhir/laboratory/StructureDefinition/Observation-resultslab-eu-lab"
          ]
        },
        "performer": [
          {
            "display": "The Central European Lab"
          }
        ],
        "category": [
          {
            "coding": [
              {
                "system": "http://terminology.hl7.org/CodeSystem/observation-category",
                "code": "laboratory"
              }
            ]
          }
        ],
        "code": {
          "coding": [
            {
              "code": "2951-2",
              "system": "http://loinc.org",
              "display": "Sodium [Moles/volume] in Serum or Plasma"
            }
          ],
          "text": "Sodium [Moles/volume] in Serum or Plasma"
        },
        "valueQuantity": {
          "system": "http://unitsofmeasure.org",
          "value": 137,
          "unit": "mmol/L",
          "code": "mmol/L"
        },
        "referenceRange": [
          {
            "low": {
              "value": 135,
              "code": "mmol/L",
              "system": "http://unitsofmeasure.org"
            }
          },
          {
            "high": {
              "value": 145,
              "code": "mmol/L",
              "system": "http://unitsofmeasure.org"
            }
          }
        ],
        "text": {
          "status": "generated",
          "div": "<div xmlns=\"http://www.w3.org/1999/xhtml\"><table class=\"hl7__eu__lab__report\"><tr><th>Test</th><th>06-Jul-2021</th><th>Reference&#xA0;Range</th><th>Unit</th></tr><tr><td>Sodium [Moles/volume] in Serum or Plasma</td><td>137.0</td><td>135 - 145</td><td></td><td>mmol/L</td></tr></table></div>"
        },
        "status": "final",
        "subject": {
          "reference": "urn:uuid:28d7f823-1c94-4e22-b730-f4c233700741",
          "display": "Meaghan Neary"
        },
        "effectiveDateTime": "2021-07-05T22:11:04Z",
        "specimen": {
          "reference": "urn:uuid:22d2e1b7-bc20-4d47-af50-643741a8ad11"
        }
      }
    },
    {
      "fullUrl": "urn:uuid:df85eaee-c65a-411f-9a73-82ea8cf5a8fe",
      "resource": {
        "resourceType": "Observation",
        "id": "df85eaee-c65a-411f-9a73-82ea8cf5a8fe",
        "meta": {
          "profile": [
            "http://hl7.eu/fhir/laboratory/StructureDefinition/Observation-resultslab-eu-lab"
          ]
        },
        "performer": [
          {
            "display": "The Central European Lab"
          }
        ],
        "category": [
          {
            "coding": [
              {
                "system": "http://terminology.hl7.org/CodeSystem/observation-category",
                "code": "laboratory"
              }
            ]
          }
        ],
        "code": {
          "coding": [
            {
              "code": "2823-3",
              "system": "http://loinc.org",
              "display": "Potassium [Moles/volume] in Serum or Plasma"
            }
          ],
          "text": "Potassium [Moles/volume] in Serum or Plasma"
        },
        "valueQuantity": {
          "system": "http://unitsofmeasure.org",
          "value": 4.4,
          "unit": "mmol/L",
          "code": "mmol/L"
        },
        "referenceRange": [
          {
            "low": {
              "value": 3.5,
              "code": "mmol/L",
              "system": "http://unitsofmeasure.org"
            }
          },
          {
            "high": {
              "value": 5.1,
              "code": "mmol/L",
              "system": "http://unitsofmeasure.org"
            }
          }
        ],
        "text": {
          "status": "generated",
          "div": "<div xmlns=\"http://www.w3.org/1999/xhtml\"><table class=\"hl7__eu__lab__report\"><tr><th>Test</th><th>06-Jul-2021</th><th>Reference&#xA0;Range</th><th>Unit</th></tr><tr><td>Potassium [Moles/volume] in Serum or Plasma</td><td>4.4</td><td>3.5 - 5.1</td><td></td><td>mmol/L</td></tr></table></div>"
        },
        "status": "final",
        "subject": {
          "reference": "urn:uuid:28d7f823-1c94-4e22-b730-f4c233700741",
          "display": "Meaghan Neary"
        },
        "effectiveDateTime": "2021-07-05T22:11:04Z",
        "specimen": {
          "reference": "urn:uuid:22d2e1b7-bc20-4d47-af50-643741a8ad11"
        }
      }
    },
    {
      "fullUrl": "urn:uuid:f7126301-0988-43b3-9649-eb80ac73bc84",
      "resource": {
        "resourceType": "Observation",
        "id": "f7126301-0988-43b3-9649-eb80ac73bc84",
        "meta": {
          "profile": [
            "http://hl7.eu/fhir/laboratory/StructureDefinition/Observation-resultslab-eu-lab"
          ]
        },
        "performer": [
          {
            "display": "The Central European Lab"
          }
        ],
        "category": [
          {
            "coding": [
              {
                "system": "http://terminology.hl7.org/CodeSystem/observation-category",
                "code": "laboratory"
              }
            ]
          }
        ],
        "code": {
          "coding": [
            {
              "code": "2075-0",
              "system": "http://loinc.org",
              "display": "Chloride [Moles/volume] in Serum or Plasma"
            }
          ],
          "text": "Chloride [Moles/volume] in Serum or Plasma"
        },
        "valueQuantity": {
          "system": "http://unitsofmeasure.org",
          "value": 101.8,
          "unit": "mmol/L",
          "code": "mmol/L"
        },
        "referenceRange": [
          {
            "low": {
              "value": 98,
              "code": "mmol/L",
              "system": "http://unitsofmeasure.org"
            }
          },
          {
            "high": {
              "value": 108,
              "code": "mmol/L",
              "system": "http://unitsofmeasure.org"
            }
          }
        ],
        "text": {
          "status": "generated",
          "div": "<div xmlns=\"http://www.w3.org/1999/xhtml\"><table class=\"hl7__eu__lab__report\"><tr><th>Test</th><th>06-Jul-2021</th><th>Reference&#xA0;Range</th><th>Unit</th></tr><tr><td>Chloride [Moles/volume] in Serum or Plasma</td><td>101.8</td><td>98 - 108</td><td></td><td>mmol/L</td></tr></table></div>"
        },
        "status": "final",
        "subject": {
          "reference": "urn:uuid:28d7f823-1c94-4e22-b730-f4c233700741",
          "display": "Meaghan Neary"
        },
        "effectiveDateTime": "2021-07-05T22:11:04Z",
        "specimen": {
          "reference": "urn:uuid:22d2e1b7-bc20-4d47-af50-643741a8ad11"
        }
      }
    },
    {
      "fullUrl": "urn:uuid:2dbf684b-3025-4f78-a5b4-94455b411449",
      "resource": {
        "resourceType": "Observation",
        "id": "2dbf684b-3025-4f78-a5b4-94455b411449",
        "meta": {
          "profile": [
            "http://hl7.eu/fhir/laboratory/StructureDefinition/Observation-resultslab-eu-lab"
          ]
        },
        "performer": [
          {
            "display": "The Central European Lab"
          }
        ],
        "category": [
          {
            "coding": [
              {
                "system": "http://terminology.hl7.org/CodeSystem/observation-category",
                "code": "laboratory"
              }
            ]
          }
        ],
        "code": {
          "coding": [
            {
              "code": "2028-9",
              "system": "http://loinc.org",
              "display": "Carbon dioxide, total [Moles/volume] in Serum or Plasma"
            }
          ],
          "text": "Carbon dioxide, total [Moles/volume] in Serum or Plasma"
        },
        "valueQuantity": {
          "system": "http://unitsofmeasure.org",
          "value": 20.6,
          "unit": "mmol/L",
          "code": "mmol/L"
        },
        "referenceRange": [
          {
            "low": {
              "value": 22,
              "code": "mmol/L",
              "system": "http://unitsofmeasure.org"
            }
          },
          {
            "high": {
              "value": 32,
              "code": "mmol/L",
              "system": "http://unitsofmeasure.org"
            }
          }
        ],
        "interpretation": [
          {
            "coding": [
              {
                "code": "L",
                "system": "http://terminology.hl7.org/CodeSystem/v3-ObservationInterpretation",
                "display": "Low"
              }
            ]
          }
        ],
        "text": {
          "status": "generated",
          "div": "<div xmlns=\"http://www.w3.org/1999/xhtml\"><table class=\"hl7__eu__lab__report\"><tr><th>Test</th><th>06-Jul-2021</th><th>Reference&#xA0;Range</th><th>Unit</th></tr><tr><td>Carbon dioxide, total [Moles/volume] in Serum or Plasma</td><td>20.6</td><td>22 - 32</td><td>L</td><td>mmol/L</td></tr></table></div>"
        },
        "status": "final",
        "subject": {
          "reference": "urn:uuid:28d7f823-1c94-4e22-b730-f4c233700741",
          "display": "Meaghan Neary"
        },
        "effectiveDateTime": "2021-07-05T22:11:04Z",
        "specimen": {
          "reference": "urn:uuid:22d2e1b7-bc20-4d47-af50-643741a8ad11"
        }
      }
    },
    {
      "fullUrl": "urn:uuid:27a9e88c-33f4-4587-ac99-68f73e735319",
      "resource": {
        "resourceType": "Observation",
        "id": "27a9e88c-33f4-4587-ac99-68f73e735319",
        "meta": {
          "profile": [
            "http://hl7.eu/fhir/laboratory/StructureDefinition/Observation-resultslab-eu-lab"
          ]
        },
        "performer": [
          {
            "display": "The Central European Lab"
          }
        ],
        "category": [
          {
            "coding": [
              {
                "system": "http://terminology.hl7.org/CodeSystem/observation-category",
                "code": "laboratory"
              }
            ]
          }
        ],
        "code": {
          "coding": [
            {
              "code": "5767-9",
              "system": "http://loinc.org",
              "display": "Appearance of Urine"
            }
          ],
          "text": "Appearance of Urine"
        },
        "text": {
          "status": "generated",
          "div": "<div xmlns=\"http://www.w3.org/1999/xhtml\"><table class=\"hl7__eu__lab__report\"><tr><th>Test</th><th>06-Jul-2021</th><th>Reference&#xA0;Range</th><th>Unit</th></tr><tr><td>Appearance of Urine</td></tr></table></div>"
        },
        "status": "final",
        "subject": {
          "reference": "urn:uuid:28d7f823-1c94-4e22-b730-f4c233700741",
          "display": "Meaghan Neary"
        },
        "effectiveDateTime": "2021-07-05T22:11:04Z",
        "specimen": {
          "reference": "urn:uuid:70c8f97d-afda-4e84-9a2c-4e05d5015a66"
        }
      }
    },
    {
      "fullUrl": "urn:uuid:3f446b36-bddc-4fe7-be1e-e08ea13ef404",
      "resource": {
        "resourceType": "Observation",
        "id": "3f446b36-bddc-4fe7-be1e-e08ea13ef404",
        "meta": {
          "profile": [
            "http://hl7.eu/fhir/laboratory/StructureDefinition/Observation-resultslab-eu-lab"
          ]
        },
        "performer": [
          {
            "display": "The Central European Lab"
          }
        ],
        "category": [
          {
            "coding": [
              {
                "system": "http://terminology.hl7.org/CodeSystem/observation-category",
                "code": "laboratory"
              }
            ]
          }
        ],
        "code": {
          "coding": [
            {
              "code": "34533-0",
              "system": "http://loinc.org",
              "display": "Odor of Urine"
            }
          ],
          "text": "Odor of Urine"
        },
        "text": {
          "status": "generated",
          "div": "<div xmlns=\"http://www.w3.org/1999/xhtml\"><table class=\"hl7__eu__lab__report\"><tr><th>Test</th><th>06-Jul-2021</th><th>Reference&#xA0;Range</th><th>Unit</th></tr><tr><td>Odor of Urine</td></tr></table></div>"
        },
        "status": "final",
        "subject": {
          "reference": "urn:uuid:28d7f823-1c94-4e22-b730-f4c233700741",
          "display": "Meaghan Neary"
        },
        "effectiveDateTime": "2021-07-05T22:11:04Z",
        "specimen": {
          "reference": "urn:uuid:70c8f97d-afda-4e84-9a2c-4e05d5015a66"
        }
      }
    },
    {
      "fullUrl": "urn:uuid:57b4a6fd-d541-4800-bb43-df77fe97859f",
      "resource": {
        "resourceType": "Observation",
        "id": "57b4a6fd-d541-4800-bb43-df77fe97859f",
        "meta": {
          "profile": [
            "http://hl7.eu/fhir/laboratory/StructureDefinition/Observation-resultslab-eu-lab"
          ]
        },
        "performer": [
          {
            "display": "The Central European Lab"
          }
        ],
        "category": [
          {
            "coding": [
              {
                "system": "http://terminology.hl7.org/CodeSystem/observation-category",
                "code": "laboratory"
              }
            ]
          }
        ],
        "code": {
          "coding": [
            {
              "code": "32167-9",
              "system": "http://loinc.org",
              "display": "Clarity of Urine"
            }
          ],
          "text": "Clarity of Urine"
        },
        "text": {
          "status": "generated",
          "div": "<div xmlns=\"http://www.w3.org/1999/xhtml\"><table class=\"hl7__eu__lab__report\"><tr><th>Test</th><th>06-Jul-2021</th><th>Reference&#xA0;Range</th><th>Unit</th></tr><tr><td>Clarity of Urine</td></tr></table></div>"
        },
        "status": "final",
        "subject": {
          "reference": "urn:uuid:28d7f823-1c94-4e22-b730-f4c233700741",
          "display": "Meaghan Neary"
        },
        "effectiveDateTime": "2021-07-05T22:11:04Z",
        "specimen": {
          "reference": "urn:uuid:70c8f97d-afda-4e84-9a2c-4e05d5015a66"
        }
      }
    },
    {
      "fullUrl": "urn:uuid:22130019-4988-4b8e-8359-8e12e2599e08",
      "resource": {
        "resourceType": "Observation",
        "id": "22130019-4988-4b8e-8359-8e12e2599e08",
        "meta": {
          "profile": [
            "http://hl7.eu/fhir/laboratory/StructureDefinition/Observation-resultslab-eu-lab"
          ]
        },
        "performer": [
          {
            "display": "The Central European Lab"
          }
        ],
        "category": [
          {
            "coding": [
              {
                "system": "http://terminology.hl7.org/CodeSystem/observation-category",
                "code": "laboratory"
              }
            ]
          }
        ],
        "code": {
          "coding": [
            {
              "code": "5778-6",
              "system": "http://loinc.org",
              "display": "Color of Urine"
            }
          ],
          "text": "Color of Urine"
        },
        "text": {
          "status": "generated",
          "div": "<div xmlns=\"http://www.w3.org/1999/xhtml\"><table class=\"hl7__eu__lab__report\"><tr><th>Test</th><th>06-Jul-2021</th><th>Reference&#xA0;Range</th><th>Unit</th></tr><tr><td>Color of Urine</td></tr></table></div>"
        },
        "status": "final",
        "subject": {
          "reference": "urn:uuid:28d7f823-1c94-4e22-b730-f4c233700741",
          "display": "Meaghan Neary"
        },
        "effectiveDateTime": "2021-07-05T22:11:04Z",
        "specimen": {
          "reference": "urn:uuid:70c8f97d-afda-4e84-9a2c-4e05d5015a66"
        }
      }
    },
    {
      "fullUrl": "urn:uuid:1761def4-2c66-4f97-9d1f-8bb5a56ed2dc",
      "resource": {
        "resourceType": "Observation",
        "id": "1761def4-2c66-4f97-9d1f-8bb5a56ed2dc",
        "meta": {
          "profile": [
            "http://hl7.eu/fhir/laboratory/StructureDefinition/Observation-resultslab-eu-lab"
          ]
        },
        "performer": [
          {
            "display": "The Central European Lab"
          }
        ],
        "category": [
          {
            "coding": [
              {
                "system": "http://terminology.hl7.org/CodeSystem/observation-category",
                "code": "laboratory"
              }
            ]
          }
        ],
        "code": {
          "coding": [
            {
              "code": "5792-7",
              "system": "http://loinc.org",
              "display": "Glucose [Mass/volume] in Urine by Test strip"
            }
          ],
          "text": "Glucose [Mass/volume] in Urine by Test strip"
        },
        "valueQuantity": {
          "system": "http://unitsofmeasure.org",
          "value": 0.8,
          "unit": "mg/dL",
          "code": "mg/dL"
        },
        "referenceRange": [
          {
            "low": {
              "value": 0.8,
              "code": "mg/dL",
              "system": "http://unitsofmeasure.org"
            }
          },
          {
            "high": {
              "value": 0,
              "code": "mg/dL",
              "system": "http://unitsofmeasure.org"
            }
          }
        ],
        "interpretation": [
          {
            "coding": [
              {
                "code": "H",
                "system": "http://terminology.hl7.org/CodeSystem/v3-ObservationInterpretation",
                "display": "High"
              }
            ]
          }
        ],
        "text": {
          "status": "generated",
          "div": "<div xmlns=\"http://www.w3.org/1999/xhtml\"><table class=\"hl7__eu__lab__report\"><tr><th>Test</th><th>06-Jul-2021</th><th>Reference&#xA0;Range</th><th>Unit</th></tr><tr><td>Glucose [Mass/volume] in Urine by Test strip</td><td>0.8</td><td>0.8 - 0</td><td>H</td><td>mg/dL</td></tr></table></div>"
        },
        "status": "final",
        "subject": {
          "reference": "urn:uuid:28d7f823-1c94-4e22-b730-f4c233700741",
          "display": "Meaghan Neary"
        },
        "effectiveDateTime": "2021-07-05T22:11:04Z",
        "specimen": {
          "reference": "urn:uuid:70c8f97d-afda-4e84-9a2c-4e05d5015a66"
        }
      }
    },
    {
      "fullUrl": "urn:uuid:edf9d0aa-3d70-4bab-8f31-4f76f64f3247",
      "resource": {
        "resourceType": "Observation",
        "id": "edf9d0aa-3d70-4bab-8f31-4f76f64f3247",
        "meta": {
          "profile": [
            "http://hl7.eu/fhir/laboratory/StructureDefinition/Observation-resultslab-eu-lab"
          ]
        },
        "performer": [
          {
            "display": "The Central European Lab"
          }
        ],
        "category": [
          {
            "coding": [
              {
                "system": "http://terminology.hl7.org/CodeSystem/observation-category",
                "code": "laboratory"
              }
            ]
          }
        ],
        "code": {
          "coding": [
            {
              "code": "25428-4",
              "system": "http://loinc.org",
              "display": "Glucose [Presence] in Urine by Test strip"
            }
          ],
          "text": "Glucose [Presence] in Urine by Test strip"
        },
        "text": {
          "status": "generated",
          "div": "<div xmlns=\"http://www.w3.org/1999/xhtml\"><table class=\"hl7__eu__lab__report\"><tr><th>Test</th><th>06-Jul-2021</th><th>Reference&#xA0;Range</th><th>Unit</th></tr><tr><td>Glucose [Presence] in Urine by Test strip</td></tr></table></div>"
        },
        "status": "final",
        "subject": {
          "reference": "urn:uuid:28d7f823-1c94-4e22-b730-f4c233700741",
          "display": "Meaghan Neary"
        },
        "effectiveDateTime": "2021-07-05T22:11:04Z",
        "specimen": {
          "reference": "urn:uuid:70c8f97d-afda-4e84-9a2c-4e05d5015a66"
        }
      }
    },
    {
      "fullUrl": "urn:uuid:e87dc069-c74b-4739-a87a-0bf614e032e3",
      "resource": {
        "resourceType": "Observation",
        "id": "e87dc069-c74b-4739-a87a-0bf614e032e3",
        "meta": {
          "profile": [
            "http://hl7.eu/fhir/laboratory/StructureDefinition/Observation-resultslab-eu-lab"
          ]
        },
        "performer": [
          {
            "display": "The Central European Lab"
          }
        ],
        "category": [
          {
            "coding": [
              {
                "system": "http://terminology.hl7.org/CodeSystem/observation-category",
                "code": "laboratory"
              }
            ]
          }
        ],
        "code": {
          "coding": [
            {
              "code": "20505-4",
              "system": "http://loinc.org",
              "display": "Bilirubin.total [Mass/volume] in Urine by Test strip"
            }
          ],
          "text": "Bilirubin.total [Mass/volume] in Urine by Test strip"
        },
        "valueQuantity": {
          "system": "http://unitsofmeasure.org",
          "value": 0.9,
          "unit": "mg/dL",
          "code": "mg/dL"
        },
        "referenceRange": [
          {
            "low": {
              "value": 0,
              "code": "mg/dL",
              "system": "http://unitsofmeasure.org"
            }
          },
          {
            "high": {
              "value": 1,
              "code": "mg/dL",
              "system": "http://unitsofmeasure.org"
            }
          }
        ],
        "text": {
          "status": "generated",
          "div": "<div xmlns=\"http://www.w3.org/1999/xhtml\"><table class=\"hl7__eu__lab__report\"><tr><th>Test</th><th>06-Jul-2021</th><th>Reference&#xA0;Range</th><th>Unit</th></tr><tr><td>Bilirubin.total [Mass/volume] in Urine by Test strip</td><td>0.9</td><td>0 - 1</td><td></td><td>mg/dL</td></tr></table></div>"
        },
        "status": "final",
        "subject": {
          "reference": "urn:uuid:28d7f823-1c94-4e22-b730-f4c233700741",
          "display": "Meaghan Neary"
        },
        "effectiveDateTime": "2021-07-05T22:11:04Z",
        "specimen": {
          "reference": "urn:uuid:70c8f97d-afda-4e84-9a2c-4e05d5015a66"
        }
      }
    },
    {
      "fullUrl": "urn:uuid:0bd5f670-565b-49ba-be79-9020f1208825",
      "resource": {
        "resourceType": "Observation",
        "id": "0bd5f670-565b-49ba-be79-9020f1208825",
        "meta": {
          "profile": [
            "http://hl7.eu/fhir/laboratory/StructureDefinition/Observation-resultslab-eu-lab"
          ]
        },
        "performer": [
          {
            "display": "The Central European Lab"
          }
        ],
        "category": [
          {
            "coding": [
              {
                "system": "http://terminology.hl7.org/CodeSystem/observation-category",
                "code": "laboratory"
              }
            ]
          }
        ],
        "code": {
          "coding": [
            {
              "code": "5770-3",
              "system": "http://loinc.org",
              "display": "Bilirubin.total [Presence] in Urine by Test strip"
            }
          ],
          "text": "Bilirubin.total [Presence] in Urine by Test strip"
        },
        "text": {
          "status": "generated",
          "div": "<div xmlns=\"http://www.w3.org/1999/xhtml\"><table class=\"hl7__eu__lab__report\"><tr><th>Test</th><th>06-Jul-2021</th><th>Reference&#xA0;Range</th><th>Unit</th></tr><tr><td>Bilirubin.total [Presence] in Urine by Test strip</td></tr></table></div>"
        },
        "status": "final",
        "subject": {
          "reference": "urn:uuid:28d7f823-1c94-4e22-b730-f4c233700741",
          "display": "Meaghan Neary"
        },
        "effectiveDateTime": "2021-07-05T22:11:04Z",
        "specimen": {
          "reference": "urn:uuid:70c8f97d-afda-4e84-9a2c-4e05d5015a66"
        }
      }
    },
    {
      "fullUrl": "urn:uuid:3e47b746-0e2d-4c0f-aafd-a5a1d5b31ca3",
      "resource": {
        "resourceType": "Observation",
        "id": "3e47b746-0e2d-4c0f-aafd-a5a1d5b31ca3",
        "meta": {
          "profile": [
            "http://hl7.eu/fhir/laboratory/StructureDefinition/Observation-resultslab-eu-lab"
          ]
        },
        "performer": [
          {
            "display": "The Central European Lab"
          }
        ],
        "category": [
          {
            "coding": [
              {
                "system": "http://terminology.hl7.org/CodeSystem/observation-category",
                "code": "laboratory"
              }
            ]
          }
        ],
        "code": {
          "coding": [
            {
              "code": "5797-6",
              "system": "http://loinc.org",
              "display": "Ketones [Mass/volume] in Urine by Test strip"
            }
          ],
          "text": "Ketones [Mass/volume] in Urine by Test strip"
        },
        "valueQuantity": {
          "system": "http://unitsofmeasure.org",
          "value": 5.8,
          "unit": "mg/dL",
          "code": "mg/dL"
        },
        "referenceRange": [
          {
            "low": {
              "value": 0,
              "code": "mg/dL",
              "system": "http://unitsofmeasure.org"
            }
          },
          {
            "high": {
              "value": 4,
              "code": "mg/dL",
              "system": "http://unitsofmeasure.org"
            }
          }
        ],
        "interpretation": [
          {
            "coding": [
              {
                "code": "H",
                "system": "http://terminology.hl7.org/CodeSystem/v3-ObservationInterpretation",
                "display": "High"
              }
            ]
          }
        ],
        "text": {
          "status": "generated",
          "div": "<div xmlns=\"http://www.w3.org/1999/xhtml\"><table class=\"hl7__eu__lab__report\"><tr><th>Test</th><th>06-Jul-2021</th><th>Reference&#xA0;Range</th><th>Unit</th></tr><tr><td>Ketones [Mass/volume] in Urine by Test strip</td><td>5.8</td><td>0 - 4</td><td>H</td><td>mg/dL</td></tr></table></div>"
        },
        "status": "final",
        "subject": {
          "reference": "urn:uuid:28d7f823-1c94-4e22-b730-f4c233700741",
          "display": "Meaghan Neary"
        },
        "effectiveDateTime": "2021-07-05T22:11:04Z",
        "specimen": {
          "reference": "urn:uuid:70c8f97d-afda-4e84-9a2c-4e05d5015a66"
        }
      }
    },
    {
      "fullUrl": "urn:uuid:0952a20e-a286-49ca-9427-d08dac565433",
      "resource": {
        "resourceType": "Observation",
        "id": "0952a20e-a286-49ca-9427-d08dac565433",
        "meta": {
          "profile": [
            "http://hl7.eu/fhir/laboratory/StructureDefinition/Observation-resultslab-eu-lab"
          ]
        },
        "performer": [
          {
            "display": "The Central European Lab"
          }
        ],
        "category": [
          {
            "coding": [
              {
                "system": "http://terminology.hl7.org/CodeSystem/observation-category",
                "code": "laboratory"
              }
            ]
          }
        ],
        "code": {
          "coding": [
            {
              "code": "2514-8",
              "system": "http://loinc.org",
              "display": "Ketones [Presence] in Urine by Test strip"
            }
          ],
          "text": "Ketones [Presence] in Urine by Test strip"
        },
        "text": {
          "status": "generated",
          "div": "<div xmlns=\"http://www.w3.org/1999/xhtml\"><table class=\"hl7__eu__lab__report\"><tr><th>Test</th><th>06-Jul-2021</th><th>Reference&#xA0;Range</th><th>Unit</th></tr><tr><td>Ketones [Presence] in Urine by Test strip</td></tr></table></div>"
        },
        "status": "final",
        "subject": {
          "reference": "urn:uuid:28d7f823-1c94-4e22-b730-f4c233700741",
          "display": "Meaghan Neary"
        },
        "effectiveDateTime": "2021-07-05T22:11:04Z",
        "specimen": {
          "reference": "urn:uuid:70c8f97d-afda-4e84-9a2c-4e05d5015a66"
        }
      }
    },
    {
      "fullUrl": "urn:uuid:68366726-f5d9-462f-991d-d7480a851769",
      "resource": {
        "resourceType": "Observation",
        "id": "68366726-f5d9-462f-991d-d7480a851769",
        "meta": {
          "profile": [
            "http://hl7.eu/fhir/laboratory/StructureDefinition/Observation-resultslab-eu-lab"
          ]
        },
        "performer": [
          {
            "display": "The Central European Lab"
          }
        ],
        "category": [
          {
            "coding": [
              {
                "system": "http://terminology.hl7.org/CodeSystem/observation-category",
                "code": "laboratory"
              }
            ]
          }
        ],
        "code": {
          "coding": [
            {
              "code": "5811-5",
              "system": "http://loinc.org",
              "display": "Specific gravity of Urine by Test strip"
            }
          ],
          "text": "Specific gravity of Urine by Test strip"
        },
        "valueQuantity": {
          "system": "http://unitsofmeasure.org",
          "value": 1,
          "unit": "{nominal}",
          "code": "{nominal}"
        },
        "referenceRange": [
          {
            "low": {
              "value": 1.005,
              "code": "g/mL",
              "system": "http://unitsofmeasure.org"
            }
          },
          {
            "high": {
              "value": 1.03,
              "code": "g/mL",
              "system": "http://unitsofmeasure.org"
            }
          }
        ],
        "interpretation": [
          {
            "coding": [
              {
                "code": "L",
                "system": "http://terminology.hl7.org/CodeSystem/v3-ObservationInterpretation",
                "display": "Low"
              }
            ]
          }
        ],
        "text": {
          "status": "generated",
          "div": "<div xmlns=\"http://www.w3.org/1999/xhtml\"><table class=\"hl7__eu__lab__report\"><tr><th>Test</th><th>06-Jul-2021</th><th>Reference&#xA0;Range</th><th>Unit</th></tr><tr><td>Specific gravity of Urine by Test strip</td><td>1.0</td><td>1.005 - 1.03</td><td>L</td><td>{nominal}</td></tr></table></div>"
        },
        "status": "final",
        "subject": {
          "reference": "urn:uuid:28d7f823-1c94-4e22-b730-f4c233700741",
          "display": "Meaghan Neary"
        },
        "effectiveDateTime": "2021-07-05T22:11:04Z",
        "specimen": {
          "reference": "urn:uuid:70c8f97d-afda-4e84-9a2c-4e05d5015a66"
        }
      }
    },
    {
      "fullUrl": "urn:uuid:50d95e5f-4670-4bb2-ad2e-b4b1ff5e40fe",
      "resource": {
        "resourceType": "Observation",
        "id": "50d95e5f-4670-4bb2-ad2e-b4b1ff5e40fe",
        "meta": {
          "profile": [
            "http://hl7.eu/fhir/laboratory/StructureDefinition/Observation-resultslab-eu-lab"
          ]
        },
        "performer": [
          {
            "display": "The Central European Lab"
          }
        ],
        "category": [
          {
            "coding": [
              {
                "system": "http://terminology.hl7.org/CodeSystem/observation-category",
                "code": "laboratory"
              }
            ]
          }
        ],
        "code": {
          "coding": [
            {
              "code": "5803-2",
              "system": "http://loinc.org",
              "display": "pH of Urine by Test strip"
            }
          ],
          "text": "pH of Urine by Test strip"
        },
        "valueQuantity": {
          "system": "http://unitsofmeasure.org",
          "value": 6.2,
          "unit": "pH",
          "code": "pH"
        },
        "referenceRange": [
          {
            "low": {
              "value": 4.6,
              "code": "pH",
              "system": "http://unitsofmeasure.org"
            }
          },
          {
            "high": {
              "value": 7,
              "code": "pH",
              "system": "http://unitsofmeasure.org"
            }
          }
        ],
        "text": {
          "status": "generated",
          "div": "<div xmlns=\"http://www.w3.org/1999/xhtml\"><table class=\"hl7__eu__lab__report\"><tr><th>Test</th><th>06-Jul-2021</th><th>Reference&#xA0;Range</th><th>Unit</th></tr><tr><td>pH of Urine by Test strip</td><td>6.2</td><td>4.6 - 7</td><td></td><td>pH</td></tr></table></div>"
        },
        "status": "final",
        "subject": {
          "reference": "urn:uuid:28d7f823-1c94-4e22-b730-f4c233700741",
          "display": "Meaghan Neary"
        },
        "effectiveDateTime": "2021-07-05T22:11:04Z",
        "specimen": {
          "reference": "urn:uuid:70c8f97d-afda-4e84-9a2c-4e05d5015a66"
        }
      }
    },
    {
      "fullUrl": "urn:uuid:f1d0d9ad-ec10-4fe4-92ba-acd8fa8cd846",
      "resource": {
        "resourceType": "Observation",
        "id": "f1d0d9ad-ec10-4fe4-92ba-acd8fa8cd846",
        "meta": {
          "profile": [
            "http://hl7.eu/fhir/laboratory/StructureDefinition/Observation-resultslab-eu-lab"
          ]
        },
        "performer": [
          {
            "display": "The Central European Lab"
          }
        ],
        "category": [
          {
            "coding": [
              {
                "system": "http://terminology.hl7.org/CodeSystem/observation-category",
                "code": "laboratory"
              }
            ]
          }
        ],
        "code": {
          "coding": [
            {
              "code": "5804-0",
              "system": "http://loinc.org",
              "display": "Protein [Mass/volume] in Urine by Test strip"
            }
          ],
          "text": "Protein [Mass/volume] in Urine by Test strip"
        },
        "valueQuantity": {
          "system": "http://unitsofmeasure.org",
          "value": 266.6,
          "unit": "mg/dL",
          "code": "mg/dL"
        },
        "referenceRange": [
          {
            "low": {
              "value": 0,
              "code": "mg/dL",
              "system": "http://unitsofmeasure.org"
            }
          },
          {
            "high": {
              "value": 14,
              "code": "mg/dL",
              "system": "http://unitsofmeasure.org"
            }
          }
        ],
        "interpretation": [
          {
            "coding": [
              {
                "code": "H",
                "system": "http://terminology.hl7.org/CodeSystem/v3-ObservationInterpretation",
                "display": "High"
              }
            ]
          }
        ],
        "text": {
          "status": "generated",
          "div": "<div xmlns=\"http://www.w3.org/1999/xhtml\"><table class=\"hl7__eu__lab__report\"><tr><th>Test</th><th>06-Jul-2021</th><th>Reference&#xA0;Range</th><th>Unit</th></tr><tr><td>Protein [Mass/volume] in Urine by Test strip</td><td>266.6</td><td>0 - 14</td><td>H</td><td>mg/dL</td></tr></table></div>"
        },
        "status": "final",
        "subject": {
          "reference": "urn:uuid:28d7f823-1c94-4e22-b730-f4c233700741",
          "display": "Meaghan Neary"
        },
        "effectiveDateTime": "2021-07-05T22:11:04Z",
        "specimen": {
          "reference": "urn:uuid:70c8f97d-afda-4e84-9a2c-4e05d5015a66"
        }
      }
    },
    {
      "fullUrl": "urn:uuid:5af36efc-0613-4d7d-b483-3774b3a19a8b",
      "resource": {
        "resourceType": "Observation",
        "id": "5af36efc-0613-4d7d-b483-3774b3a19a8b",
        "meta": {
          "profile": [
            "http://hl7.eu/fhir/laboratory/StructureDefinition/Observation-resultslab-eu-lab"
          ]
        },
        "performer": [
          {
            "display": "The Central European Lab"
          }
        ],
        "category": [
          {
            "coding": [
              {
                "system": "http://terminology.hl7.org/CodeSystem/observation-category",
                "code": "laboratory"
              }
            ]
          }
        ],
        "code": {
          "coding": [
            {
              "code": "20454-5",
              "system": "http://loinc.org",
              "display": "Protein [Presence] in Urine by Test strip"
            }
          ],
          "text": "Protein [Presence] in Urine by Test strip"
        },
        "text": {
          "status": "generated",
          "div": "<div xmlns=\"http://www.w3.org/1999/xhtml\"><table class=\"hl7__eu__lab__report\"><tr><th>Test</th><th>06-Jul-2021</th><th>Reference&#xA0;Range</th><th>Unit</th></tr><tr><td>Protein [Presence] in Urine by Test strip</td></tr></table></div>"
        },
        "status": "final",
        "subject": {
          "reference": "urn:uuid:28d7f823-1c94-4e22-b730-f4c233700741",
          "display": "Meaghan Neary"
        },
        "effectiveDateTime": "2021-07-05T22:11:04Z",
        "specimen": {
          "reference": "urn:uuid:70c8f97d-afda-4e84-9a2c-4e05d5015a66"
        }
      }
    },
    {
      "fullUrl": "urn:uuid:777e4663-dcaa-43fa-b44b-563451a04499",
      "resource": {
        "resourceType": "Observation",
        "id": "777e4663-dcaa-43fa-b44b-563451a04499",
        "meta": {
          "profile": [
            "http://hl7.eu/fhir/laboratory/StructureDefinition/Observation-resultslab-eu-lab"
          ]
        },
        "performer": [
          {
            "display": "The Central European Lab"
          }
        ],
        "category": [
          {
            "coding": [
              {
                "system": "http://terminology.hl7.org/CodeSystem/observation-category",
                "code": "laboratory"
              }
            ]
          }
        ],
        "code": {
          "coding": [
            {
              "code": "5802-4",
              "system": "http://loinc.org",
              "display": "Nitrite [Presence] in Urine by Test strip"
            }
          ],
          "text": "Nitrite [Presence] in Urine by Test strip"
        },
        "text": {
          "status": "generated",
          "div": "<div xmlns=\"http://www.w3.org/1999/xhtml\"><table class=\"hl7__eu__lab__report\"><tr><th>Test</th><th>06-Jul-2021</th><th>Reference&#xA0;Range</th><th>Unit</th></tr><tr><td>Nitrite [Presence] in Urine by Test strip</td></tr></table></div>"
        },
        "status": "final",
        "subject": {
          "reference": "urn:uuid:28d7f823-1c94-4e22-b730-f4c233700741",
          "display": "Meaghan Neary"
        },
        "effectiveDateTime": "2021-07-05T22:11:04Z",
        "specimen": {
          "reference": "urn:uuid:70c8f97d-afda-4e84-9a2c-4e05d5015a66"
        }
      }
    },
    {
      "fullUrl": "urn:uuid:68865fe5-2953-491b-8683-8ea34d01f3bd",
      "resource": {
        "resourceType": "Observation",
        "id": "68865fe5-2953-491b-8683-8ea34d01f3bd",
        "meta": {
          "profile": [
            "http://hl7.eu/fhir/laboratory/StructureDefinition/Observation-resultslab-eu-lab"
          ]
        },
        "performer": [
          {
            "display": "The Central European Lab"
          }
        ],
        "category": [
          {
            "coding": [
              {
                "system": "http://terminology.hl7.org/CodeSystem/observation-category",
                "code": "laboratory"
              }
            ]
          }
        ],
        "code": {
          "coding": [
            {
              "code": "5794-3",
              "system": "http://loinc.org",
              "display": "Hemoglobin [Presence] in Urine by Test strip"
            }
          ],
          "text": "Hemoglobin [Presence] in Urine by Test strip"
        },
        "text": {
          "status": "generated",
          "div": "<div xmlns=\"http://www.w3.org/1999/xhtml\"><table class=\"hl7__eu__lab__report\"><tr><th>Test</th><th>06-Jul-2021</th><th>Reference&#xA0;Range</th><th>Unit</th></tr><tr><td>Hemoglobin [Presence] in Urine by Test strip</td></tr></table></div>"
        },
        "status": "final",
        "subject": {
          "reference": "urn:uuid:28d7f823-1c94-4e22-b730-f4c233700741",
          "display": "Meaghan Neary"
        },
        "effectiveDateTime": "2021-07-05T22:11:04Z",
        "specimen": {
          "reference": "urn:uuid:70c8f97d-afda-4e84-9a2c-4e05d5015a66"
        }
      }
    },
    {
      "fullUrl": "urn:uuid:ae876940-22e1-42e0-85d3-7eaf27391583",
      "resource": {
        "resourceType": "Observation",
        "id": "ae876940-22e1-42e0-85d3-7eaf27391583",
        "meta": {
          "profile": [
            "http://hl7.eu/fhir/laboratory/StructureDefinition/Observation-resultslab-eu-lab"
          ]
        },
        "performer": [
          {
            "display": "The Central European Lab"
          }
        ],
        "category": [
          {
            "coding": [
              {
                "system": "http://terminology.hl7.org/CodeSystem/observation-category",
                "code": "laboratory"
              }
            ]
          }
        ],
        "code": {
          "coding": [
            {
              "code": "5799-2",
              "system": "http://loinc.org",
              "display": "Leukocyte esterase [Presence] in Urine by Test strip"
            }
          ],
          "text": "Leukocyte esterase [Presence] in Urine by Test strip"
        },
        "text": {
          "status": "generated",
          "div": "<div xmlns=\"http://www.w3.org/1999/xhtml\"><table class=\"hl7__eu__lab__report\"><tr><th>Test</th><th>06-Jul-2021</th><th>Reference&#xA0;Range</th><th>Unit</th></tr><tr><td>Leukocyte esterase [Presence] in Urine by Test strip</td></tr></table></div>"
        },
        "status": "final",
        "subject": {
          "reference": "urn:uuid:28d7f823-1c94-4e22-b730-f4c233700741",
          "display": "Meaghan Neary"
        },
        "effectiveDateTime": "2021-07-05T22:11:04Z",
        "specimen": {
          "reference": "urn:uuid:70c8f97d-afda-4e84-9a2c-4e05d5015a66"
        }
      }
    },
    {
      "fullUrl": "urn:uuid:8626bb33-0ab3-4a14-b294-7080f9ab6b74",
      "resource": {
        "resourceType": "Observation",
        "id": "8626bb33-0ab3-4a14-b294-7080f9ab6b74",
        "meta": {
          "profile": [
            "http://hl7.eu/fhir/laboratory/StructureDefinition/Observation-resultslab-eu-lab"
          ]
        },
        "performer": [
          {
            "display": "The Central European Lab"
          }
        ],
        "category": [
          {
            "coding": [
              {
                "system": "http://terminology.hl7.org/CodeSystem/observation-category",
                "code": "laboratory"
              }
            ]
          }
        ],
        "code": {
          "coding": [
            {
              "code": "4548-4",
              "system": "http://loinc.org",
              "display": "Hemoglobin A1c/Hemoglobin.total in Blood"
            }
          ],
          "text": "Hemoglobin A1c/Hemoglobin.total in Blood"
        },
        "valueQuantity": {
          "system": "http://unitsofmeasure.org",
          "value": 3,
          "unit": "%",
          "code": "%"
        },
        "referenceRange": [
          {
            "low": {
              "value": 4,
              "code": "%",
              "system": "http://unitsofmeasure.org"
            }
          },
          {
            "high": {
              "value": 6.4,
              "code": "%",
              "system": "http://unitsofmeasure.org"
            }
          }
        ],
        "interpretation": [
          {
            "coding": [
              {
                "code": "L",
                "system": "http://terminology.hl7.org/CodeSystem/v3-ObservationInterpretation",
                "display": "Low"
              }
            ]
          }
        ],
        "text": {
          "status": "generated",
          "div": "<div xmlns=\"http://www.w3.org/1999/xhtml\"><table class=\"hl7__eu__lab__report\"><tr><th>Test</th><th>06-Jul-2021</th><th>Reference&#xA0;Range</th><th>Unit</th></tr><tr><td>Hemoglobin A1c/Hemoglobin.total in Blood</td><td>3.0</td><td>4 - 6.4</td><td>L</td><td>%</td></tr></table></div>"
        },
        "status": "final",
        "subject": {
          "reference": "urn:uuid:28d7f823-1c94-4e22-b730-f4c233700741",
          "display": "Meaghan Neary"
        },
        "effectiveDateTime": "2021-07-05T22:11:04Z",
        "specimen": {
          "reference": "urn:uuid:ba70e213-e74d-4e51-a4f7-26da0719da15"
        }
      }
    },
    {
      "fullUrl": "urn:uuid:c7e7972f-1388-45f0-85d0-bb6dd54811b9",
      "resource": {
        "resourceType": "Observation",
        "id": "c7e7972f-1388-45f0-85d0-bb6dd54811b9",
        "meta": {
          "profile": [
            "http://hl7.eu/fhir/laboratory/StructureDefinition/Observation-resultslab-eu-lab"
          ]
        },
        "performer": [
          {
            "display": "The Central European Lab"
          }
        ],
        "category": [
          {
            "coding": [
              {
                "system": "http://terminology.hl7.org/CodeSystem/observation-category",
                "code": "laboratory"
              }
            ]
          }
        ],
        "code": {
          "coding": [
            {
              "code": "2339-0",
              "system": "http://loinc.org",
              "display": "Glucose [Mass/volume] in Blood"
            }
          ],
          "text": "Glucose [Mass/volume] in Blood"
        },
        "valueQuantity": {
          "system": "http://unitsofmeasure.org",
          "value": 89.9,
          "unit": "mg/dL",
          "code": "mg/dL"
        },
        "referenceRange": [
          {
            "low": {
              "value": 70,
              "code": "mg/dL",
              "system": "http://unitsofmeasure.org"
            }
          },
          {
            "high": {
              "value": 100,
              "code": "mg/dL",
              "system": "http://unitsofmeasure.org"
            }
          }
        ],
        "text": {
          "status": "generated",
          "div": "<div xmlns=\"http://www.w3.org/1999/xhtml\"><table class=\"hl7__eu__lab__report\"><tr><th>Test</th><th>06-Jul-2021</th><th>Reference&#xA0;Range</th><th>Unit</th></tr><tr><td>Glucose [Mass/volume] in Blood</td><td>89.9</td><td>70 - 100</td><td></td><td>mg/dL</td></tr></table></div>"
        },
        "status": "final",
        "subject": {
          "reference": "urn:uuid:28d7f823-1c94-4e22-b730-f4c233700741",
          "display": "Meaghan Neary"
        },
        "effectiveDateTime": "2021-07-05T22:11:04Z",
        "specimen": {
          "reference": "urn:uuid:ba70e213-e74d-4e51-a4f7-26da0719da15"
        }
      }
    },
    {
      "fullUrl": "urn:uuid:ec8026e0-6447-4acf-8f64-4ef953927695",
      "resource": {
        "resourceType": "Observation",
        "id": "ec8026e0-6447-4acf-8f64-4ef953927695",
        "meta": {
          "profile": [
            "http://hl7.eu/fhir/laboratory/StructureDefinition/Observation-resultslab-eu-lab"
          ]
        },
        "performer": [
          {
            "display": "The Central European Lab"
          }
        ],
        "category": [
          {
            "coding": [
              {
                "system": "http://terminology.hl7.org/CodeSystem/observation-category",
                "code": "laboratory"
              }
            ]
          }
        ],
        "code": {
          "coding": [
            {
              "code": "6299-2",
              "system": "http://loinc.org",
              "display": "Urea nitrogen [Mass/volume] in Blood"
            }
          ],
          "text": "Urea nitrogen [Mass/volume] in Blood"
        },
        "valueQuantity": {
          "system": "http://unitsofmeasure.org",
          "value": 16.9,
          "unit": "mg/dL",
          "code": "mg/dL"
        },
        "referenceRange": [
          {
            "low": {
              "value": 7,
              "code": "mg/dL",
              "system": "http://unitsofmeasure.org"
            }
          },
          {
            "high": {
              "value": 43,
              "code": "mg/dL",
              "system": "http://unitsofmeasure.org"
            }
          }
        ],
        "text": {
          "status": "generated",
          "div": "<div xmlns=\"http://www.w3.org/1999/xhtml\"><table class=\"hl7__eu__lab__report\"><tr><th>Test</th><th>06-Jul-2021</th><th>Reference&#xA0;Range</th><th>Unit</th></tr><tr><td>Urea nitrogen [Mass/volume] in Blood</td><td>16.9</td><td>7 - 43</td><td></td><td>mg/dL</td></tr></table></div>"
        },
        "status": "final",
        "subject": {
          "reference": "urn:uuid:28d7f823-1c94-4e22-b730-f4c233700741",
          "display": "Meaghan Neary"
        },
        "effectiveDateTime": "2021-07-05T22:11:04Z",
        "specimen": {
          "reference": "urn:uuid:ba70e213-e74d-4e51-a4f7-26da0719da15"
        }
      }
    },
    {
      "fullUrl": "urn:uuid:76555d56-6d1f-45be-b404-846d88694e74",
      "resource": {
        "resourceType": "Observation",
        "id": "76555d56-6d1f-45be-b404-846d88694e74",
        "meta": {
          "profile": [
            "http://hl7.eu/fhir/laboratory/StructureDefinition/Observation-resultslab-eu-lab"
          ]
        },
        "performer": [
          {
            "display": "The Central European Lab"
          }
        ],
        "category": [
          {
            "coding": [
              {
                "system": "http://terminology.hl7.org/CodeSystem/observation-category",
                "code": "laboratory"
              }
            ]
          }
        ],
        "code": {
          "coding": [
            {
              "code": "38483-4",
              "system": "http://loinc.org",
              "display": "Creatinine [Mass/volume] in Blood"
            }
          ],
          "text": "Creatinine [Mass/volume] in Blood"
        },
        "valueQuantity": {
          "system": "http://unitsofmeasure.org",
          "value": 2.7,
          "unit": "mg/dL",
          "code": "mg/dL"
        },
        "referenceRange": [
          {
            "low": {
              "value": 0.6,
              "code": "mg/dL",
              "system": "http://unitsofmeasure.org"
            }
          },
          {
            "high": {
              "value": 1.1,
              "code": "mg/dL",
              "system": "http://unitsofmeasure.org"
            }
          }
        ],
        "interpretation": [
          {
            "coding": [
              {
                "code": "H",
                "system": "http://terminology.hl7.org/CodeSystem/v3-ObservationInterpretation",
                "display": "High"
              }
            ]
          }
        ],
        "text": {
          "status": "generated",
          "div": "<div xmlns=\"http://www.w3.org/1999/xhtml\"><table class=\"hl7__eu__lab__report\"><tr><th>Test</th><th>06-Jul-2021</th><th>Reference&#xA0;Range</th><th>Unit</th></tr><tr><td>Creatinine [Mass/volume] in Blood</td><td>2.7</td><td>0.6 - 1.1</td><td>H</td><td>mg/dL</td></tr></table></div>"
        },
        "status": "final",
        "subject": {
          "reference": "urn:uuid:28d7f823-1c94-4e22-b730-f4c233700741",
          "display": "Meaghan Neary"
        },
        "effectiveDateTime": "2021-07-05T22:11:04Z",
        "specimen": {
          "reference": "urn:uuid:ba70e213-e74d-4e51-a4f7-26da0719da15"
        }
      }
    },
    {
      "fullUrl": "urn:uuid:ca5fb456-d26c-4170-b7fe-184bd8bff2e6",
      "resource": {
        "resourceType": "Observation",
        "id": "ca5fb456-d26c-4170-b7fe-184bd8bff2e6",
        "meta": {
          "profile": [
            "http://hl7.eu/fhir/laboratory/StructureDefinition/Observation-resultslab-eu-lab"
          ]
        },
        "performer": [
          {
            "display": "The Central European Lab"
          }
        ],
        "category": [
          {
            "coding": [
              {
                "system": "http://terminology.hl7.org/CodeSystem/observation-category",
                "code": "laboratory"
              }
            ]
          }
        ],
        "code": {
          "coding": [
            {
              "code": "49765-1",
              "system": "http://loinc.org",
              "display": "Calcium [Mass/volume] in Blood"
            }
          ],
          "text": "Calcium [Mass/volume] in Blood"
        },
        "valueQuantity": {
          "system": "http://unitsofmeasure.org",
          "value": 10.1,
          "unit": "mg/dL",
          "code": "mg/dL"
        },
        "referenceRange": [
          {
            "low": {
              "value": 8.5,
              "code": "mg/dL",
              "system": "http://unitsofmeasure.org"
            }
          },
          {
            "high": {
              "value": 10.5,
              "code": "mg/dL",
              "system": "http://unitsofmeasure.org"
            }
          }
        ],
        "text": {
          "status": "generated",
          "div": "<div xmlns=\"http://www.w3.org/1999/xhtml\"><table class=\"hl7__eu__lab__report\"><tr><th>Test</th><th>06-Jul-2021</th><th>Reference&#xA0;Range</th><th>Unit</th></tr><tr><td>Calcium [Mass/volume] in Blood</td><td>10.1</td><td>8.5 - 10.5</td><td></td><td>mg/dL</td></tr></table></div>"
        },
        "status": "final",
        "subject": {
          "reference": "urn:uuid:28d7f823-1c94-4e22-b730-f4c233700741",
          "display": "Meaghan Neary"
        },
        "effectiveDateTime": "2021-07-05T22:11:04Z",
        "specimen": {
          "reference": "urn:uuid:ba70e213-e74d-4e51-a4f7-26da0719da15"
        }
      }
    },
    {
      "fullUrl": "urn:uuid:b1bfdd5e-df2a-4e55-b900-1a7d08261e1e",
      "resource": {
        "resourceType": "Observation",
        "id": "b1bfdd5e-df2a-4e55-b900-1a7d08261e1e",
        "meta": {
          "profile": [
            "http://hl7.eu/fhir/laboratory/StructureDefinition/Observation-resultslab-eu-lab"
          ]
        },
        "performer": [
          {
            "display": "The Central European Lab"
          }
        ],
        "category": [
          {
            "coding": [
              {
                "system": "http://terminology.hl7.org/CodeSystem/observation-category",
                "code": "laboratory"
              }
            ]
          }
        ],
        "code": {
          "coding": [
            {
              "code": "2947-0",
              "system": "http://loinc.org",
              "display": "Sodium [Moles/volume] in Blood"
            }
          ],
          "text": "Sodium [Moles/volume] in Blood"
        },
        "valueQuantity": {
          "system": "http://unitsofmeasure.org",
          "value": 137,
          "unit": "mmol/L",
          "code": "mmol/L"
        },
        "referenceRange": [
          {
            "low": {
              "value": 135,
              "code": "mmol/L",
              "system": "http://unitsofmeasure.org"
            }
          },
          {
            "high": {
              "value": 145,
              "code": "mmol/L",
              "system": "http://unitsofmeasure.org"
            }
          }
        ],
        "text": {
          "status": "generated",
          "div": "<div xmlns=\"http://www.w3.org/1999/xhtml\"><table class=\"hl7__eu__lab__report\"><tr><th>Test</th><th>06-Jul-2021</th><th>Reference&#xA0;Range</th><th>Unit</th></tr><tr><td>Sodium [Moles/volume] in Blood</td><td>137.0</td><td>135 - 145</td><td></td><td>mmol/L</td></tr></table></div>"
        },
        "status": "final",
        "subject": {
          "reference": "urn:uuid:28d7f823-1c94-4e22-b730-f4c233700741",
          "display": "Meaghan Neary"
        },
        "effectiveDateTime": "2021-07-05T22:11:04Z",
        "specimen": {
          "reference": "urn:uuid:ba70e213-e74d-4e51-a4f7-26da0719da15"
        }
      }
    },
    {
      "fullUrl": "urn:uuid:6268a35d-01c6-48cd-b5da-d9b624348d0c",
      "resource": {
        "resourceType": "Observation",
        "id": "6268a35d-01c6-48cd-b5da-d9b624348d0c",
        "meta": {
          "profile": [
            "http://hl7.eu/fhir/laboratory/StructureDefinition/Observation-resultslab-eu-lab"
          ]
        },
        "performer": [
          {
            "display": "The Central European Lab"
          }
        ],
        "category": [
          {
            "coding": [
              {
                "system": "http://terminology.hl7.org/CodeSystem/observation-category",
                "code": "laboratory"
              }
            ]
          }
        ],
        "code": {
          "coding": [
            {
              "code": "6298-4",
              "system": "http://loinc.org",
              "display": "Potassium [Moles/volume] in Blood"
            }
          ],
          "text": "Potassium [Moles/volume] in Blood"
        },
        "valueQuantity": {
          "system": "http://unitsofmeasure.org",
          "value": 4.4,
          "unit": "mmol/L",
          "code": "mmol/L"
        },
        "referenceRange": [
          {
            "low": {
              "value": 3.5,
              "code": "mmol/L",
              "system": "http://unitsofmeasure.org"
            }
          },
          {
            "high": {
              "value": 5.1,
              "code": "mmol/L",
              "system": "http://unitsofmeasure.org"
            }
          }
        ],
        "text": {
          "status": "generated",
          "div": "<div xmlns=\"http://www.w3.org/1999/xhtml\"><table class=\"hl7__eu__lab__report\"><tr><th>Test</th><th>06-Jul-2021</th><th>Reference&#xA0;Range</th><th>Unit</th></tr><tr><td>Potassium [Moles/volume] in Blood</td><td>4.4</td><td>3.5 - 5.1</td><td></td><td>mmol/L</td></tr></table></div>"
        },
        "status": "final",
        "subject": {
          "reference": "urn:uuid:28d7f823-1c94-4e22-b730-f4c233700741",
          "display": "Meaghan Neary"
        },
        "effectiveDateTime": "2021-07-05T22:11:04Z",
        "specimen": {
          "reference": "urn:uuid:ba70e213-e74d-4e51-a4f7-26da0719da15"
        }
      }
    },
    {
      "fullUrl": "urn:uuid:fe192ba0-c9a8-449d-97ea-3c14fa21e1d3",
      "resource": {
        "resourceType": "Observation",
        "id": "fe192ba0-c9a8-449d-97ea-3c14fa21e1d3",
        "meta": {
          "profile": [
            "http://hl7.eu/fhir/laboratory/StructureDefinition/Observation-resultslab-eu-lab"
          ]
        },
        "performer": [
          {
            "display": "The Central European Lab"
          }
        ],
        "category": [
          {
            "coding": [
              {
                "system": "http://terminology.hl7.org/CodeSystem/observation-category",
                "code": "laboratory"
              }
            ]
          }
        ],
        "code": {
          "coding": [
            {
              "code": "2069-3",
              "system": "http://loinc.org",
              "display": "Chloride [Moles/volume] in Blood"
            }
          ],
          "text": "Chloride [Moles/volume] in Blood"
        },
        "valueQuantity": {
          "system": "http://unitsofmeasure.org",
          "value": 101.8,
          "unit": "mmol/L",
          "code": "mmol/L"
        },
        "referenceRange": [
          {
            "low": {
              "value": 98,
              "code": "mmol/L",
              "system": "http://unitsofmeasure.org"
            }
          },
          {
            "high": {
              "value": 108,
              "code": "mmol/L",
              "system": "http://unitsofmeasure.org"
            }
          }
        ],
        "text": {
          "status": "generated",
          "div": "<div xmlns=\"http://www.w3.org/1999/xhtml\"><table class=\"hl7__eu__lab__report\"><tr><th>Test</th><th>06-Jul-2021</th><th>Reference&#xA0;Range</th><th>Unit</th></tr><tr><td>Chloride [Moles/volume] in Blood</td><td>101.8</td><td>98 - 108</td><td></td><td>mmol/L</td></tr></table></div>"
        },
        "status": "final",
        "subject": {
          "reference": "urn:uuid:28d7f823-1c94-4e22-b730-f4c233700741",
          "display": "Meaghan Neary"
        },
        "effectiveDateTime": "2021-07-05T22:11:04Z",
        "specimen": {
          "reference": "urn:uuid:ba70e213-e74d-4e51-a4f7-26da0719da15"
        }
      }
    },
    {
      "fullUrl": "urn:uuid:ac090b6a-49a0-41fc-a1d4-f376ed6517be",
      "resource": {
        "resourceType": "Observation",
        "id": "ac090b6a-49a0-41fc-a1d4-f376ed6517be",
        "meta": {
          "profile": [
            "http://hl7.eu/fhir/laboratory/StructureDefinition/Observation-resultslab-eu-lab"
          ]
        },
        "performer": [
          {
            "display": "The Central European Lab"
          }
        ],
        "category": [
          {
            "coding": [
              {
                "system": "http://terminology.hl7.org/CodeSystem/observation-category",
                "code": "laboratory"
              }
            ]
          }
        ],
        "code": {
          "coding": [
            {
              "code": "20565-8",
              "system": "http://loinc.org",
              "display": "Carbon dioxide, total [Moles/volume] in Blood"
            }
          ],
          "text": "Carbon dioxide, total [Moles/volume] in Blood"
        },
        "valueQuantity": {
          "system": "http://unitsofmeasure.org",
          "value": 20.6,
          "unit": "mmol/L",
          "code": "mmol/L"
        },
        "referenceRange": [
          {
            "low": {
              "value": 22,
              "code": "mmol/L",
              "system": "http://unitsofmeasure.org"
            }
          },
          {
            "high": {
              "value": 29,
              "code": "mmol/L",
              "system": "http://unitsofmeasure.org"
            }
          }
        ],
        "interpretation": [
          {
            "coding": [
              {
                "code": "L",
                "system": "http://terminology.hl7.org/CodeSystem/v3-ObservationInterpretation",
                "display": "Low"
              }
            ]
          }
        ],
        "text": {
          "status": "generated",
          "div": "<div xmlns=\"http://www.w3.org/1999/xhtml\"><table class=\"hl7__eu__lab__report\"><tr><th>Test</th><th>06-Jul-2021</th><th>Reference&#xA0;Range</th><th>Unit</th></tr><tr><td>Carbon dioxide, total [Moles/volume] in Blood</td><td>20.6</td><td>22 - 29</td><td>L</td><td>mmol/L</td></tr></table></div>"
        },
        "status": "final",
        "subject": {
          "reference": "urn:uuid:28d7f823-1c94-4e22-b730-f4c233700741",
          "display": "Meaghan Neary"
        },
        "effectiveDateTime": "2021-07-05T22:11:04Z",
        "specimen": {
          "reference": "urn:uuid:ba70e213-e74d-4e51-a4f7-26da0719da15"
        }
      }
    },
    {
      "fullUrl": "urn:uuid:ddcf61ca-43e2-4038-a35c-2198ffe4bb66",
      "resource": {
        "resourceType": "Device",
        "id": "ddcf61ca-43e2-4038-a35c-2198ffe4bb66",
        "deviceName": [
          {
            "name": "SYNDERAI Synthetic Generator",
            "type": "manufacturer-name"
          }
        ],
        "version": [
          {
            "value": "5.0"
          }
        ],
        "text": {
          "status": "generated",
          "div": "<div xmlns=\"http://www.w3.org/1999/xhtml\">SYNDERAI Synthetic Generator v5.0</div>"
        },
        "status": "active\"",
        "distinctIdentifier": "synderai-generator-50",
        "manufacturer": "SYNDERAI Project"
      }
    },
    {
      "fullUrl": "urn:uuid:fe89accb-cca8-4ab4-9e56-c3ba35b00ca8",
      "resource": {
        "resourceType": "Provenance",
        "id": "fe89accb-cca8-4ab4-9e56-c3ba35b00ca8",
        "target": [
          {
            "reference": "Patient/28d7f823-1c94-4e22-b730-f4c233700741"
          },
          {
            "reference": "Bundle/2303e9fa-4c85-4d25-b7c6-0a0670f128b4"
          },
          {
            "reference": "Composition/bfa22ae6-3045-435e-88c4-41bf758c1dcf"
          },
          {
            "reference": "PractitionerRole/df95a2ef-128c-40fd-b70a-17433c6c16b2"
          },
          {
            "reference": "Practitioner/cf9e8402-5980-4ee0-a980-e60e7b824a04"
          },
          {
            "reference": "PractitionerRole/93a2af44-97ad-4625-8f88-07c6f724c91d"
          },
          {
            "reference": "Organization/9803d716-4b8e-40ed-bbd6-6fd1f1c23c36"
          }
        ],
        "activity": {
          "text": "Synthetic Example Data Generation"
        },
        "policy": [
          "https://synderai.net/synderai-synthetic-data-policy"
        ],
        "agent": [
          {
            "type": {
              "text": "author"
            },
            "who": {
              "reference": "Device/ddcf61ca-43e2-4038-a35c-2198ffe4bb66"
            }
          }
        ],
        "reason": [
          {
            "text": "Interoperability Testing and Training (non-clinical use)"
          }
        ],
        "text": {
          "status": "generated",
          "div": "<div xmlns=\"http://www.w3.org/1999/xhtml\">Provenance for SYNDERAI Synthetic Example Data Resource</div>"
        },
        "recorded": "2021-07-06T00:11:04Z"
      }
    },
    {
      "fullUrl": "urn:uuid:df95a2ef-128c-40fd-b70a-17433c6c16b2",
      "resource": {
        "resourceType": "PractitionerRole",
        "id": "df95a2ef-128c-40fd-b70a-17433c6c16b2",
        "meta": {
          "profile": [
            "http://hl7.eu/fhir/base/StructureDefinition/practitionerRole-eu"
          ]
        },
        "text": {
          "status": "generated",
          "div": "<div xmlns=\"http://www.w3.org/1999/xhtml\">Laboratory Role Id: df95a2ef-128c-40fd-b70a-17433c6c16b2</div>"
        },
        "practitioner": {
          "reference": "urn:uuid:cf9e8402-5980-4ee0-a980-e60e7b824a04"
        }
      }
    },
    {
      "fullUrl": "urn:uuid:cf9e8402-5980-4ee0-a980-e60e7b824a04",
      "resource": {
        "resourceType": "Practitioner",
        "id": "cf9e8402-5980-4ee0-a980-e60e7b824a04",
        "meta": {
          "profile": [
            "http://hl7.eu/fhir/base/StructureDefinition/practitioner-eu"
          ]
        },
        "identifier": [
          {
            "assigner": {
              "display": "HL7 Europe"
            },
            "system": "urn:oid:2.16.840.1.113883.2.51.999",
            "value": "2305a940-2366-4ea6-840f-3253152a23b1"
          }
        ],
        "name": [
          {
            "prefix": [
              "dr"
            ],
            "given": [
              "Ex"
            ],
            "family": "Ample"
          }
        ],
        "address": [
          {
            "line": [
              "Laboratoire Central Européenne",
              "Boulevard du Jardin Botanique 32"
            ],
            "postalCode": "1000",
            "city": "Brussels",
            "country": "Belgium"
          }
        ],
        "text": {
          "status": "generated",
          "div": "<div xmlns=\"http://www.w3.org/1999/xhtml\">Laboratory: Laboratoire Central Européenne, 1000 Brussels, Belgium</div>"
        }
      }
    }
  ],
  "type": "document",
  "timestamp": "2021-07-06T00:11:04Z"
}
