{
  "resourceType": "Bundle",
  "id": "aa44f69b-6c69-4d9b-a079-60291c8b4bc4",
  "meta": {
    "profile": [
      "http://hl7.eu/fhir/laboratory/StructureDefinition/Bundle-eu-lab"
    ]
  },
  "identifier": {
    "assigner": {
      "display": "HL7 Europe"
    },
    "system": "urn:oid:2.16.840.1.113883.2.51.999",
    "value": "fe08b922-8522-4ee1-9905-4c64123652e6"
  },
  "entry": [
    {
      "fullUrl": "urn:uuid:37b727d8-0260-4467-a632-f4ff7b0c8cc9",
      "resource": {
        "resourceType": "Composition",
        "id": "37b727d8-0260-4467-a632-f4ff7b0c8cc9",
        "meta": {
          "profile": [
            "http://hl7.eu/fhir/laboratory/StructureDefinition/Composition-eu-lab"
          ]
        },
        "identifier": {
          "assigner": {
            "display": "HL7 Europe"
          },
          "system": "urn:oid:2.16.840.1.113883.2.51.999",
          "value": "f5b7f3d0-2111-4f7e-aa7d-b44b8b8a4ebb"
        },
        "author": [
          {
            "reference": "urn:uuid:0b791102-d596-454d-a1e7-af814d402284"
          }
        ],
        "category": [
          {
            "coding": [
              {
                "code": "26436-6",
                "system": "http://loinc.org",
                "display": "Laboratory studies (set)"
              }
            ]
          }
        ],
        "type": {
          "coding": [
            {
              "code": "11502-2",
              "system": "http://loinc.org",
              "display": "Laboratory report"
            }
          ],
          "text": "Laboratory Report"
        },
        "section": [
          {
            "code": {
              "coding": [
                {
                  "code": "26436-6",
                  "system": "http://loinc.org",
                  "display": "Laboratory studies (set)"
                }
              ],
              "text": "Laboratory studies"
            },
            "section": [
              {
                "code": {
                  "coding": [
                    {
                      "code": "$18719-5",
                      "system": "http://loinc.org",
                      "display": "Chemistry studies (set)"
                    }
                  ],
                  "text": "Chemistry"
                },
                "entry": [
                  {
                    "reference": "urn:uuid:088d00c4-0cb7-445f-9a66-e0732e652018"
                  },
                  {
                    "reference": "urn:uuid:29b9e2cb-a2c2-46f6-8dd1-8716f4e9ffe2"
                  },
                  {
                    "reference": "urn:uuid:c57faef7-eb68-41d0-9431-c47c272c62a4"
                  },
                  {
                    "reference": "urn:uuid:aa9eddd7-60e8-4a66-bbf4-684d4e178c46"
                  },
                  {
                    "reference": "urn:uuid:639afea0-567d-42fe-8760-b58ec1e4c2ba"
                  },
                  {
                    "reference": "urn:uuid:097c7bd5-edc6-4d40-87f8-dfa4f5a3bb72"
                  },
                  {
                    "reference": "urn:uuid:1b492e97-8a0d-4639-9fd4-7cd0e43b781c"
                  },
                  {
                    "reference": "urn:uuid:28a8ebda-2713-4052-a0c3-b35070a674e7"
                  },
                  {
                    "reference": "urn:uuid:3abe09f4-9865-4ec9-a5ee-be69b92f48d8"
                  },
                  {
                    "reference": "urn:uuid:a771482b-9ef1-4ae9-b1f8-57f1a73e9432"
                  },
                  {
                    "reference": "urn:uuid:585d3c57-a476-4ad9-8107-e18cb07a8fe2"
                  },
                  {
                    "reference": "urn:uuid:08b47602-f5cb-4444-88d6-98f5bc3554d1"
                  },
                  {
                    "reference": "urn:uuid:083878c9-4da6-45a5-874a-843affe51d82"
                  },
                  {
                    "reference": "urn:uuid:a8ca5495-e5f9-4915-a467-138c461cfe8d"
                  },
                  {
                    "reference": "urn:uuid:4b69a891-09ea-400a-83f8-b886bd165635"
                  },
                  {
                    "reference": "urn:uuid:c1896951-4c4d-4054-b097-6ac7e41461cb"
                  },
                  {
                    "reference": "urn:uuid:92ed1b76-3f65-4123-8f51-d7ea3ae256dc"
                  },
                  {
                    "reference": "urn:uuid:2bbad9ce-0475-4ffe-a626-95d0561b8f2c"
                  },
                  {
                    "reference": "urn:uuid:b602bacf-2ea5-4df2-a30f-2e503823c094"
                  }
                ],
                "text": {
                  "status": "generated",
                  "div": "<div xmlns=\"http://www.w3.org/1999/xhtml\"><h3>Chemistry</h3><table class=\"hl7__eu__lab__report\"><thead><tr><th>Test</th><th>28-OCT-2018</th><th>Reference&#xA0;Range</th><th>Unit</th></tr></thead><tbody><tr><td>Glucose [Mass/volume] in Blood</td><td><strong>66.1 L</strong></td><td>70 - 140</td><td>mg/dL</td></tr><tr><td>Urea nitrogen [Mass/volume] in Blood</td><td>18.3</td><td>7 - 25</td><td>mg/dL</td></tr><tr><td>Creatinine [Mass/volume] in Blood</td><td><strong>2.7 H</strong></td><td>0.6 - 1.1</td><td>mg/dL</td></tr><tr><td>Calcium [Mass/volume] in Blood</td><td>9.6</td><td>8.6 - 10.4</td><td>mg/dL</td></tr><tr><td>Sodium [Moles/volume] in Blood</td><td>136.9</td><td>135 - 145</td><td>mmol/L</td></tr><tr><td>Potassium [Moles/volume] in Blood</td><td>4.1</td><td>3.5 - 5.3</td><td>mmol/L</td></tr><tr><td>Chloride [Moles/volume] in Blood</td><td>102.7</td><td>98 - 108</td><td>mmol/L</td></tr><tr><td>Carbon dioxide, total [Moles/volume] in Blood</td><td>26.0</td><td>22 - 32</td><td>mmol/L</td></tr><tr><td>Protein [Mass/volume] in Serum or Plasma</td><td>7.9</td><td>6.6 - 8.3</td><td>g/dL</td></tr><tr><td>Albumin [Mass/volume] in Serum or Plasma</td><td>3.9</td><td>3.5 - 5.5</td><td>g/dL</td></tr><tr><td>Globulin [Mass/volume] in Serum by calculation</td><td>3.3</td><td>2.2 - 3.7</td><td>g/L</td></tr><tr><td>Bilirubin.total [Mass/volume] in Serum or Plasma</td><td><strong>0.1 L</strong></td><td>0.3 - 1.2</td><td>mg/dL</td></tr><tr><td>Alkaline phosphatase [Enzymatic activity/volume] in Serum or Plasma</td><td>102.1</td><td>40 - 130</td><td>U/L</td></tr><tr><td>Alanine aminotransferase [Enzymatic activity/volume] in Serum or Plasma</td><td><strong>58.6 H</strong></td><td>7 - 55</td><td>U/L</td></tr><tr><td>Aspartate aminotransferase [Enzymatic activity/volume] in Serum or Plasma</td><td>32.9</td><td>10 - 40</td><td>U/L</td></tr><tr><td>Cholesterol [Mass/volume] in Serum or Plasma</td><td>193.0</td><td>125 - 200</td><td>mg/dL</td></tr><tr><td>Triglyceride [Mass/volume] in Serum or Plasma</td><td>126.8</td><td>10 - 175</td><td>mg/dL</td></tr><tr><td>Cholesterol in LDL [Mass/volume] in Serum or Plasma by Direct assay</td><td>125.5</td><td>0 - 130</td><td>mg/dL</td></tr><tr><td>Cholesterol in HDL [Mass/volume] in Serum or Plasma</td><td><strong>44.6 L</strong></td><td>50 - 100</td><td>mg/dL</td></tr></tbody></table></div>"
                },
                "title": "Chemistry"
              }
            ],
            "title": "Laboratory Report"
          },
          {
            "text": {
              "status": "generated",
              "div": "<div xmlns=\"http://www.w3.org/1999/xhtml\"><h3>Annotation</h3><table class=\"hl7__eu__lab__report\"><tr><th>Conclusion and Recommendations based on this report and previous findings known to us</th></tr><tr><td>The patient shows mild hypoglycemia, elevated creatinine suggesting impaired renal function, mildly elevated ALT indicating possible liver involvement, low total bilirubin, and low HDL cholesterol. Other parameters are within normal limits. Recommend clinical correlation for renal and hepatic function, and monitoring of glucose and lipid profile.</td></tr></table></div>"
            },
            "code": {
              "coding": [
                {
                  "system": "http://loinc.org",
                  "code": "48767-8",
                  "display": "Annotation comment"
                }
              ]
            },
            "title": "Annotation comment"
          }
        ],
        "status": "final",
        "subject": {
          "reference": "urn:uuid:0935a683-35cb-47a3-89e8-4ad5a5521cf9",
          "display": "Helene Andresen"
        },
        "date": "2018-10-28T00:53:36Z",
        "title": "Laboratory Report",
        "confidentiality": "N"
      }
    },
    {
      "fullUrl": "urn:uuid:3e94893f-1e3e-45ea-b792-74ce7d51aa00",
      "resource": {
        "resourceType": "DiagnosticReport",
        "id": "3e94893f-1e3e-45ea-b792-74ce7d51aa00",
        "meta": {
          "profile": [
            "http://hl7.eu/fhir/laboratory/StructureDefinition/DiagnosticReport-eu-lab"
          ]
        },
        "identifier": [
          {
            "assigner": {
              "display": "HL7 Europe"
            },
            "system": "urn:oid:2.16.840.1.113883.2.51.999",
            "value": "684c2943-2921-47a8-a020-ee9a368de06e"
          }
        ],
        "extension": [
          {
            "url": "http://hl7.org/fhir/5.0/StructureDefinition/extension-DiagnosticReport.composition",
            "valueReference": {
              "reference": "urn:uuid:f5b7f3d0-2111-4f7e-aa7d-b44b8b8a4ebb"
            }
          }
        ],
        "category": [
          {
            "coding": [
              {
                "code": "26436-6",
                "system": "http://loinc.org",
                "display": "Laboratory studies (set)"
              }
            ]
          }
        ],
        "specimen": [
          {
            "reference": "urn:uuid:509b53fd-fa0f-4987-acee-47d51f404b07"
          },
          {
            "reference": "urn:uuid:535dd394-1f37-48f9-831f-6c85bcb69222"
          },
          {
            "reference": "urn:uuid:9dfd09a3-5769-4496-9431-d5b5a39b4e5f"
          }
        ],
        "result": [
          {
            "reference": "urn:uuid:088d00c4-0cb7-445f-9a66-e0732e652018"
          },
          {
            "reference": "urn:uuid:29b9e2cb-a2c2-46f6-8dd1-8716f4e9ffe2"
          },
          {
            "reference": "urn:uuid:c57faef7-eb68-41d0-9431-c47c272c62a4"
          },
          {
            "reference": "urn:uuid:aa9eddd7-60e8-4a66-bbf4-684d4e178c46"
          },
          {
            "reference": "urn:uuid:639afea0-567d-42fe-8760-b58ec1e4c2ba"
          },
          {
            "reference": "urn:uuid:097c7bd5-edc6-4d40-87f8-dfa4f5a3bb72"
          },
          {
            "reference": "urn:uuid:1b492e97-8a0d-4639-9fd4-7cd0e43b781c"
          },
          {
            "reference": "urn:uuid:28a8ebda-2713-4052-a0c3-b35070a674e7"
          },
          {
            "reference": "urn:uuid:3abe09f4-9865-4ec9-a5ee-be69b92f48d8"
          },
          {
            "reference": "urn:uuid:a771482b-9ef1-4ae9-b1f8-57f1a73e9432"
          },
          {
            "reference": "urn:uuid:585d3c57-a476-4ad9-8107-e18cb07a8fe2"
          },
          {
            "reference": "urn:uuid:08b47602-f5cb-4444-88d6-98f5bc3554d1"
          },
          {
            "reference": "urn:uuid:083878c9-4da6-45a5-874a-843affe51d82"
          },
          {
            "reference": "urn:uuid:a8ca5495-e5f9-4915-a467-138c461cfe8d"
          },
          {
            "reference": "urn:uuid:4b69a891-09ea-400a-83f8-b886bd165635"
          },
          {
            "reference": "urn:uuid:c1896951-4c4d-4054-b097-6ac7e41461cb"
          },
          {
            "reference": "urn:uuid:92ed1b76-3f65-4123-8f51-d7ea3ae256dc"
          },
          {
            "reference": "urn:uuid:2bbad9ce-0475-4ffe-a626-95d0561b8f2c"
          },
          {
            "reference": "urn:uuid:b602bacf-2ea5-4df2-a30f-2e503823c094"
          }
        ],
        "status": "registered",
        "code": {
          "coding": [
            {
              "code": "11502-2",
              "system": "http://loinc.org",
              "display": "Laboratory report"
            }
          ]
        },
        "subject": {
          "reference": "urn:uuid:0935a683-35cb-47a3-89e8-4ad5a5521cf9",
          "display": "Helene Andresen"
        }
      }
    },
    {
      "fullUrl": "urn:uuid:0935a683-35cb-47a3-89e8-4ad5a5521cf9",
      "resource": {
        "resourceType": "Patient",
        "id": "0935a683-35cb-47a3-89e8-4ad5a5521cf9",
        "meta": {
          "security": [
            {
              "system": "http://terminology.hl7.org/CodeSystem/v3-ActReason",
              "code": "HTEST"
            },
            {
              "system": "http://terminology.hl7.org/CodeSystem/v3-ActReason",
              "code": "TRAIN"
            }
          ],
          "tag": [
            {
              "system": "https://synderai.net/fhir/CodeSystem/tags",
              "code": "synthetic",
              "display": "SYNDERAI Synthetic data"
            }
          ],
          "profile": [
            "http://hl7.eu/fhir/base/StructureDefinition/patient-eu-core"
          ]
        },
        "identifier": [
          {
            "type": {
              "coding": [
                {
                  "code": "PT",
                  "system": "http://terminology.hl7.org/CodeSystem/v2-0203"
                }
              ]
            },
            "system": "http://ec.europa.eu/identifier/eci",
            "value": "3450-170343-2"
          },
          {
            "type": {
              "coding": [
                {
                  "code": "MR",
                  "system": "http://terminology.hl7.org/CodeSystem/v2-0203"
                }
              ]
            },
            "system": "http://local.setting.eu/identifier",
            "value": "72e91c9c-0b01-42b0-a6a0-6dcc70aeec49"
          }
        ],
        "name": [
          {
            "family": "Andresen"
          },
          {
            "given": [
              "Helene"
            ]
          },
          {
            "text": "Helene Andresen"
          }
        ],
        "address": [
          {
            "line": [
              "Kristiansenberget 2"
            ],
            "use": "home",
            "type": "physical",
            "postalCode": "0172",
            "city": "Sørensen",
            "country": "Norway"
          }
        ],
        "telecom": [
          {
            "system": "phone",
            "value": "53 98 86 24"
          }
        ],
        "extension": [
          {
            "url": "http://hl7.org/fhir/StructureDefinition/patient-nationality",
            "valueCodeableConcept": {
              "coding": [
                {
                  "code": "NO",
                  "system": "http://hl7.org/fhir/ValueSet/country"
                }
              ]
            }
          }
        ],
        "text": {
          "status": "generated",
          "div": "<div xmlns=\"http://www.w3.org/1999/xhtml\"><table class=\"hl7__ips\"><tr><td>Helene Andresen</td><td>female</td><td>17-Oct-1939</td></tr></table></div>"
        },
        "gender": "female",
        "birthDate": "1939-10-17"
      }
    },
    {
      "fullUrl": "urn:uuid:3c3f91ad-a098-4471-a62a-fae0da37a266",
      "resource": {
        "resourceType": "ServiceRequest",
        "id": "3c3f91ad-a098-4471-a62a-fae0da37a266",
        "meta": {
          "profile": [
            "http://hl7.eu/fhir/laboratory/StructureDefinition/ServiceRequest-eu-lab"
          ]
        },
        "identifier": [
          {
            "system": "http://example.org",
            "value": "69f9c83c-aa20-4a7e-9c0f-fc2f85828496"
          }
        ],
        "specimen": [
          {
            "reference": "urn:uuid:509b53fd-fa0f-4987-acee-47d51f404b07"
          },
          {
            "reference": "urn:uuid:535dd394-1f37-48f9-831f-6c85bcb69222"
          },
          {
            "reference": "urn:uuid:9dfd09a3-5769-4496-9431-d5b5a39b4e5f"
          }
        ],
        "reasonCode": [
          {
            "coding": [
              {
                "code": "64859006",
                "system": "http://snomed.info/sct",
                "display": "Osteoporosis"
              }
            ]
          },
          {
            "coding": [
              {
                "code": "40055000",
                "system": "http://snomed.info/sct",
                "display": "Chronic sinusitis"
              }
            ]
          },
          {
            "coding": [
              {
                "code": "55822004",
                "system": "http://snomed.info/sct",
                "display": "Hyperlipidemia"
              }
            ]
          },
          {
            "coding": [
              {
                "code": "271737000",
                "system": "http://snomed.info/sct",
                "display": "Anemia"
              }
            ]
          },
          {
            "coding": [
              {
                "code": "15777000",
                "system": "http://snomed.info/sct",
                "display": "Prediabetes"
              }
            ]
          },
          {
            "coding": [
              {
                "code": "128613002",
                "system": "http://snomed.info/sct",
                "display": "Seizure disorder"
              }
            ]
          }
        ],
        "status": "active",
        "intent": "order",
        "code": {
          "coding": [
            {
              "code": "108252007",
              "system": "http://snomed.info/sct",
              "display": "Laboratory procedure"
            }
          ]
        },
        "subject": {
          "reference": "urn:uuid:0935a683-35cb-47a3-89e8-4ad5a5521cf9",
          "display": "Helene Andresen"
        },
        "requester": {
          "reference": "urn:uuid:95846c2e-5a95-42a9-9882-adfdba90f815"
        }
      }
    },
    {
      "fullUrl": "urn:uuid:95846c2e-5a95-42a9-9882-adfdba90f815",
      "resource": {
        "resourceType": "PractitionerRole",
        "id": "95846c2e-5a95-42a9-9882-adfdba90f815",
        "meta": {
          "profile": [
            "http://hl7.eu/fhir/base/StructureDefinition/practitionerRole-eu"
          ]
        },
        "text": {
          "status": "generated",
          "div": "<div xmlns=\"http://www.w3.org/1999/xhtml\">Provider Role Id: 95846c2e-5a95-42a9-9882-adfdba90f815</div>"
        },
        "organization": {
          "reference": "urn:uuid:68475f0b-d0e5-45f3-a417-16ffd331d7ae"
        }
      }
    },
    {
      "fullUrl": "urn:uuid:68475f0b-d0e5-45f3-a417-16ffd331d7ae",
      "resource": {
        "resourceType": "Organization",
        "id": "68475f0b-d0e5-45f3-a417-16ffd331d7ae",
        "meta": {
          "profile": [
            "http://hl7.eu/fhir/base/StructureDefinition/organization-eu"
          ]
        },
        "identifier": [
          {
            "assigner": {
              "display": "HL7 Europe"
            },
            "system": "urn:oid:2.16.840.1.113883.2.51.999",
            "value": "f258d059-43b8-4330-8a30-64f3f1861bab"
          }
        ],
        "address": [
          {
            "city": "Oslo",
            "postalCode": "0155",
            "country": "Norway"
          }
        ],
        "text": {
          "status": "generated",
          "div": "<div xmlns=\"http://www.w3.org/1999/xhtml\">Provider Organization: Oslo universitetssykehus (Ullevål)</div>"
        },
        "name": "Oslo universitetssykehus (Ullevål)"
      }
    },
    {
      "fullUrl": "urn:uuid:509b53fd-fa0f-4987-acee-47d51f404b07",
      "resource": {
        "resourceType": "Specimen",
        "id": "509b53fd-fa0f-4987-acee-47d51f404b07",
        "meta": {
          "profile": [
            "http://hl7.eu/fhir/laboratory/StructureDefinition/Specimen-eu-lab"
          ]
        },
        "collection": {
          "collectedDateTime": "2018-10-27"
        },
        "text": {
          "status": "generated",
          "div": "<div xmlns=\"http://www.w3.org/1999/xhtml\"><table class=\"hl7__eu__lab__report\"><tr><th>Specimen</th><th>Collection Date</th></tr><tr><td>Whole blood specimen (specimen)</td><td><span class=\"nb\">27-Oct-2018</span></td></tr></table></div>"
        },
        "type": {
          "coding": [
            {
              "code": "258580003",
              "system": "http://snomed.info/sct",
              "display": "Whole blood specimen (specimen)"
            }
          ]
        }
      }
    },
    {
      "fullUrl": "urn:uuid:535dd394-1f37-48f9-831f-6c85bcb69222",
      "resource": {
        "resourceType": "Specimen",
        "id": "535dd394-1f37-48f9-831f-6c85bcb69222",
        "meta": {
          "profile": [
            "http://hl7.eu/fhir/laboratory/StructureDefinition/Specimen-eu-lab"
          ]
        },
        "collection": {
          "collectedDateTime": "2018-10-27"
        },
        "text": {
          "status": "generated",
          "div": "<div xmlns=\"http://www.w3.org/1999/xhtml\"><table class=\"hl7__eu__lab__report\"><tr><th>Specimen</th><th>Collection Date</th></tr><tr><td>Acellular blood (serum or plasma) specimen</td><td><span class=\"nb\">27-Oct-2018</span></td></tr></table></div>"
        },
        "type": {
          "coding": [
            {
              "code": "122592007",
              "system": "http://snomed.info/sct",
              "display": "Acellular blood (serum or plasma) specimen"
            }
          ]
        }
      }
    },
    {
      "fullUrl": "urn:uuid:9dfd09a3-5769-4496-9431-d5b5a39b4e5f",
      "resource": {
        "resourceType": "Specimen",
        "id": "9dfd09a3-5769-4496-9431-d5b5a39b4e5f",
        "meta": {
          "profile": [
            "http://hl7.eu/fhir/laboratory/StructureDefinition/Specimen-eu-lab"
          ]
        },
        "collection": {
          "collectedDateTime": "2018-10-27"
        },
        "text": {
          "status": "generated",
          "div": "<div xmlns=\"http://www.w3.org/1999/xhtml\"><table class=\"hl7__eu__lab__report\"><tr><th>Specimen</th><th>Collection Date</th></tr><tr><td>Serum specimen</td><td><span class=\"nb\">27-Oct-2018</span></td></tr></table></div>"
        },
        "type": {
          "coding": [
            {
              "code": "119364003",
              "system": "http://snomed.info/sct",
              "display": "Serum specimen"
            }
          ]
        }
      }
    },
    {
      "fullUrl": "urn:uuid:088d00c4-0cb7-445f-9a66-e0732e652018",
      "resource": {
        "resourceType": "Observation",
        "id": "088d00c4-0cb7-445f-9a66-e0732e652018",
        "meta": {
          "profile": [
            "http://hl7.eu/fhir/laboratory/StructureDefinition/Observation-resultslab-eu-lab"
          ]
        },
        "performer": [
          {
            "display": "The Central European Lab"
          }
        ],
        "category": [
          {
            "coding": [
              {
                "system": "http://terminology.hl7.org/CodeSystem/observation-category",
                "code": "laboratory"
              }
            ]
          }
        ],
        "code": {
          "coding": [
            {
              "code": "2339-0",
              "system": "http://loinc.org",
              "display": "Glucose [Mass/volume] in Blood"
            }
          ],
          "text": "Glucose [Mass/volume] in Blood"
        },
        "valueQuantity": {
          "system": "http://unitsofmeasure.org",
          "value": 66.1,
          "unit": "mg/dL",
          "code": "mg/dL"
        },
        "referenceRange": [
          {
            "low": {
              "value": 70,
              "code": "mg/dL",
              "system": "http://unitsofmeasure.org"
            }
          },
          {
            "high": {
              "value": 140,
              "code": "mg/dL",
              "system": "http://unitsofmeasure.org"
            }
          }
        ],
        "interpretation": [
          {
            "coding": [
              {
                "code": "L",
                "system": "http://terminology.hl7.org/CodeSystem/v3-ObservationInterpretation",
                "display": "Low"
              }
            ]
          }
        ],
        "text": {
          "status": "generated",
          "div": "<div xmlns=\"http://www.w3.org/1999/xhtml\"><table class=\"hl7__eu__lab__report\"><tr><th>Test</th><th>28-Oct-2018</th><th>Reference&#xA0;Range</th><th>Unit</th></tr><tr><td>Glucose [Mass/volume] in Blood</td><td>66.1</td><td>70 - 140</td><td>L</td><td>mg/dL</td></tr></table></div>"
        },
        "status": "final",
        "subject": {
          "reference": "urn:uuid:0935a683-35cb-47a3-89e8-4ad5a5521cf9",
          "display": "Helene Andresen"
        },
        "effectiveDateTime": "2018-10-27T22:53:36Z",
        "specimen": {
          "reference": "urn:uuid:509b53fd-fa0f-4987-acee-47d51f404b07"
        }
      }
    },
    {
      "fullUrl": "urn:uuid:29b9e2cb-a2c2-46f6-8dd1-8716f4e9ffe2",
      "resource": {
        "resourceType": "Observation",
        "id": "29b9e2cb-a2c2-46f6-8dd1-8716f4e9ffe2",
        "meta": {
          "profile": [
            "http://hl7.eu/fhir/laboratory/StructureDefinition/Observation-resultslab-eu-lab"
          ]
        },
        "performer": [
          {
            "display": "The Central European Lab"
          }
        ],
        "category": [
          {
            "coding": [
              {
                "system": "http://terminology.hl7.org/CodeSystem/observation-category",
                "code": "laboratory"
              }
            ]
          }
        ],
        "code": {
          "coding": [
            {
              "code": "6299-2",
              "system": "http://loinc.org",
              "display": "Urea nitrogen [Mass/volume] in Blood"
            }
          ],
          "text": "Urea nitrogen [Mass/volume] in Blood"
        },
        "valueQuantity": {
          "system": "http://unitsofmeasure.org",
          "value": 18.3,
          "unit": "mg/dL",
          "code": "mg/dL"
        },
        "referenceRange": [
          {
            "low": {
              "value": 7,
              "code": "mg/dL",
              "system": "http://unitsofmeasure.org"
            }
          },
          {
            "high": {
              "value": 25,
              "code": "mg/dL",
              "system": "http://unitsofmeasure.org"
            }
          }
        ],
        "text": {
          "status": "generated",
          "div": "<div xmlns=\"http://www.w3.org/1999/xhtml\"><table class=\"hl7__eu__lab__report\"><tr><th>Test</th><th>28-Oct-2018</th><th>Reference&#xA0;Range</th><th>Unit</th></tr><tr><td>Urea nitrogen [Mass/volume] in Blood</td><td>18.3</td><td>7 - 25</td><td></td><td>mg/dL</td></tr></table></div>"
        },
        "status": "final",
        "subject": {
          "reference": "urn:uuid:0935a683-35cb-47a3-89e8-4ad5a5521cf9",
          "display": "Helene Andresen"
        },
        "effectiveDateTime": "2018-10-27T22:53:36Z",
        "specimen": {
          "reference": "urn:uuid:509b53fd-fa0f-4987-acee-47d51f404b07"
        }
      }
    },
    {
      "fullUrl": "urn:uuid:c57faef7-eb68-41d0-9431-c47c272c62a4",
      "resource": {
        "resourceType": "Observation",
        "id": "c57faef7-eb68-41d0-9431-c47c272c62a4",
        "meta": {
          "profile": [
            "http://hl7.eu/fhir/laboratory/StructureDefinition/Observation-resultslab-eu-lab"
          ]
        },
        "performer": [
          {
            "display": "The Central European Lab"
          }
        ],
        "category": [
          {
            "coding": [
              {
                "system": "http://terminology.hl7.org/CodeSystem/observation-category",
                "code": "laboratory"
              }
            ]
          }
        ],
        "code": {
          "coding": [
            {
              "code": "38483-4",
              "system": "http://loinc.org",
              "display": "Creatinine [Mass/volume] in Blood"
            }
          ],
          "text": "Creatinine [Mass/volume] in Blood"
        },
        "valueQuantity": {
          "system": "http://unitsofmeasure.org",
          "value": 2.7,
          "unit": "mg/dL",
          "code": "mg/dL"
        },
        "referenceRange": [
          {
            "low": {
              "value": 0.6,
              "code": "mg/dL",
              "system": "http://unitsofmeasure.org"
            }
          },
          {
            "high": {
              "value": 1.1,
              "code": "mg/dL",
              "system": "http://unitsofmeasure.org"
            }
          }
        ],
        "interpretation": [
          {
            "coding": [
              {
                "code": "H",
                "system": "http://terminology.hl7.org/CodeSystem/v3-ObservationInterpretation",
                "display": "High"
              }
            ]
          }
        ],
        "text": {
          "status": "generated",
          "div": "<div xmlns=\"http://www.w3.org/1999/xhtml\"><table class=\"hl7__eu__lab__report\"><tr><th>Test</th><th>28-Oct-2018</th><th>Reference&#xA0;Range</th><th>Unit</th></tr><tr><td>Creatinine [Mass/volume] in Blood</td><td>2.7</td><td>0.6 - 1.1</td><td>H</td><td>mg/dL</td></tr></table></div>"
        },
        "status": "final",
        "subject": {
          "reference": "urn:uuid:0935a683-35cb-47a3-89e8-4ad5a5521cf9",
          "display": "Helene Andresen"
        },
        "effectiveDateTime": "2018-10-27T22:53:36Z",
        "specimen": {
          "reference": "urn:uuid:509b53fd-fa0f-4987-acee-47d51f404b07"
        }
      }
    },
    {
      "fullUrl": "urn:uuid:aa9eddd7-60e8-4a66-bbf4-684d4e178c46",
      "resource": {
        "resourceType": "Observation",
        "id": "aa9eddd7-60e8-4a66-bbf4-684d4e178c46",
        "meta": {
          "profile": [
            "http://hl7.eu/fhir/laboratory/StructureDefinition/Observation-resultslab-eu-lab"
          ]
        },
        "performer": [
          {
            "display": "The Central European Lab"
          }
        ],
        "category": [
          {
            "coding": [
              {
                "system": "http://terminology.hl7.org/CodeSystem/observation-category",
                "code": "laboratory"
              }
            ]
          }
        ],
        "code": {
          "coding": [
            {
              "code": "49765-1",
              "system": "http://loinc.org",
              "display": "Calcium [Mass/volume] in Blood"
            }
          ],
          "text": "Calcium [Mass/volume] in Blood"
        },
        "valueQuantity": {
          "system": "http://unitsofmeasure.org",
          "value": 9.6,
          "unit": "mg/dL",
          "code": "mg/dL"
        },
        "referenceRange": [
          {
            "low": {
              "value": 8.6,
              "code": "mg/dL",
              "system": "http://unitsofmeasure.org"
            }
          },
          {
            "high": {
              "value": 10.4,
              "code": "mg/dL",
              "system": "http://unitsofmeasure.org"
            }
          }
        ],
        "text": {
          "status": "generated",
          "div": "<div xmlns=\"http://www.w3.org/1999/xhtml\"><table class=\"hl7__eu__lab__report\"><tr><th>Test</th><th>28-Oct-2018</th><th>Reference&#xA0;Range</th><th>Unit</th></tr><tr><td>Calcium [Mass/volume] in Blood</td><td>9.6</td><td>8.6 - 10.4</td><td></td><td>mg/dL</td></tr></table></div>"
        },
        "status": "final",
        "subject": {
          "reference": "urn:uuid:0935a683-35cb-47a3-89e8-4ad5a5521cf9",
          "display": "Helene Andresen"
        },
        "effectiveDateTime": "2018-10-27T22:53:36Z",
        "specimen": {
          "reference": "urn:uuid:509b53fd-fa0f-4987-acee-47d51f404b07"
        }
      }
    },
    {
      "fullUrl": "urn:uuid:639afea0-567d-42fe-8760-b58ec1e4c2ba",
      "resource": {
        "resourceType": "Observation",
        "id": "639afea0-567d-42fe-8760-b58ec1e4c2ba",
        "meta": {
          "profile": [
            "http://hl7.eu/fhir/laboratory/StructureDefinition/Observation-resultslab-eu-lab"
          ]
        },
        "performer": [
          {
            "display": "The Central European Lab"
          }
        ],
        "category": [
          {
            "coding": [
              {
                "system": "http://terminology.hl7.org/CodeSystem/observation-category",
                "code": "laboratory"
              }
            ]
          }
        ],
        "code": {
          "coding": [
            {
              "code": "2947-0",
              "system": "http://loinc.org",
              "display": "Sodium [Moles/volume] in Blood"
            }
          ],
          "text": "Sodium [Moles/volume] in Blood"
        },
        "valueQuantity": {
          "system": "http://unitsofmeasure.org",
          "value": 136.9,
          "unit": "mmol/L",
          "code": "mmol/L"
        },
        "referenceRange": [
          {
            "low": {
              "value": 135,
              "code": "mmol/L",
              "system": "http://unitsofmeasure.org"
            }
          },
          {
            "high": {
              "value": 145,
              "code": "mmol/L",
              "system": "http://unitsofmeasure.org"
            }
          }
        ],
        "text": {
          "status": "generated",
          "div": "<div xmlns=\"http://www.w3.org/1999/xhtml\"><table class=\"hl7__eu__lab__report\"><tr><th>Test</th><th>28-Oct-2018</th><th>Reference&#xA0;Range</th><th>Unit</th></tr><tr><td>Sodium [Moles/volume] in Blood</td><td>136.9</td><td>135 - 145</td><td></td><td>mmol/L</td></tr></table></div>"
        },
        "status": "final",
        "subject": {
          "reference": "urn:uuid:0935a683-35cb-47a3-89e8-4ad5a5521cf9",
          "display": "Helene Andresen"
        },
        "effectiveDateTime": "2018-10-27T22:53:36Z",
        "specimen": {
          "reference": "urn:uuid:509b53fd-fa0f-4987-acee-47d51f404b07"
        }
      }
    },
    {
      "fullUrl": "urn:uuid:097c7bd5-edc6-4d40-87f8-dfa4f5a3bb72",
      "resource": {
        "resourceType": "Observation",
        "id": "097c7bd5-edc6-4d40-87f8-dfa4f5a3bb72",
        "meta": {
          "profile": [
            "http://hl7.eu/fhir/laboratory/StructureDefinition/Observation-resultslab-eu-lab"
          ]
        },
        "performer": [
          {
            "display": "The Central European Lab"
          }
        ],
        "category": [
          {
            "coding": [
              {
                "system": "http://terminology.hl7.org/CodeSystem/observation-category",
                "code": "laboratory"
              }
            ]
          }
        ],
        "code": {
          "coding": [
            {
              "code": "6298-4",
              "system": "http://loinc.org",
              "display": "Potassium [Moles/volume] in Blood"
            }
          ],
          "text": "Potassium [Moles/volume] in Blood"
        },
        "valueQuantity": {
          "system": "http://unitsofmeasure.org",
          "value": 4.1,
          "unit": "mmol/L",
          "code": "mmol/L"
        },
        "referenceRange": [
          {
            "low": {
              "value": 3.5,
              "code": "mmol/L",
              "system": "http://unitsofmeasure.org"
            }
          },
          {
            "high": {
              "value": 5.3,
              "code": "mmol/L",
              "system": "http://unitsofmeasure.org"
            }
          }
        ],
        "text": {
          "status": "generated",
          "div": "<div xmlns=\"http://www.w3.org/1999/xhtml\"><table class=\"hl7__eu__lab__report\"><tr><th>Test</th><th>28-Oct-2018</th><th>Reference&#xA0;Range</th><th>Unit</th></tr><tr><td>Potassium [Moles/volume] in Blood</td><td>4.1</td><td>3.5 - 5.3</td><td></td><td>mmol/L</td></tr></table></div>"
        },
        "status": "final",
        "subject": {
          "reference": "urn:uuid:0935a683-35cb-47a3-89e8-4ad5a5521cf9",
          "display": "Helene Andresen"
        },
        "effectiveDateTime": "2018-10-27T22:53:36Z",
        "specimen": {
          "reference": "urn:uuid:509b53fd-fa0f-4987-acee-47d51f404b07"
        }
      }
    },
    {
      "fullUrl": "urn:uuid:1b492e97-8a0d-4639-9fd4-7cd0e43b781c",
      "resource": {
        "resourceType": "Observation",
        "id": "1b492e97-8a0d-4639-9fd4-7cd0e43b781c",
        "meta": {
          "profile": [
            "http://hl7.eu/fhir/laboratory/StructureDefinition/Observation-resultslab-eu-lab"
          ]
        },
        "performer": [
          {
            "display": "The Central European Lab"
          }
        ],
        "category": [
          {
            "coding": [
              {
                "system": "http://terminology.hl7.org/CodeSystem/observation-category",
                "code": "laboratory"
              }
            ]
          }
        ],
        "code": {
          "coding": [
            {
              "code": "2069-3",
              "system": "http://loinc.org",
              "display": "Chloride [Moles/volume] in Blood"
            }
          ],
          "text": "Chloride [Moles/volume] in Blood"
        },
        "valueQuantity": {
          "system": "http://unitsofmeasure.org",
          "value": 102.7,
          "unit": "mmol/L",
          "code": "mmol/L"
        },
        "referenceRange": [
          {
            "low": {
              "value": 98,
              "code": "mmol/L",
              "system": "http://unitsofmeasure.org"
            }
          },
          {
            "high": {
              "value": 108,
              "code": "mmol/L",
              "system": "http://unitsofmeasure.org"
            }
          }
        ],
        "text": {
          "status": "generated",
          "div": "<div xmlns=\"http://www.w3.org/1999/xhtml\"><table class=\"hl7__eu__lab__report\"><tr><th>Test</th><th>28-Oct-2018</th><th>Reference&#xA0;Range</th><th>Unit</th></tr><tr><td>Chloride [Moles/volume] in Blood</td><td>102.7</td><td>98 - 108</td><td></td><td>mmol/L</td></tr></table></div>"
        },
        "status": "final",
        "subject": {
          "reference": "urn:uuid:0935a683-35cb-47a3-89e8-4ad5a5521cf9",
          "display": "Helene Andresen"
        },
        "effectiveDateTime": "2018-10-27T22:53:36Z",
        "specimen": {
          "reference": "urn:uuid:509b53fd-fa0f-4987-acee-47d51f404b07"
        }
      }
    },
    {
      "fullUrl": "urn:uuid:28a8ebda-2713-4052-a0c3-b35070a674e7",
      "resource": {
        "resourceType": "Observation",
        "id": "28a8ebda-2713-4052-a0c3-b35070a674e7",
        "meta": {
          "profile": [
            "http://hl7.eu/fhir/laboratory/StructureDefinition/Observation-resultslab-eu-lab"
          ]
        },
        "performer": [
          {
            "display": "The Central European Lab"
          }
        ],
        "category": [
          {
            "coding": [
              {
                "system": "http://terminology.hl7.org/CodeSystem/observation-category",
                "code": "laboratory"
              }
            ]
          }
        ],
        "code": {
          "coding": [
            {
              "code": "20565-8",
              "system": "http://loinc.org",
              "display": "Carbon dioxide, total [Moles/volume] in Blood"
            }
          ],
          "text": "Carbon dioxide, total [Moles/volume] in Blood"
        },
        "valueQuantity": {
          "system": "http://unitsofmeasure.org",
          "value": 26,
          "unit": "mmol/L",
          "code": "mmol/L"
        },
        "referenceRange": [
          {
            "low": {
              "value": 22,
              "code": "mmol/L",
              "system": "http://unitsofmeasure.org"
            }
          },
          {
            "high": {
              "value": 32,
              "code": "mmol/L",
              "system": "http://unitsofmeasure.org"
            }
          }
        ],
        "text": {
          "status": "generated",
          "div": "<div xmlns=\"http://www.w3.org/1999/xhtml\"><table class=\"hl7__eu__lab__report\"><tr><th>Test</th><th>28-Oct-2018</th><th>Reference&#xA0;Range</th><th>Unit</th></tr><tr><td>Carbon dioxide, total [Moles/volume] in Blood</td><td>26.0</td><td>22 - 32</td><td></td><td>mmol/L</td></tr></table></div>"
        },
        "status": "final",
        "subject": {
          "reference": "urn:uuid:0935a683-35cb-47a3-89e8-4ad5a5521cf9",
          "display": "Helene Andresen"
        },
        "effectiveDateTime": "2018-10-27T22:53:36Z",
        "specimen": {
          "reference": "urn:uuid:509b53fd-fa0f-4987-acee-47d51f404b07"
        }
      }
    },
    {
      "fullUrl": "urn:uuid:3abe09f4-9865-4ec9-a5ee-be69b92f48d8",
      "resource": {
        "resourceType": "Observation",
        "id": "3abe09f4-9865-4ec9-a5ee-be69b92f48d8",
        "meta": {
          "profile": [
            "http://hl7.eu/fhir/laboratory/StructureDefinition/Observation-resultslab-eu-lab"
          ]
        },
        "performer": [
          {
            "display": "The Central European Lab"
          }
        ],
        "category": [
          {
            "coding": [
              {
                "system": "http://terminology.hl7.org/CodeSystem/observation-category",
                "code": "laboratory"
              }
            ]
          }
        ],
        "code": {
          "coding": [
            {
              "code": "2885-2",
              "system": "http://loinc.org",
              "display": "Protein [Mass/volume] in Serum or Plasma"
            }
          ],
          "text": "Protein [Mass/volume] in Serum or Plasma"
        },
        "valueQuantity": {
          "system": "http://unitsofmeasure.org",
          "value": 7.9,
          "unit": "g/dL",
          "code": "g/dL"
        },
        "referenceRange": [
          {
            "low": {
              "value": 6.6,
              "code": "g/dL",
              "system": "http://unitsofmeasure.org"
            }
          },
          {
            "high": {
              "value": 8.3,
              "code": "g/dL",
              "system": "http://unitsofmeasure.org"
            }
          }
        ],
        "text": {
          "status": "generated",
          "div": "<div xmlns=\"http://www.w3.org/1999/xhtml\"><table class=\"hl7__eu__lab__report\"><tr><th>Test</th><th>28-Oct-2018</th><th>Reference&#xA0;Range</th><th>Unit</th></tr><tr><td>Protein [Mass/volume] in Serum or Plasma</td><td>7.9</td><td>6.6 - 8.3</td><td></td><td>g/dL</td></tr></table></div>"
        },
        "status": "final",
        "subject": {
          "reference": "urn:uuid:0935a683-35cb-47a3-89e8-4ad5a5521cf9",
          "display": "Helene Andresen"
        },
        "effectiveDateTime": "2018-10-27T22:53:36Z",
        "specimen": {
          "reference": "urn:uuid:535dd394-1f37-48f9-831f-6c85bcb69222"
        }
      }
    },
    {
      "fullUrl": "urn:uuid:a771482b-9ef1-4ae9-b1f8-57f1a73e9432",
      "resource": {
        "resourceType": "Observation",
        "id": "a771482b-9ef1-4ae9-b1f8-57f1a73e9432",
        "meta": {
          "profile": [
            "http://hl7.eu/fhir/laboratory/StructureDefinition/Observation-resultslab-eu-lab"
          ]
        },
        "performer": [
          {
            "display": "The Central European Lab"
          }
        ],
        "category": [
          {
            "coding": [
              {
                "system": "http://terminology.hl7.org/CodeSystem/observation-category",
                "code": "laboratory"
              }
            ]
          }
        ],
        "code": {
          "coding": [
            {
              "code": "1751-7",
              "system": "http://loinc.org",
              "display": "Albumin [Mass/volume] in Serum or Plasma"
            }
          ],
          "text": "Albumin [Mass/volume] in Serum or Plasma"
        },
        "valueQuantity": {
          "system": "http://unitsofmeasure.org",
          "value": 3.9,
          "unit": "g/dL",
          "code": "g/dL"
        },
        "referenceRange": [
          {
            "low": {
              "value": 3.5,
              "code": "g/dL",
              "system": "http://unitsofmeasure.org"
            }
          },
          {
            "high": {
              "value": 5.5,
              "code": "g/dL",
              "system": "http://unitsofmeasure.org"
            }
          }
        ],
        "text": {
          "status": "generated",
          "div": "<div xmlns=\"http://www.w3.org/1999/xhtml\"><table class=\"hl7__eu__lab__report\"><tr><th>Test</th><th>28-Oct-2018</th><th>Reference&#xA0;Range</th><th>Unit</th></tr><tr><td>Albumin [Mass/volume] in Serum or Plasma</td><td>3.9</td><td>3.5 - 5.5</td><td></td><td>g/dL</td></tr></table></div>"
        },
        "status": "final",
        "subject": {
          "reference": "urn:uuid:0935a683-35cb-47a3-89e8-4ad5a5521cf9",
          "display": "Helene Andresen"
        },
        "effectiveDateTime": "2018-10-27T22:53:36Z",
        "specimen": {
          "reference": "urn:uuid:535dd394-1f37-48f9-831f-6c85bcb69222"
        }
      }
    },
    {
      "fullUrl": "urn:uuid:585d3c57-a476-4ad9-8107-e18cb07a8fe2",
      "resource": {
        "resourceType": "Observation",
        "id": "585d3c57-a476-4ad9-8107-e18cb07a8fe2",
        "meta": {
          "profile": [
            "http://hl7.eu/fhir/laboratory/StructureDefinition/Observation-resultslab-eu-lab"
          ]
        },
        "performer": [
          {
            "display": "The Central European Lab"
          }
        ],
        "category": [
          {
            "coding": [
              {
                "system": "http://terminology.hl7.org/CodeSystem/observation-category",
                "code": "laboratory"
              }
            ]
          }
        ],
        "code": {
          "coding": [
            {
              "code": "10834-0",
              "system": "http://loinc.org",
              "display": "Globulin [Mass/volume] in Serum by calculation"
            }
          ],
          "text": "Globulin [Mass/volume] in Serum by calculation"
        },
        "valueQuantity": {
          "system": "http://unitsofmeasure.org",
          "value": 3.3,
          "unit": "g/L",
          "code": "g/L"
        },
        "referenceRange": [
          {
            "low": {
              "value": 2.2,
              "code": "g/L",
              "system": "http://unitsofmeasure.org"
            }
          },
          {
            "high": {
              "value": 3.7,
              "code": "g/L",
              "system": "http://unitsofmeasure.org"
            }
          }
        ],
        "text": {
          "status": "generated",
          "div": "<div xmlns=\"http://www.w3.org/1999/xhtml\"><table class=\"hl7__eu__lab__report\"><tr><th>Test</th><th>28-Oct-2018</th><th>Reference&#xA0;Range</th><th>Unit</th></tr><tr><td>Globulin [Mass/volume] in Serum by calculation</td><td>3.3</td><td>2.2 - 3.7</td><td></td><td>g/L</td></tr></table></div>"
        },
        "status": "final",
        "subject": {
          "reference": "urn:uuid:0935a683-35cb-47a3-89e8-4ad5a5521cf9",
          "display": "Helene Andresen"
        },
        "effectiveDateTime": "2018-10-27T22:53:36Z",
        "specimen": {
          "reference": "urn:uuid:9dfd09a3-5769-4496-9431-d5b5a39b4e5f"
        }
      }
    },
    {
      "fullUrl": "urn:uuid:08b47602-f5cb-4444-88d6-98f5bc3554d1",
      "resource": {
        "resourceType": "Observation",
        "id": "08b47602-f5cb-4444-88d6-98f5bc3554d1",
        "meta": {
          "profile": [
            "http://hl7.eu/fhir/laboratory/StructureDefinition/Observation-resultslab-eu-lab"
          ]
        },
        "performer": [
          {
            "display": "The Central European Lab"
          }
        ],
        "category": [
          {
            "coding": [
              {
                "system": "http://terminology.hl7.org/CodeSystem/observation-category",
                "code": "laboratory"
              }
            ]
          }
        ],
        "code": {
          "coding": [
            {
              "code": "1975-2",
              "system": "http://loinc.org",
              "display": "Bilirubin.total [Mass/volume] in Serum or Plasma"
            }
          ],
          "text": "Bilirubin.total [Mass/volume] in Serum or Plasma"
        },
        "valueQuantity": {
          "system": "http://unitsofmeasure.org",
          "value": 0.1,
          "unit": "mg/dL",
          "code": "mg/dL"
        },
        "referenceRange": [
          {
            "low": {
              "value": 0.3,
              "code": "mg/dL",
              "system": "http://unitsofmeasure.org"
            }
          },
          {
            "high": {
              "value": 1.2,
              "code": "mg/dL",
              "system": "http://unitsofmeasure.org"
            }
          }
        ],
        "interpretation": [
          {
            "coding": [
              {
                "code": "L",
                "system": "http://terminology.hl7.org/CodeSystem/v3-ObservationInterpretation",
                "display": "Low"
              }
            ]
          }
        ],
        "text": {
          "status": "generated",
          "div": "<div xmlns=\"http://www.w3.org/1999/xhtml\"><table class=\"hl7__eu__lab__report\"><tr><th>Test</th><th>28-Oct-2018</th><th>Reference&#xA0;Range</th><th>Unit</th></tr><tr><td>Bilirubin.total [Mass/volume] in Serum or Plasma</td><td>0.1</td><td>0.3 - 1.2</td><td>L</td><td>mg/dL</td></tr></table></div>"
        },
        "status": "final",
        "subject": {
          "reference": "urn:uuid:0935a683-35cb-47a3-89e8-4ad5a5521cf9",
          "display": "Helene Andresen"
        },
        "effectiveDateTime": "2018-10-27T22:53:36Z",
        "specimen": {
          "reference": "urn:uuid:535dd394-1f37-48f9-831f-6c85bcb69222"
        }
      }
    },
    {
      "fullUrl": "urn:uuid:083878c9-4da6-45a5-874a-843affe51d82",
      "resource": {
        "resourceType": "Observation",
        "id": "083878c9-4da6-45a5-874a-843affe51d82",
        "meta": {
          "profile": [
            "http://hl7.eu/fhir/laboratory/StructureDefinition/Observation-resultslab-eu-lab"
          ]
        },
        "performer": [
          {
            "display": "The Central European Lab"
          }
        ],
        "category": [
          {
            "coding": [
              {
                "system": "http://terminology.hl7.org/CodeSystem/observation-category",
                "code": "laboratory"
              }
            ]
          }
        ],
        "code": {
          "coding": [
            {
              "code": "6768-6",
              "system": "http://loinc.org",
              "display": "Alkaline phosphatase [Enzymatic activity/volume] in Serum or Plasma"
            }
          ],
          "text": "Alkaline phosphatase [Enzymatic activity/volume] in Serum or Plasma"
        },
        "valueQuantity": {
          "system": "http://unitsofmeasure.org",
          "value": 102.1,
          "unit": "U/L",
          "code": "U/L"
        },
        "referenceRange": [
          {
            "low": {
              "value": 40,
              "code": "U/L",
              "system": "http://unitsofmeasure.org"
            }
          },
          {
            "high": {
              "value": 130,
              "code": "U/L",
              "system": "http://unitsofmeasure.org"
            }
          }
        ],
        "text": {
          "status": "generated",
          "div": "<div xmlns=\"http://www.w3.org/1999/xhtml\"><table class=\"hl7__eu__lab__report\"><tr><th>Test</th><th>28-Oct-2018</th><th>Reference&#xA0;Range</th><th>Unit</th></tr><tr><td>Alkaline phosphatase [Enzymatic activity/volume] in Serum or Plasma</td><td>102.1</td><td>40 - 130</td><td></td><td>U/L</td></tr></table></div>"
        },
        "status": "final",
        "subject": {
          "reference": "urn:uuid:0935a683-35cb-47a3-89e8-4ad5a5521cf9",
          "display": "Helene Andresen"
        },
        "effectiveDateTime": "2018-10-27T22:53:36Z",
        "specimen": {
          "reference": "urn:uuid:535dd394-1f37-48f9-831f-6c85bcb69222"
        }
      }
    },
    {
      "fullUrl": "urn:uuid:a8ca5495-e5f9-4915-a467-138c461cfe8d",
      "resource": {
        "resourceType": "Observation",
        "id": "a8ca5495-e5f9-4915-a467-138c461cfe8d",
        "meta": {
          "profile": [
            "http://hl7.eu/fhir/laboratory/StructureDefinition/Observation-resultslab-eu-lab"
          ]
        },
        "performer": [
          {
            "display": "The Central European Lab"
          }
        ],
        "category": [
          {
            "coding": [
              {
                "system": "http://terminology.hl7.org/CodeSystem/observation-category",
                "code": "laboratory"
              }
            ]
          }
        ],
        "code": {
          "coding": [
            {
              "code": "1742-6",
              "system": "http://loinc.org",
              "display": "Alanine aminotransferase [Enzymatic activity/volume] in Serum or Plasma"
            }
          ],
          "text": "Alanine aminotransferase [Enzymatic activity/volume] in Serum or Plasma"
        },
        "valueQuantity": {
          "system": "http://unitsofmeasure.org",
          "value": 58.6,
          "unit": "U/L",
          "code": "U/L"
        },
        "referenceRange": [
          {
            "low": {
              "value": 7,
              "code": "U/L",
              "system": "http://unitsofmeasure.org"
            }
          },
          {
            "high": {
              "value": 55,
              "code": "U/L",
              "system": "http://unitsofmeasure.org"
            }
          }
        ],
        "interpretation": [
          {
            "coding": [
              {
                "code": "H",
                "system": "http://terminology.hl7.org/CodeSystem/v3-ObservationInterpretation",
                "display": "High"
              }
            ]
          }
        ],
        "text": {
          "status": "generated",
          "div": "<div xmlns=\"http://www.w3.org/1999/xhtml\"><table class=\"hl7__eu__lab__report\"><tr><th>Test</th><th>28-Oct-2018</th><th>Reference&#xA0;Range</th><th>Unit</th></tr><tr><td>Alanine aminotransferase [Enzymatic activity/volume] in Serum or Plasma</td><td>58.6</td><td>7 - 55</td><td>H</td><td>U/L</td></tr></table></div>"
        },
        "status": "final",
        "subject": {
          "reference": "urn:uuid:0935a683-35cb-47a3-89e8-4ad5a5521cf9",
          "display": "Helene Andresen"
        },
        "effectiveDateTime": "2018-10-27T22:53:36Z",
        "specimen": {
          "reference": "urn:uuid:535dd394-1f37-48f9-831f-6c85bcb69222"
        }
      }
    },
    {
      "fullUrl": "urn:uuid:4b69a891-09ea-400a-83f8-b886bd165635",
      "resource": {
        "resourceType": "Observation",
        "id": "4b69a891-09ea-400a-83f8-b886bd165635",
        "meta": {
          "profile": [
            "http://hl7.eu/fhir/laboratory/StructureDefinition/Observation-resultslab-eu-lab"
          ]
        },
        "performer": [
          {
            "display": "The Central European Lab"
          }
        ],
        "category": [
          {
            "coding": [
              {
                "system": "http://terminology.hl7.org/CodeSystem/observation-category",
                "code": "laboratory"
              }
            ]
          }
        ],
        "code": {
          "coding": [
            {
              "code": "1920-8",
              "system": "http://loinc.org",
              "display": "Aspartate aminotransferase [Enzymatic activity/volume] in Serum or Plasma"
            }
          ],
          "text": "Aspartate aminotransferase [Enzymatic activity/volume] in Serum or Plasma"
        },
        "valueQuantity": {
          "system": "http://unitsofmeasure.org",
          "value": 32.9,
          "unit": "U/L",
          "code": "U/L"
        },
        "referenceRange": [
          {
            "low": {
              "value": 10,
              "code": "U/L",
              "system": "http://unitsofmeasure.org"
            }
          },
          {
            "high": {
              "value": 40,
              "code": "U/L",
              "system": "http://unitsofmeasure.org"
            }
          }
        ],
        "text": {
          "status": "generated",
          "div": "<div xmlns=\"http://www.w3.org/1999/xhtml\"><table class=\"hl7__eu__lab__report\"><tr><th>Test</th><th>28-Oct-2018</th><th>Reference&#xA0;Range</th><th>Unit</th></tr><tr><td>Aspartate aminotransferase [Enzymatic activity/volume] in Serum or Plasma</td><td>32.9</td><td>10 - 40</td><td></td><td>U/L</td></tr></table></div>"
        },
        "status": "final",
        "subject": {
          "reference": "urn:uuid:0935a683-35cb-47a3-89e8-4ad5a5521cf9",
          "display": "Helene Andresen"
        },
        "effectiveDateTime": "2018-10-27T22:53:36Z",
        "specimen": {
          "reference": "urn:uuid:535dd394-1f37-48f9-831f-6c85bcb69222"
        }
      }
    },
    {
      "fullUrl": "urn:uuid:c1896951-4c4d-4054-b097-6ac7e41461cb",
      "resource": {
        "resourceType": "Observation",
        "id": "c1896951-4c4d-4054-b097-6ac7e41461cb",
        "meta": {
          "profile": [
            "http://hl7.eu/fhir/laboratory/StructureDefinition/Observation-resultslab-eu-lab"
          ]
        },
        "performer": [
          {
            "display": "The Central European Lab"
          }
        ],
        "category": [
          {
            "coding": [
              {
                "system": "http://terminology.hl7.org/CodeSystem/observation-category",
                "code": "laboratory"
              }
            ]
          }
        ],
        "code": {
          "coding": [
            {
              "code": "2093-3",
              "system": "http://loinc.org",
              "display": "Cholesterol [Mass/volume] in Serum or Plasma"
            }
          ],
          "text": "Cholesterol [Mass/volume] in Serum or Plasma"
        },
        "valueQuantity": {
          "system": "http://unitsofmeasure.org",
          "value": 193,
          "unit": "mg/dL",
          "code": "mg/dL"
        },
        "referenceRange": [
          {
            "low": {
              "value": 125,
              "code": "mg/dL",
              "system": "http://unitsofmeasure.org"
            }
          },
          {
            "high": {
              "value": 200,
              "code": "mg/dL",
              "system": "http://unitsofmeasure.org"
            }
          }
        ],
        "text": {
          "status": "generated",
          "div": "<div xmlns=\"http://www.w3.org/1999/xhtml\"><table class=\"hl7__eu__lab__report\"><tr><th>Test</th><th>28-Oct-2018</th><th>Reference&#xA0;Range</th><th>Unit</th></tr><tr><td>Cholesterol [Mass/volume] in Serum or Plasma</td><td>193.0</td><td>125 - 200</td><td></td><td>mg/dL</td></tr></table></div>"
        },
        "status": "final",
        "subject": {
          "reference": "urn:uuid:0935a683-35cb-47a3-89e8-4ad5a5521cf9",
          "display": "Helene Andresen"
        },
        "effectiveDateTime": "2018-10-27T22:53:36Z",
        "specimen": {
          "reference": "urn:uuid:535dd394-1f37-48f9-831f-6c85bcb69222"
        }
      }
    },
    {
      "fullUrl": "urn:uuid:92ed1b76-3f65-4123-8f51-d7ea3ae256dc",
      "resource": {
        "resourceType": "Observation",
        "id": "92ed1b76-3f65-4123-8f51-d7ea3ae256dc",
        "meta": {
          "profile": [
            "http://hl7.eu/fhir/laboratory/StructureDefinition/Observation-resultslab-eu-lab"
          ]
        },
        "performer": [
          {
            "display": "The Central European Lab"
          }
        ],
        "category": [
          {
            "coding": [
              {
                "system": "http://terminology.hl7.org/CodeSystem/observation-category",
                "code": "laboratory"
              }
            ]
          }
        ],
        "code": {
          "coding": [
            {
              "code": "2571-8",
              "system": "http://loinc.org",
              "display": "Triglyceride [Mass/volume] in Serum or Plasma"
            }
          ],
          "text": "Triglyceride [Mass/volume] in Serum or Plasma"
        },
        "valueQuantity": {
          "system": "http://unitsofmeasure.org",
          "value": 126.8,
          "unit": "mg/dL",
          "code": "mg/dL"
        },
        "referenceRange": [
          {
            "low": {
              "value": 10,
              "code": "mg/dL",
              "system": "http://unitsofmeasure.org"
            }
          },
          {
            "high": {
              "value": 175,
              "code": "mg/dL",
              "system": "http://unitsofmeasure.org"
            }
          }
        ],
        "text": {
          "status": "generated",
          "div": "<div xmlns=\"http://www.w3.org/1999/xhtml\"><table class=\"hl7__eu__lab__report\"><tr><th>Test</th><th>28-Oct-2018</th><th>Reference&#xA0;Range</th><th>Unit</th></tr><tr><td>Triglyceride [Mass/volume] in Serum or Plasma</td><td>126.8</td><td>10 - 175</td><td></td><td>mg/dL</td></tr></table></div>"
        },
        "status": "final",
        "subject": {
          "reference": "urn:uuid:0935a683-35cb-47a3-89e8-4ad5a5521cf9",
          "display": "Helene Andresen"
        },
        "effectiveDateTime": "2018-10-27T22:53:36Z",
        "specimen": {
          "reference": "urn:uuid:535dd394-1f37-48f9-831f-6c85bcb69222"
        }
      }
    },
    {
      "fullUrl": "urn:uuid:2bbad9ce-0475-4ffe-a626-95d0561b8f2c",
      "resource": {
        "resourceType": "Observation",
        "id": "2bbad9ce-0475-4ffe-a626-95d0561b8f2c",
        "meta": {
          "profile": [
            "http://hl7.eu/fhir/laboratory/StructureDefinition/Observation-resultslab-eu-lab"
          ]
        },
        "performer": [
          {
            "display": "The Central European Lab"
          }
        ],
        "category": [
          {
            "coding": [
              {
                "system": "http://terminology.hl7.org/CodeSystem/observation-category",
                "code": "laboratory"
              }
            ]
          }
        ],
        "code": {
          "coding": [
            {
              "code": "18262-6",
              "system": "http://loinc.org",
              "display": "Cholesterol in LDL [Mass/volume] in Serum or Plasma by Direct assay"
            }
          ],
          "text": "Cholesterol in LDL [Mass/volume] in Serum or Plasma by Direct assay"
        },
        "valueQuantity": {
          "system": "http://unitsofmeasure.org",
          "value": 125.5,
          "unit": "mg/dL",
          "code": "mg/dL"
        },
        "referenceRange": [
          {
            "low": {
              "value": 0,
              "code": "mg/dL",
              "system": "http://unitsofmeasure.org"
            }
          },
          {
            "high": {
              "value": 130,
              "code": "mg/dL",
              "system": "http://unitsofmeasure.org"
            }
          }
        ],
        "text": {
          "status": "generated",
          "div": "<div xmlns=\"http://www.w3.org/1999/xhtml\"><table class=\"hl7__eu__lab__report\"><tr><th>Test</th><th>28-Oct-2018</th><th>Reference&#xA0;Range</th><th>Unit</th></tr><tr><td>Cholesterol in LDL [Mass/volume] in Serum or Plasma by Direct assay</td><td>125.5</td><td>0 - 130</td><td></td><td>mg/dL</td></tr></table></div>"
        },
        "status": "final",
        "subject": {
          "reference": "urn:uuid:0935a683-35cb-47a3-89e8-4ad5a5521cf9",
          "display": "Helene Andresen"
        },
        "effectiveDateTime": "2018-10-27T22:53:36Z",
        "specimen": {
          "reference": "urn:uuid:535dd394-1f37-48f9-831f-6c85bcb69222"
        }
      }
    },
    {
      "fullUrl": "urn:uuid:b602bacf-2ea5-4df2-a30f-2e503823c094",
      "resource": {
        "resourceType": "Observation",
        "id": "b602bacf-2ea5-4df2-a30f-2e503823c094",
        "meta": {
          "profile": [
            "http://hl7.eu/fhir/laboratory/StructureDefinition/Observation-resultslab-eu-lab"
          ]
        },
        "performer": [
          {
            "display": "The Central European Lab"
          }
        ],
        "category": [
          {
            "coding": [
              {
                "system": "http://terminology.hl7.org/CodeSystem/observation-category",
                "code": "laboratory"
              }
            ]
          }
        ],
        "code": {
          "coding": [
            {
              "code": "2085-9",
              "system": "http://loinc.org",
              "display": "Cholesterol in HDL [Mass/volume] in Serum or Plasma"
            }
          ],
          "text": "Cholesterol in HDL [Mass/volume] in Serum or Plasma"
        },
        "valueQuantity": {
          "system": "http://unitsofmeasure.org",
          "value": 44.6,
          "unit": "mg/dL",
          "code": "mg/dL"
        },
        "referenceRange": [
          {
            "low": {
              "value": 50,
              "code": "mg/dL",
              "system": "http://unitsofmeasure.org"
            }
          },
          {
            "high": {
              "value": 100,
              "code": "mg/dL",
              "system": "http://unitsofmeasure.org"
            }
          }
        ],
        "interpretation": [
          {
            "coding": [
              {
                "code": "L",
                "system": "http://terminology.hl7.org/CodeSystem/v3-ObservationInterpretation",
                "display": "Low"
              }
            ]
          }
        ],
        "text": {
          "status": "generated",
          "div": "<div xmlns=\"http://www.w3.org/1999/xhtml\"><table class=\"hl7__eu__lab__report\"><tr><th>Test</th><th>28-Oct-2018</th><th>Reference&#xA0;Range</th><th>Unit</th></tr><tr><td>Cholesterol in HDL [Mass/volume] in Serum or Plasma</td><td>44.6</td><td>50 - 100</td><td>L</td><td>mg/dL</td></tr></table></div>"
        },
        "status": "final",
        "subject": {
          "reference": "urn:uuid:0935a683-35cb-47a3-89e8-4ad5a5521cf9",
          "display": "Helene Andresen"
        },
        "effectiveDateTime": "2018-10-27T22:53:36Z",
        "specimen": {
          "reference": "urn:uuid:535dd394-1f37-48f9-831f-6c85bcb69222"
        }
      }
    },
    {
      "fullUrl": "urn:uuid:aad528e9-8819-4d98-a999-2f49d8679130",
      "resource": {
        "resourceType": "Device",
        "id": "aad528e9-8819-4d98-a999-2f49d8679130",
        "deviceName": [
          {
            "name": "SYNDERAI Synthetic Generator",
            "type": "manufacturer-name"
          }
        ],
        "version": [
          {
            "value": "5.0"
          }
        ],
        "text": {
          "status": "generated",
          "div": "<div xmlns=\"http://www.w3.org/1999/xhtml\">SYNDERAI Synthetic Generator v5.0</div>"
        },
        "status": "active\"",
        "distinctIdentifier": "synderai-generator-50",
        "manufacturer": "SYNDERAI Project"
      }
    },
    {
      "fullUrl": "urn:uuid:b23ac38c-4c08-4579-bb3e-65b83c21b323",
      "resource": {
        "resourceType": "Provenance",
        "id": "b23ac38c-4c08-4579-bb3e-65b83c21b323",
        "target": [
          {
            "reference": "Patient/0935a683-35cb-47a3-89e8-4ad5a5521cf9"
          },
          {
            "reference": "Bundle/aa44f69b-6c69-4d9b-a079-60291c8b4bc4"
          },
          {
            "reference": "Composition/37b727d8-0260-4467-a632-f4ff7b0c8cc9"
          },
          {
            "reference": "PractitionerRole/0b791102-d596-454d-a1e7-af814d402284"
          },
          {
            "reference": "Practitioner/daf10498-a4f3-4e4c-8d97-959849a7eb70"
          },
          {
            "reference": "PractitionerRole/95846c2e-5a95-42a9-9882-adfdba90f815"
          },
          {
            "reference": "Organization/68475f0b-d0e5-45f3-a417-16ffd331d7ae"
          }
        ],
        "activity": {
          "text": "Synthetic Example Data Generation"
        },
        "policy": [
          "https://synderai.net/synderai-synthetic-data-policy"
        ],
        "agent": [
          {
            "type": {
              "text": "author"
            },
            "who": {
              "reference": "Device/aad528e9-8819-4d98-a999-2f49d8679130"
            }
          }
        ],
        "reason": [
          {
            "text": "Interoperability Testing and Training (non-clinical use)"
          }
        ],
        "text": {
          "status": "generated",
          "div": "<div xmlns=\"http://www.w3.org/1999/xhtml\">Provenance for SYNDERAI Synthetic Example Data Resource</div>"
        },
        "recorded": "2018-10-28T00:53:36Z"
      }
    },
    {
      "fullUrl": "urn:uuid:0b791102-d596-454d-a1e7-af814d402284",
      "resource": {
        "resourceType": "PractitionerRole",
        "id": "0b791102-d596-454d-a1e7-af814d402284",
        "meta": {
          "profile": [
            "http://hl7.eu/fhir/base/StructureDefinition/practitionerRole-eu"
          ]
        },
        "text": {
          "status": "generated",
          "div": "<div xmlns=\"http://www.w3.org/1999/xhtml\">Laboratory Role Id: 0b791102-d596-454d-a1e7-af814d402284</div>"
        },
        "practitioner": {
          "reference": "urn:uuid:daf10498-a4f3-4e4c-8d97-959849a7eb70"
        }
      }
    },
    {
      "fullUrl": "urn:uuid:daf10498-a4f3-4e4c-8d97-959849a7eb70",
      "resource": {
        "resourceType": "Practitioner",
        "id": "daf10498-a4f3-4e4c-8d97-959849a7eb70",
        "meta": {
          "profile": [
            "http://hl7.eu/fhir/base/StructureDefinition/practitioner-eu"
          ]
        },
        "identifier": [
          {
            "assigner": {
              "display": "HL7 Europe"
            },
            "system": "urn:oid:2.16.840.1.113883.2.51.999",
            "value": "98c65448-651b-449b-8d64-64bf87e7f357"
          }
        ],
        "name": [
          {
            "prefix": [
              "dr"
            ],
            "given": [
              "Ex"
            ],
            "family": "Ample"
          }
        ],
        "address": [
          {
            "line": [
              "Laboratoire Central Européenne",
              "Boulevard du Jardin Botanique 32"
            ],
            "postalCode": "1000",
            "city": "Brussels",
            "country": "Belgium"
          }
        ],
        "text": {
          "status": "generated",
          "div": "<div xmlns=\"http://www.w3.org/1999/xhtml\">Laboratory: Laboratoire Central Européenne, 1000 Brussels, Belgium</div>"
        }
      }
    }
  ],
  "type": "document",
  "timestamp": "2018-10-28T00:53:36Z"
}
