{
  "resourceType": "Bundle",
  "id": "dbd6ea67-a70f-4565-b21a-6591eec6f25c",
  "meta": {
    "profile": [
      "http://hl7.eu/fhir/laboratory/StructureDefinition/Bundle-eu-lab"
    ]
  },
  "identifier": {
    "assigner": {
      "display": "HL7 Europe"
    },
    "system": "urn:oid:2.16.840.1.113883.2.51.999",
    "value": "c775154c-d95b-4089-b633-6c2c360c0981"
  },
  "entry": [
    {
      "fullUrl": "urn:uuid:fb291d53-ca30-4c41-b9a6-3636a32ec1e7",
      "resource": {
        "resourceType": "Composition",
        "id": "fb291d53-ca30-4c41-b9a6-3636a32ec1e7",
        "meta": {
          "profile": [
            "http://hl7.eu/fhir/laboratory/StructureDefinition/Composition-eu-lab"
          ]
        },
        "identifier": {
          "assigner": {
            "display": "HL7 Europe"
          },
          "system": "urn:oid:2.16.840.1.113883.2.51.999",
          "value": "0297f5b6-8ef7-4621-b735-b601ecfb5278"
        },
        "author": [
          {
            "reference": "urn:uuid:14a8b081-65c3-483f-b866-1e2497720123"
          }
        ],
        "category": [
          {
            "coding": [
              {
                "code": "26436-6",
                "system": "http://loinc.org",
                "display": "Laboratory studies (set)"
              }
            ]
          }
        ],
        "type": {
          "coding": [
            {
              "code": "11502-2",
              "system": "http://loinc.org",
              "display": "Laboratory report"
            }
          ],
          "text": "Laboratory Report"
        },
        "section": [
          {
            "code": {
              "coding": [
                {
                  "code": "26436-6",
                  "system": "http://loinc.org",
                  "display": "Laboratory studies (set)"
                }
              ],
              "text": "Laboratory studies"
            },
            "section": [
              {
                "code": {
                  "coding": [
                    {
                      "code": "$18719-5",
                      "system": "http://loinc.org",
                      "display": "Chemistry studies (set)"
                    }
                  ],
                  "text": "Chemistry"
                },
                "entry": [
                  {
                    "reference": "urn:uuid:caafbefe-d967-4255-9667-19c530879811"
                  },
                  {
                    "reference": "urn:uuid:808238c3-9bc6-4826-99a4-b45c34d8c0d2"
                  },
                  {
                    "reference": "urn:uuid:1a8e94ab-b575-42d4-960d-f56502b6206b"
                  },
                  {
                    "reference": "urn:uuid:aae38876-253f-4374-bbfe-23208cec0e58"
                  },
                  {
                    "reference": "urn:uuid:32fe5996-09bd-4d28-bd4e-88b8c8afc65c"
                  },
                  {
                    "reference": "urn:uuid:3debf812-20a4-4f26-b5e6-861314c7b356"
                  },
                  {
                    "reference": "urn:uuid:1d0472d6-f2cc-40cd-991e-f49991c636c5"
                  },
                  {
                    "reference": "urn:uuid:1fb72e99-31ee-4fc5-b4cd-e3945402f70b"
                  },
                  {
                    "reference": "urn:uuid:e321b3fe-fe6b-4291-a16c-5c51d20ee9bf"
                  },
                  {
                    "reference": "urn:uuid:a3116779-3ee2-4545-afcf-5154d7bb86ff"
                  },
                  {
                    "reference": "urn:uuid:1da552bc-a71c-41b1-afb8-dd460b38de12"
                  },
                  {
                    "reference": "urn:uuid:338e3254-2efa-443c-ab02-e5213f980a6a"
                  },
                  {
                    "reference": "urn:uuid:b66f8a5c-e7cf-4659-8066-0e62883655eb"
                  },
                  {
                    "reference": "urn:uuid:c185b146-3cf8-4f1d-956e-47353ca693bb"
                  },
                  {
                    "reference": "urn:uuid:55599b5a-3abb-4d36-9395-beaa320df8e0"
                  },
                  {
                    "reference": "urn:uuid:849c32b7-a81d-4769-bef4-f95cadc3e043"
                  },
                  {
                    "reference": "urn:uuid:bd35fe71-8a4d-4c85-a67e-cef8f4de9672"
                  },
                  {
                    "reference": "urn:uuid:ba794ee8-dd08-448a-a937-0c2b36a63ff3"
                  }
                ],
                "text": {
                  "status": "generated",
                  "div": "<div xmlns=\"http://www.w3.org/1999/xhtml\"><h3>Chemistry</h3><table class=\"hl7__eu__lab__report\"><thead><tr><th>Test</th><th>27-SEP-2017</th><th>Reference&#xA0;Range</th><th>Unit</th></tr></thead><tbody><tr><td>Glucose [Mass/volume] in Serum or Plasma</td><td>94.8</td><td>70 - 140</td><td>mg/dL</td></tr><tr><td>Urea nitrogen [Mass/volume] in Serum or Plasma</td><td>19.0</td><td>7 - 20</td><td>mg/dL</td></tr><tr><td>Creatinine [Mass/volume] in Serum or Plasma</td><td><strong>1.9 H</strong></td><td>0.9 - 1.3</td><td>mg/dL</td></tr><tr><td>Calcium [Mass/volume] in Serum or Plasma</td><td>8.7</td><td>8.5 - 10.5</td><td>mg/dL</td></tr><tr><td>Sodium [Moles/volume] in Serum or Plasma</td><td>139.1</td><td>135 - 145</td><td>mmol/L</td></tr><tr><td>Potassium [Moles/volume] in Serum or Plasma</td><td>4.4</td><td>3.5 - 5</td><td>mmol/L</td></tr><tr><td>Chloride [Moles/volume] in Serum or Plasma</td><td><strong>108.3 H</strong></td><td>98 - 108</td><td>mmol/L</td></tr><tr><td>Carbon dioxide, total [Moles/volume] in Serum or Plasma</td><td>26.0</td><td>22 - 29</td><td>mmol/L</td></tr><tr><td>Ketones [Presence] in Urine by Test strip</td><td>Urine ketone test = ++</td><td></td><td></td></tr><tr><td>Hemoglobin A1c/Hemoglobin.total in Blood</td><td><strong>3.0 L</strong></td><td>4.3 - 6.4</td><td>%</td></tr><tr><td>Glucose [Mass/volume] in Blood</td><td>94.8</td><td>70 - 140</td><td>mg/dL</td></tr><tr><td>Urea nitrogen [Mass/volume] in Blood</td><td>19.0</td><td>7 - 20</td><td>mg/dL</td></tr><tr><td>Creatinine [Mass/volume] in Blood</td><td><strong>5.1 H</strong></td><td>0.6 - 1.3</td><td>mg/dL</td></tr><tr><td>Calcium [Mass/volume] in Blood</td><td>8.7</td><td>8.5 - 10.5</td><td>mg/dL</td></tr><tr><td>Sodium [Moles/volume] in Blood</td><td>139.1</td><td>135 - 145</td><td>mmol/L</td></tr><tr><td>Potassium [Moles/volume] in Blood</td><td>4.4</td><td>3.5 - 5.3</td><td>mmol/L</td></tr><tr><td>Chloride [Moles/volume] in Blood</td><td>108.3</td><td>98 - 110</td><td>mmol/L</td></tr><tr><td>Carbon dioxide, total [Moles/volume] in Blood</td><td>26.0</td><td>22 - 29</td><td>mmol/L</td></tr></tbody></table></div>"
                },
                "title": "Chemistry"
              },
              {
                "code": {
                  "coding": [
                    {
                      "code": "$18729-4",
                      "system": "http://loinc.org",
                      "display": "Urinalysis studies (set)"
                    }
                  ],
                  "text": "Urinalysis"
                },
                "entry": [
                  {
                    "reference": "urn:uuid:50ad540e-0782-494d-b045-725986199fe6"
                  },
                  {
                    "reference": "urn:uuid:2138e09f-598b-41b7-a2b8-6f6b9771b7c7"
                  },
                  {
                    "reference": "urn:uuid:4a45a5b6-3a3f-43a5-a859-1014e9b1086c"
                  },
                  {
                    "reference": "urn:uuid:17878743-b973-4fb9-9ca7-e9d358caf033"
                  },
                  {
                    "reference": "urn:uuid:dc819ff4-f423-4c8c-bcca-63aa3239b34a"
                  },
                  {
                    "reference": "urn:uuid:ede1d631-ea3a-4521-a9bb-3041fb7dd10d"
                  },
                  {
                    "reference": "urn:uuid:c2597e6c-612d-489b-8ecc-fc57453c1722"
                  },
                  {
                    "reference": "urn:uuid:8935f309-18d4-4f61-b2dd-6e51b5977c9d"
                  },
                  {
                    "reference": "urn:uuid:9e67054d-d858-4962-8b04-35253d7e7f31"
                  },
                  {
                    "reference": "urn:uuid:fc72b157-a757-43a9-8292-cf139680f3fc"
                  },
                  {
                    "reference": "urn:uuid:da820c21-0be7-46f4-a527-84cf312f5cc9"
                  },
                  {
                    "reference": "urn:uuid:8eb05138-c441-42f7-8f26-1094332fffac"
                  }
                ],
                "text": {
                  "status": "generated",
                  "div": "<div xmlns=\"http://www.w3.org/1999/xhtml\"><h3>Urinalysis</h3><table class=\"hl7__eu__lab__report\"><thead><tr><th>Test</th><th>27-SEP-2017</th><th>Reference&#xA0;Range</th><th>Unit</th></tr></thead><tbody><tr><td>Glucose [Mass/volume] in Urine by Test strip</td><td><strong>1.8 H</strong></td><td>0 - 0.8</td><td>mg/dL</td></tr><tr><td>Glucose [Presence] in Urine by Test strip</td><td>++</td><td></td><td></td></tr><tr><td>Bilirubin.total [Mass/volume] in Urine by Test strip</td><td>0.3</td><td>0.2 - 1</td><td>mg/dL</td></tr><tr><td>Bilirubin.total [Presence] in Urine by Test strip</td><td>Finding of bilirubin in urine</td><td></td><td></td></tr><tr><td>Ketones [Mass/volume] in Urine by Test strip</td><td><strong>13.9 H</strong></td><td>0 - 5</td><td>mg/dL</td></tr><tr><td>Specific gravity of Urine by Test strip</td><td><strong>1.0 L</strong></td><td>1.005 - 1.03</td><td>{nominal}</td></tr><tr><td>pH of Urine by Test strip</td><td>5.1</td><td>4.6 - 7</td><td>pH</td></tr><tr><td>Protein [Mass/volume] in Urine by Test strip</td><td><strong>298.6 H</strong></td><td>0 - 150</td><td>mg/dL</td></tr><tr><td>Protein [Presence] in Urine by Test strip</td><td>Urine protein test = ++</td><td></td><td></td></tr><tr><td>Nitrite [Presence] in Urine by Test strip</td><td>Urine nitrite negative</td><td></td><td></td></tr><tr><td>Hemoglobin [Presence] in Urine by Test strip</td><td>Urine blood test = negative</td><td></td><td></td></tr><tr><td>Leukocyte esterase [Presence] in Urine by Test strip</td><td>Urine leukocyte test negative</td><td></td><td></td></tr></tbody></table></div>"
                },
                "title": "Urinalysis"
              },
              {
                "code": {
                  "coding": [
                    {
                      "code": "$LP7846-1",
                      "system": "http://loinc.org",
                      "display": "Specimen information"
                    }
                  ],
                  "text": "Specimen information"
                },
                "entry": [
                  {
                    "reference": "urn:uuid:b30252e4-9937-4f05-8f4c-8137477093bf"
                  },
                  {
                    "reference": "urn:uuid:eb31d4e6-c4a5-4db4-9a46-0e6e55dd4e2c"
                  },
                  {
                    "reference": "urn:uuid:ff6b79ae-4288-4d0a-912b-f46e306c605a"
                  },
                  {
                    "reference": "urn:uuid:5d0593ab-8b2b-4ba7-82d4-036f4c0632b7"
                  }
                ],
                "text": {
                  "status": "generated",
                  "div": "<div xmlns=\"http://www.w3.org/1999/xhtml\"><h3>Specimen information</h3><table class=\"hl7__eu__lab__report\"><thead><tr><th>Test</th><th>27-SEP-2017</th><th>Specimen</th><th></th></tr></thead><tbody><tr><td>Appearance of Urine</td><td>Cloudy urine</td><td>Urine</td><td></td></tr><tr><td>Odor of Urine</td><td>Urine smell ammoniacal</td><td>Urine</td><td></td></tr><tr><td>Clarity of Urine</td><td>Translucent</td><td>Urine</td><td></td></tr><tr><td>Color of Urine</td><td>Brown color</td><td>Urine</td><td></td></tr></tbody></table></div>"
                },
                "title": "Specimen information"
              }
            ],
            "title": "Laboratory Report"
          },
          {
            "text": {
              "status": "generated",
              "div": "<div xmlns=\"http://www.w3.org/1999/xhtml\"><h3>Annotation</h3><table class=\"hl7__eu__lab__report\"><tr><th>Conclusion and Recommendations based on this report and previous findings known to us</th></tr><tr><td>The patient shows significantly elevated creatinine, proteinuria, glucosuria, and ketonuria, with low urine specific gravity and abnormal urine appearance, suggesting impaired renal function, likely acute or chronic kidney disease with possible tubular dysfunction. Blood glucose is normal, but HbA1c is unexpectedly low, possibly due to anemia or recent blood loss. Recommend urgent nephrology evaluation and further assessment for underlying causes, including diabetes, glomerular disease, or other metabolic disturbances.</td></tr></table></div>"
            },
            "code": {
              "coding": [
                {
                  "system": "http://loinc.org",
                  "code": "48767-8",
                  "display": "Annotation comment"
                }
              ]
            },
            "title": "Annotation comment"
          }
        ],
        "status": "final",
        "subject": {
          "reference": "urn:uuid:8735014f-d8f8-4c1b-9456-80543e8c6390",
          "display": "Θεμιστοκλής Λιναρδάκη"
        },
        "date": "2017-09-27T08:16:00Z",
        "title": "Laboratory Report",
        "confidentiality": "N"
      }
    },
    {
      "fullUrl": "urn:uuid:c3f4a439-8c93-4f28-bed1-a130cdd67084",
      "resource": {
        "resourceType": "DiagnosticReport",
        "id": "c3f4a439-8c93-4f28-bed1-a130cdd67084",
        "meta": {
          "profile": [
            "http://hl7.eu/fhir/laboratory/StructureDefinition/DiagnosticReport-eu-lab"
          ]
        },
        "identifier": [
          {
            "assigner": {
              "display": "HL7 Europe"
            },
            "system": "urn:oid:2.16.840.1.113883.2.51.999",
            "value": "682033c9-fd9d-42d7-8764-c0e69efb8118"
          }
        ],
        "extension": [
          {
            "url": "http://hl7.org/fhir/5.0/StructureDefinition/extension-DiagnosticReport.composition",
            "valueReference": {
              "reference": "urn:uuid:0297f5b6-8ef7-4621-b735-b601ecfb5278"
            }
          }
        ],
        "category": [
          {
            "coding": [
              {
                "code": "26436-6",
                "system": "http://loinc.org",
                "display": "Laboratory studies (set)"
              }
            ]
          }
        ],
        "specimen": [
          {
            "reference": "urn:uuid:e62bb79f-be9a-492b-ad96-258160189484"
          },
          {
            "reference": "urn:uuid:dca93aed-ef9c-4db6-9019-7a43837acf5a"
          },
          {
            "reference": "urn:uuid:33e44896-7a54-42e6-b12b-b7d170a0510f"
          }
        ],
        "result": [
          {
            "reference": "urn:uuid:caafbefe-d967-4255-9667-19c530879811"
          },
          {
            "reference": "urn:uuid:808238c3-9bc6-4826-99a4-b45c34d8c0d2"
          },
          {
            "reference": "urn:uuid:1a8e94ab-b575-42d4-960d-f56502b6206b"
          },
          {
            "reference": "urn:uuid:aae38876-253f-4374-bbfe-23208cec0e58"
          },
          {
            "reference": "urn:uuid:32fe5996-09bd-4d28-bd4e-88b8c8afc65c"
          },
          {
            "reference": "urn:uuid:3debf812-20a4-4f26-b5e6-861314c7b356"
          },
          {
            "reference": "urn:uuid:1d0472d6-f2cc-40cd-991e-f49991c636c5"
          },
          {
            "reference": "urn:uuid:1fb72e99-31ee-4fc5-b4cd-e3945402f70b"
          },
          {
            "reference": "urn:uuid:b30252e4-9937-4f05-8f4c-8137477093bf"
          },
          {
            "reference": "urn:uuid:eb31d4e6-c4a5-4db4-9a46-0e6e55dd4e2c"
          },
          {
            "reference": "urn:uuid:ff6b79ae-4288-4d0a-912b-f46e306c605a"
          },
          {
            "reference": "urn:uuid:5d0593ab-8b2b-4ba7-82d4-036f4c0632b7"
          },
          {
            "reference": "urn:uuid:50ad540e-0782-494d-b045-725986199fe6"
          },
          {
            "reference": "urn:uuid:2138e09f-598b-41b7-a2b8-6f6b9771b7c7"
          },
          {
            "reference": "urn:uuid:4a45a5b6-3a3f-43a5-a859-1014e9b1086c"
          },
          {
            "reference": "urn:uuid:17878743-b973-4fb9-9ca7-e9d358caf033"
          },
          {
            "reference": "urn:uuid:dc819ff4-f423-4c8c-bcca-63aa3239b34a"
          },
          {
            "reference": "urn:uuid:e321b3fe-fe6b-4291-a16c-5c51d20ee9bf"
          },
          {
            "reference": "urn:uuid:ede1d631-ea3a-4521-a9bb-3041fb7dd10d"
          },
          {
            "reference": "urn:uuid:c2597e6c-612d-489b-8ecc-fc57453c1722"
          },
          {
            "reference": "urn:uuid:8935f309-18d4-4f61-b2dd-6e51b5977c9d"
          },
          {
            "reference": "urn:uuid:9e67054d-d858-4962-8b04-35253d7e7f31"
          },
          {
            "reference": "urn:uuid:fc72b157-a757-43a9-8292-cf139680f3fc"
          },
          {
            "reference": "urn:uuid:da820c21-0be7-46f4-a527-84cf312f5cc9"
          },
          {
            "reference": "urn:uuid:8eb05138-c441-42f7-8f26-1094332fffac"
          },
          {
            "reference": "urn:uuid:a3116779-3ee2-4545-afcf-5154d7bb86ff"
          },
          {
            "reference": "urn:uuid:1da552bc-a71c-41b1-afb8-dd460b38de12"
          },
          {
            "reference": "urn:uuid:338e3254-2efa-443c-ab02-e5213f980a6a"
          },
          {
            "reference": "urn:uuid:b66f8a5c-e7cf-4659-8066-0e62883655eb"
          },
          {
            "reference": "urn:uuid:c185b146-3cf8-4f1d-956e-47353ca693bb"
          },
          {
            "reference": "urn:uuid:55599b5a-3abb-4d36-9395-beaa320df8e0"
          },
          {
            "reference": "urn:uuid:849c32b7-a81d-4769-bef4-f95cadc3e043"
          },
          {
            "reference": "urn:uuid:bd35fe71-8a4d-4c85-a67e-cef8f4de9672"
          },
          {
            "reference": "urn:uuid:ba794ee8-dd08-448a-a937-0c2b36a63ff3"
          }
        ],
        "status": "registered",
        "code": {
          "coding": [
            {
              "code": "11502-2",
              "system": "http://loinc.org",
              "display": "Laboratory report"
            }
          ]
        },
        "subject": {
          "reference": "urn:uuid:8735014f-d8f8-4c1b-9456-80543e8c6390",
          "display": "Θεμιστοκλής Λιναρδάκη"
        }
      }
    },
    {
      "fullUrl": "urn:uuid:8735014f-d8f8-4c1b-9456-80543e8c6390",
      "resource": {
        "resourceType": "Patient",
        "id": "8735014f-d8f8-4c1b-9456-80543e8c6390",
        "meta": {
          "security": [
            {
              "system": "http://terminology.hl7.org/CodeSystem/v3-ActReason",
              "code": "HTEST"
            },
            {
              "system": "http://terminology.hl7.org/CodeSystem/v3-ActReason",
              "code": "TRAIN"
            }
          ],
          "tag": [
            {
              "system": "https://synderai.net/fhir/CodeSystem/tags",
              "code": "synthetic",
              "display": "SYNDERAI Synthetic data"
            }
          ],
          "profile": [
            "http://hl7.eu/fhir/base/StructureDefinition/patient-eu-core"
          ]
        },
        "identifier": [
          {
            "type": {
              "coding": [
                {
                  "code": "PT",
                  "system": "http://terminology.hl7.org/CodeSystem/v2-0203"
                }
              ]
            },
            "system": "http://ec.europa.eu/identifier/eci",
            "value": "5962-476889-7"
          },
          {
            "type": {
              "coding": [
                {
                  "code": "MR",
                  "system": "http://terminology.hl7.org/CodeSystem/v2-0203"
                }
              ]
            },
            "system": "http://local.setting.eu/identifier",
            "value": "925e2603-2ef9-6bdf-1330-2ebf526636c4"
          }
        ],
        "name": [
          {
            "family": "Λιναρδάκη"
          },
          {
            "given": [
              "Θεμιστοκλής"
            ]
          },
          {
            "text": "Θεμιστοκλής Λιναρδάκη"
          }
        ],
        "address": [
          {
            "line": [
              "Αμαρύνθου 54-58"
            ],
            "use": "home",
            "type": "physical",
            "postalCode": "262 21",
            "city": "Πάτρα",
            "country": "Greece"
          }
        ],
        "telecom": [
          {
            "system": "phone",
            "value": "+302226364480"
          }
        ],
        "extension": [
          {
            "url": "http://hl7.org/fhir/StructureDefinition/patient-nationality",
            "valueCodeableConcept": {
              "coding": [
                {
                  "code": "GR",
                  "system": "http://hl7.org/fhir/ValueSet/country"
                }
              ]
            }
          }
        ],
        "text": {
          "status": "generated",
          "div": "<div xmlns=\"http://www.w3.org/1999/xhtml\"><table class=\"hl7__ips\"><tr><td>Θεμιστοκλής Λιναρδάκη</td><td>male</td><td>21-Jan-1974</td></tr></table></div>"
        },
        "gender": "male",
        "birthDate": "1974-01-21"
      }
    },
    {
      "fullUrl": "urn:uuid:6eb8047e-6ef6-4f9f-ae26-9607e56ee4c8",
      "resource": {
        "resourceType": "ServiceRequest",
        "id": "6eb8047e-6ef6-4f9f-ae26-9607e56ee4c8",
        "meta": {
          "profile": [
            "http://hl7.eu/fhir/laboratory/StructureDefinition/ServiceRequest-eu-lab"
          ]
        },
        "identifier": [
          {
            "system": "http://example.org",
            "value": "fcbbbfe6-802a-4e18-ae5b-e68d5d75cd0a"
          }
        ],
        "specimen": [
          {
            "reference": "urn:uuid:e62bb79f-be9a-492b-ad96-258160189484"
          },
          {
            "reference": "urn:uuid:dca93aed-ef9c-4db6-9019-7a43837acf5a"
          },
          {
            "reference": "urn:uuid:33e44896-7a54-42e6-b12b-b7d170a0510f"
          }
        ],
        "reasonCode": [
          {
            "coding": [
              {
                "code": "237602007",
                "system": "http://snomed.info/sct",
                "display": "Metabolic syndrome X"
              }
            ]
          },
          {
            "coding": [
              {
                "code": "433144002",
                "system": "http://snomed.info/sct",
                "display": "Chronic kidney disease stage 3"
              }
            ]
          },
          {
            "coding": [
              {
                "code": "157141000119108",
                "system": "http://snomed.info/sct",
                "display": "Proteinuria due to type 2 diabetes mellitus"
              }
            ]
          },
          {
            "coding": [
              {
                "code": "431856006",
                "system": "http://snomed.info/sct",
                "display": "Chronic kidney disease stage 2"
              }
            ]
          },
          {
            "coding": [
              {
                "code": "90781000119102",
                "system": "http://snomed.info/sct",
                "display": "Microalbuminuria due to type 2 diabetes mellitus"
              }
            ]
          },
          {
            "coding": [
              {
                "code": "127013003",
                "system": "http://snomed.info/sct",
                "display": "Disorder of kidney due to diabetes mellitus"
              }
            ]
          },
          {
            "coding": [
              {
                "code": "431855005",
                "system": "http://snomed.info/sct",
                "display": "Chronic kidney disease stage 1"
              }
            ]
          },
          {
            "coding": [
              {
                "code": "59621000",
                "system": "http://snomed.info/sct",
                "display": "Essential hypertension"
              }
            ]
          },
          {
            "coding": [
              {
                "code": "15777000",
                "system": "http://snomed.info/sct",
                "display": "Prediabetes"
              }
            ]
          },
          {
            "coding": [
              {
                "code": "271737000",
                "system": "http://snomed.info/sct",
                "display": "Anemia"
              }
            ]
          }
        ],
        "status": "active",
        "intent": "order",
        "code": {
          "coding": [
            {
              "code": "108252007",
              "system": "http://snomed.info/sct",
              "display": "Laboratory procedure"
            }
          ]
        },
        "subject": {
          "reference": "urn:uuid:8735014f-d8f8-4c1b-9456-80543e8c6390",
          "display": "Θεμιστοκλής Λιναρδάκη"
        },
        "requester": {
          "reference": "urn:uuid:1da15ad3-2d9b-46e0-9edf-b50621012e40"
        }
      }
    },
    {
      "fullUrl": "urn:uuid:1da15ad3-2d9b-46e0-9edf-b50621012e40",
      "resource": {
        "resourceType": "PractitionerRole",
        "id": "1da15ad3-2d9b-46e0-9edf-b50621012e40",
        "meta": {
          "profile": [
            "http://hl7.eu/fhir/base/StructureDefinition/practitionerRole-eu"
          ]
        },
        "text": {
          "status": "generated",
          "div": "<div xmlns=\"http://www.w3.org/1999/xhtml\">Provider Role Id: 1da15ad3-2d9b-46e0-9edf-b50621012e40</div>"
        },
        "organization": {
          "reference": "urn:uuid:edbf8dee-5b64-4b27-b722-467f281aa390"
        }
      }
    },
    {
      "fullUrl": "urn:uuid:edbf8dee-5b64-4b27-b722-467f281aa390",
      "resource": {
        "resourceType": "Organization",
        "id": "edbf8dee-5b64-4b27-b722-467f281aa390",
        "meta": {
          "profile": [
            "http://hl7.eu/fhir/base/StructureDefinition/organization-eu"
          ]
        },
        "identifier": [
          {
            "assigner": {
              "display": "HL7 Europe"
            },
            "system": "urn:oid:2.16.840.1.113883.2.51.999",
            "value": "af803805-3794-44a1-9f16-a9efbaf68876"
          }
        ],
        "address": [
          {
            "line": [
              "211 Odós Filellinon"
            ],
            "city": "Patras",
            "postalCode": "262 21",
            "country": "Greece"
          }
        ],
        "text": {
          "status": "generated",
          "div": "<div xmlns=\"http://www.w3.org/1999/xhtml\">Provider Organization: Dr. Dimitris Economou</div>"
        },
        "name": "Dr. Dimitris Economou"
      }
    },
    {
      "fullUrl": "urn:uuid:e62bb79f-be9a-492b-ad96-258160189484",
      "resource": {
        "resourceType": "Specimen",
        "id": "e62bb79f-be9a-492b-ad96-258160189484",
        "meta": {
          "profile": [
            "http://hl7.eu/fhir/laboratory/StructureDefinition/Specimen-eu-lab"
          ]
        },
        "collection": {
          "collectedDateTime": "2017-09-27"
        },
        "text": {
          "status": "generated",
          "div": "<div xmlns=\"http://www.w3.org/1999/xhtml\"><table class=\"hl7__eu__lab__report\"><tr><th>Specimen</th><th>Collection Date</th></tr><tr><td>Acellular blood (serum or plasma) specimen</td><td><span class=\"nb\">27-Sep-2017</span></td></tr></table></div>"
        },
        "type": {
          "coding": [
            {
              "code": "122592007",
              "system": "http://snomed.info/sct",
              "display": "Acellular blood (serum or plasma) specimen"
            }
          ]
        }
      }
    },
    {
      "fullUrl": "urn:uuid:dca93aed-ef9c-4db6-9019-7a43837acf5a",
      "resource": {
        "resourceType": "Specimen",
        "id": "dca93aed-ef9c-4db6-9019-7a43837acf5a",
        "meta": {
          "profile": [
            "http://hl7.eu/fhir/laboratory/StructureDefinition/Specimen-eu-lab"
          ]
        },
        "collection": {
          "collectedDateTime": "2017-09-27"
        },
        "text": {
          "status": "generated",
          "div": "<div xmlns=\"http://www.w3.org/1999/xhtml\"><table class=\"hl7__eu__lab__report\"><tr><th>Specimen</th><th>Collection Date</th></tr><tr><td>Urine specimen</td><td><span class=\"nb\">27-Sep-2017</span></td></tr></table></div>"
        },
        "type": {
          "coding": [
            {
              "code": "122575003",
              "system": "http://snomed.info/sct",
              "display": "Urine specimen"
            }
          ]
        }
      }
    },
    {
      "fullUrl": "urn:uuid:33e44896-7a54-42e6-b12b-b7d170a0510f",
      "resource": {
        "resourceType": "Specimen",
        "id": "33e44896-7a54-42e6-b12b-b7d170a0510f",
        "meta": {
          "profile": [
            "http://hl7.eu/fhir/laboratory/StructureDefinition/Specimen-eu-lab"
          ]
        },
        "collection": {
          "collectedDateTime": "2017-09-27"
        },
        "text": {
          "status": "generated",
          "div": "<div xmlns=\"http://www.w3.org/1999/xhtml\"><table class=\"hl7__eu__lab__report\"><tr><th>Specimen</th><th>Collection Date</th></tr><tr><td>Whole blood specimen (specimen)</td><td><span class=\"nb\">27-Sep-2017</span></td></tr></table></div>"
        },
        "type": {
          "coding": [
            {
              "code": "258580003",
              "system": "http://snomed.info/sct",
              "display": "Whole blood specimen (specimen)"
            }
          ]
        }
      }
    },
    {
      "fullUrl": "urn:uuid:caafbefe-d967-4255-9667-19c530879811",
      "resource": {
        "resourceType": "Observation",
        "id": "caafbefe-d967-4255-9667-19c530879811",
        "meta": {
          "profile": [
            "http://hl7.eu/fhir/laboratory/StructureDefinition/Observation-resultslab-eu-lab"
          ]
        },
        "performer": [
          {
            "display": "The Central European Lab"
          }
        ],
        "category": [
          {
            "coding": [
              {
                "system": "http://terminology.hl7.org/CodeSystem/observation-category",
                "code": "laboratory"
              }
            ]
          }
        ],
        "code": {
          "coding": [
            {
              "code": "2345-7",
              "system": "http://loinc.org",
              "display": "Glucose [Mass/volume] in Serum or Plasma"
            }
          ],
          "text": "Glucose [Mass/volume] in Serum or Plasma"
        },
        "valueQuantity": {
          "system": "http://unitsofmeasure.org",
          "value": 94.8,
          "unit": "mg/dL",
          "code": "mg/dL"
        },
        "referenceRange": [
          {
            "low": {
              "value": 70,
              "code": "mg/dL",
              "system": "http://unitsofmeasure.org"
            }
          },
          {
            "high": {
              "value": 140,
              "code": "mg/dL",
              "system": "http://unitsofmeasure.org"
            }
          }
        ],
        "text": {
          "status": "generated",
          "div": "<div xmlns=\"http://www.w3.org/1999/xhtml\"><table class=\"hl7__eu__lab__report\"><tr><th>Test</th><th>27-Sep-2017</th><th>Reference&#xA0;Range</th><th>Unit</th></tr><tr><td>Glucose [Mass/volume] in Serum or Plasma</td><td>94.8</td><td>70 - 140</td><td></td><td>mg/dL</td></tr></table></div>"
        },
        "status": "final",
        "subject": {
          "reference": "urn:uuid:8735014f-d8f8-4c1b-9456-80543e8c6390",
          "display": "Θεμιστοκλής Λιναρδάκη"
        },
        "effectiveDateTime": "2017-09-27T06:16:00Z",
        "specimen": {
          "reference": "urn:uuid:e62bb79f-be9a-492b-ad96-258160189484"
        }
      }
    },
    {
      "fullUrl": "urn:uuid:808238c3-9bc6-4826-99a4-b45c34d8c0d2",
      "resource": {
        "resourceType": "Observation",
        "id": "808238c3-9bc6-4826-99a4-b45c34d8c0d2",
        "meta": {
          "profile": [
            "http://hl7.eu/fhir/laboratory/StructureDefinition/Observation-resultslab-eu-lab"
          ]
        },
        "performer": [
          {
            "display": "The Central European Lab"
          }
        ],
        "category": [
          {
            "coding": [
              {
                "system": "http://terminology.hl7.org/CodeSystem/observation-category",
                "code": "laboratory"
              }
            ]
          }
        ],
        "code": {
          "coding": [
            {
              "code": "3094-0",
              "system": "http://loinc.org",
              "display": "Urea nitrogen [Mass/volume] in Serum or Plasma"
            }
          ],
          "text": "Urea nitrogen [Mass/volume] in Serum or Plasma"
        },
        "valueQuantity": {
          "system": "http://unitsofmeasure.org",
          "value": 19,
          "unit": "mg/dL",
          "code": "mg/dL"
        },
        "referenceRange": [
          {
            "low": {
              "value": 7,
              "code": "mg/dL",
              "system": "http://unitsofmeasure.org"
            }
          },
          {
            "high": {
              "value": 20,
              "code": "mg/dL",
              "system": "http://unitsofmeasure.org"
            }
          }
        ],
        "text": {
          "status": "generated",
          "div": "<div xmlns=\"http://www.w3.org/1999/xhtml\"><table class=\"hl7__eu__lab__report\"><tr><th>Test</th><th>27-Sep-2017</th><th>Reference&#xA0;Range</th><th>Unit</th></tr><tr><td>Urea nitrogen [Mass/volume] in Serum or Plasma</td><td>19.0</td><td>7 - 20</td><td></td><td>mg/dL</td></tr></table></div>"
        },
        "status": "final",
        "subject": {
          "reference": "urn:uuid:8735014f-d8f8-4c1b-9456-80543e8c6390",
          "display": "Θεμιστοκλής Λιναρδάκη"
        },
        "effectiveDateTime": "2017-09-27T06:16:00Z",
        "specimen": {
          "reference": "urn:uuid:e62bb79f-be9a-492b-ad96-258160189484"
        }
      }
    },
    {
      "fullUrl": "urn:uuid:1a8e94ab-b575-42d4-960d-f56502b6206b",
      "resource": {
        "resourceType": "Observation",
        "id": "1a8e94ab-b575-42d4-960d-f56502b6206b",
        "meta": {
          "profile": [
            "http://hl7.eu/fhir/laboratory/StructureDefinition/Observation-resultslab-eu-lab"
          ]
        },
        "performer": [
          {
            "display": "The Central European Lab"
          }
        ],
        "category": [
          {
            "coding": [
              {
                "system": "http://terminology.hl7.org/CodeSystem/observation-category",
                "code": "laboratory"
              }
            ]
          }
        ],
        "code": {
          "coding": [
            {
              "code": "2160-0",
              "system": "http://loinc.org",
              "display": "Creatinine [Mass/volume] in Serum or Plasma"
            }
          ],
          "text": "Creatinine [Mass/volume] in Serum or Plasma"
        },
        "valueQuantity": {
          "system": "http://unitsofmeasure.org",
          "value": 1.9,
          "unit": "mg/dL",
          "code": "mg/dL"
        },
        "referenceRange": [
          {
            "low": {
              "value": 0.9,
              "code": "mg/dL",
              "system": "http://unitsofmeasure.org"
            }
          },
          {
            "high": {
              "value": 1.3,
              "code": "mg/dL",
              "system": "http://unitsofmeasure.org"
            }
          }
        ],
        "interpretation": [
          {
            "coding": [
              {
                "code": "H",
                "system": "http://terminology.hl7.org/CodeSystem/v3-ObservationInterpretation",
                "display": "High"
              }
            ]
          }
        ],
        "text": {
          "status": "generated",
          "div": "<div xmlns=\"http://www.w3.org/1999/xhtml\"><table class=\"hl7__eu__lab__report\"><tr><th>Test</th><th>27-Sep-2017</th><th>Reference&#xA0;Range</th><th>Unit</th></tr><tr><td>Creatinine [Mass/volume] in Serum or Plasma</td><td>1.9</td><td>0.9 - 1.3</td><td>H</td><td>mg/dL</td></tr></table></div>"
        },
        "status": "final",
        "subject": {
          "reference": "urn:uuid:8735014f-d8f8-4c1b-9456-80543e8c6390",
          "display": "Θεμιστοκλής Λιναρδάκη"
        },
        "effectiveDateTime": "2017-09-27T06:16:00Z",
        "specimen": {
          "reference": "urn:uuid:e62bb79f-be9a-492b-ad96-258160189484"
        }
      }
    },
    {
      "fullUrl": "urn:uuid:aae38876-253f-4374-bbfe-23208cec0e58",
      "resource": {
        "resourceType": "Observation",
        "id": "aae38876-253f-4374-bbfe-23208cec0e58",
        "meta": {
          "profile": [
            "http://hl7.eu/fhir/laboratory/StructureDefinition/Observation-resultslab-eu-lab"
          ]
        },
        "performer": [
          {
            "display": "The Central European Lab"
          }
        ],
        "category": [
          {
            "coding": [
              {
                "system": "http://terminology.hl7.org/CodeSystem/observation-category",
                "code": "laboratory"
              }
            ]
          }
        ],
        "code": {
          "coding": [
            {
              "code": "17861-6",
              "system": "http://loinc.org",
              "display": "Calcium [Mass/volume] in Serum or Plasma"
            }
          ],
          "text": "Calcium [Mass/volume] in Serum or Plasma"
        },
        "valueQuantity": {
          "system": "http://unitsofmeasure.org",
          "value": 8.7,
          "unit": "mg/dL",
          "code": "mg/dL"
        },
        "referenceRange": [
          {
            "low": {
              "value": 8.5,
              "code": "mg/dL",
              "system": "http://unitsofmeasure.org"
            }
          },
          {
            "high": {
              "value": 10.5,
              "code": "mg/dL",
              "system": "http://unitsofmeasure.org"
            }
          }
        ],
        "text": {
          "status": "generated",
          "div": "<div xmlns=\"http://www.w3.org/1999/xhtml\"><table class=\"hl7__eu__lab__report\"><tr><th>Test</th><th>27-Sep-2017</th><th>Reference&#xA0;Range</th><th>Unit</th></tr><tr><td>Calcium [Mass/volume] in Serum or Plasma</td><td>8.7</td><td>8.5 - 10.5</td><td></td><td>mg/dL</td></tr></table></div>"
        },
        "status": "final",
        "subject": {
          "reference": "urn:uuid:8735014f-d8f8-4c1b-9456-80543e8c6390",
          "display": "Θεμιστοκλής Λιναρδάκη"
        },
        "effectiveDateTime": "2017-09-27T06:16:00Z",
        "specimen": {
          "reference": "urn:uuid:e62bb79f-be9a-492b-ad96-258160189484"
        }
      }
    },
    {
      "fullUrl": "urn:uuid:32fe5996-09bd-4d28-bd4e-88b8c8afc65c",
      "resource": {
        "resourceType": "Observation",
        "id": "32fe5996-09bd-4d28-bd4e-88b8c8afc65c",
        "meta": {
          "profile": [
            "http://hl7.eu/fhir/laboratory/StructureDefinition/Observation-resultslab-eu-lab"
          ]
        },
        "performer": [
          {
            "display": "The Central European Lab"
          }
        ],
        "category": [
          {
            "coding": [
              {
                "system": "http://terminology.hl7.org/CodeSystem/observation-category",
                "code": "laboratory"
              }
            ]
          }
        ],
        "code": {
          "coding": [
            {
              "code": "2951-2",
              "system": "http://loinc.org",
              "display": "Sodium [Moles/volume] in Serum or Plasma"
            }
          ],
          "text": "Sodium [Moles/volume] in Serum or Plasma"
        },
        "valueQuantity": {
          "system": "http://unitsofmeasure.org",
          "value": 139.1,
          "unit": "mmol/L",
          "code": "mmol/L"
        },
        "referenceRange": [
          {
            "low": {
              "value": 135,
              "code": "mmol/L",
              "system": "http://unitsofmeasure.org"
            }
          },
          {
            "high": {
              "value": 145,
              "code": "mmol/L",
              "system": "http://unitsofmeasure.org"
            }
          }
        ],
        "text": {
          "status": "generated",
          "div": "<div xmlns=\"http://www.w3.org/1999/xhtml\"><table class=\"hl7__eu__lab__report\"><tr><th>Test</th><th>27-Sep-2017</th><th>Reference&#xA0;Range</th><th>Unit</th></tr><tr><td>Sodium [Moles/volume] in Serum or Plasma</td><td>139.1</td><td>135 - 145</td><td></td><td>mmol/L</td></tr></table></div>"
        },
        "status": "final",
        "subject": {
          "reference": "urn:uuid:8735014f-d8f8-4c1b-9456-80543e8c6390",
          "display": "Θεμιστοκλής Λιναρδάκη"
        },
        "effectiveDateTime": "2017-09-27T06:16:00Z",
        "specimen": {
          "reference": "urn:uuid:e62bb79f-be9a-492b-ad96-258160189484"
        }
      }
    },
    {
      "fullUrl": "urn:uuid:3debf812-20a4-4f26-b5e6-861314c7b356",
      "resource": {
        "resourceType": "Observation",
        "id": "3debf812-20a4-4f26-b5e6-861314c7b356",
        "meta": {
          "profile": [
            "http://hl7.eu/fhir/laboratory/StructureDefinition/Observation-resultslab-eu-lab"
          ]
        },
        "performer": [
          {
            "display": "The Central European Lab"
          }
        ],
        "category": [
          {
            "coding": [
              {
                "system": "http://terminology.hl7.org/CodeSystem/observation-category",
                "code": "laboratory"
              }
            ]
          }
        ],
        "code": {
          "coding": [
            {
              "code": "2823-3",
              "system": "http://loinc.org",
              "display": "Potassium [Moles/volume] in Serum or Plasma"
            }
          ],
          "text": "Potassium [Moles/volume] in Serum or Plasma"
        },
        "valueQuantity": {
          "system": "http://unitsofmeasure.org",
          "value": 4.4,
          "unit": "mmol/L",
          "code": "mmol/L"
        },
        "referenceRange": [
          {
            "low": {
              "value": 3.5,
              "code": "mmol/L",
              "system": "http://unitsofmeasure.org"
            }
          },
          {
            "high": {
              "value": 5,
              "code": "mmol/L",
              "system": "http://unitsofmeasure.org"
            }
          }
        ],
        "text": {
          "status": "generated",
          "div": "<div xmlns=\"http://www.w3.org/1999/xhtml\"><table class=\"hl7__eu__lab__report\"><tr><th>Test</th><th>27-Sep-2017</th><th>Reference&#xA0;Range</th><th>Unit</th></tr><tr><td>Potassium [Moles/volume] in Serum or Plasma</td><td>4.4</td><td>3.5 - 5</td><td></td><td>mmol/L</td></tr></table></div>"
        },
        "status": "final",
        "subject": {
          "reference": "urn:uuid:8735014f-d8f8-4c1b-9456-80543e8c6390",
          "display": "Θεμιστοκλής Λιναρδάκη"
        },
        "effectiveDateTime": "2017-09-27T06:16:00Z",
        "specimen": {
          "reference": "urn:uuid:e62bb79f-be9a-492b-ad96-258160189484"
        }
      }
    },
    {
      "fullUrl": "urn:uuid:1d0472d6-f2cc-40cd-991e-f49991c636c5",
      "resource": {
        "resourceType": "Observation",
        "id": "1d0472d6-f2cc-40cd-991e-f49991c636c5",
        "meta": {
          "profile": [
            "http://hl7.eu/fhir/laboratory/StructureDefinition/Observation-resultslab-eu-lab"
          ]
        },
        "performer": [
          {
            "display": "The Central European Lab"
          }
        ],
        "category": [
          {
            "coding": [
              {
                "system": "http://terminology.hl7.org/CodeSystem/observation-category",
                "code": "laboratory"
              }
            ]
          }
        ],
        "code": {
          "coding": [
            {
              "code": "2075-0",
              "system": "http://loinc.org",
              "display": "Chloride [Moles/volume] in Serum or Plasma"
            }
          ],
          "text": "Chloride [Moles/volume] in Serum or Plasma"
        },
        "valueQuantity": {
          "system": "http://unitsofmeasure.org",
          "value": 108.3,
          "unit": "mmol/L",
          "code": "mmol/L"
        },
        "referenceRange": [
          {
            "low": {
              "value": 98,
              "code": "mmol/L",
              "system": "http://unitsofmeasure.org"
            }
          },
          {
            "high": {
              "value": 108,
              "code": "mmol/L",
              "system": "http://unitsofmeasure.org"
            }
          }
        ],
        "interpretation": [
          {
            "coding": [
              {
                "code": "H",
                "system": "http://terminology.hl7.org/CodeSystem/v3-ObservationInterpretation",
                "display": "High"
              }
            ]
          }
        ],
        "text": {
          "status": "generated",
          "div": "<div xmlns=\"http://www.w3.org/1999/xhtml\"><table class=\"hl7__eu__lab__report\"><tr><th>Test</th><th>27-Sep-2017</th><th>Reference&#xA0;Range</th><th>Unit</th></tr><tr><td>Chloride [Moles/volume] in Serum or Plasma</td><td>108.3</td><td>98 - 108</td><td>H</td><td>mmol/L</td></tr></table></div>"
        },
        "status": "final",
        "subject": {
          "reference": "urn:uuid:8735014f-d8f8-4c1b-9456-80543e8c6390",
          "display": "Θεμιστοκλής Λιναρδάκη"
        },
        "effectiveDateTime": "2017-09-27T06:16:00Z",
        "specimen": {
          "reference": "urn:uuid:e62bb79f-be9a-492b-ad96-258160189484"
        }
      }
    },
    {
      "fullUrl": "urn:uuid:1fb72e99-31ee-4fc5-b4cd-e3945402f70b",
      "resource": {
        "resourceType": "Observation",
        "id": "1fb72e99-31ee-4fc5-b4cd-e3945402f70b",
        "meta": {
          "profile": [
            "http://hl7.eu/fhir/laboratory/StructureDefinition/Observation-resultslab-eu-lab"
          ]
        },
        "performer": [
          {
            "display": "The Central European Lab"
          }
        ],
        "category": [
          {
            "coding": [
              {
                "system": "http://terminology.hl7.org/CodeSystem/observation-category",
                "code": "laboratory"
              }
            ]
          }
        ],
        "code": {
          "coding": [
            {
              "code": "2028-9",
              "system": "http://loinc.org",
              "display": "Carbon dioxide, total [Moles/volume] in Serum or Plasma"
            }
          ],
          "text": "Carbon dioxide, total [Moles/volume] in Serum or Plasma"
        },
        "valueQuantity": {
          "system": "http://unitsofmeasure.org",
          "value": 26,
          "unit": "mmol/L",
          "code": "mmol/L"
        },
        "referenceRange": [
          {
            "low": {
              "value": 22,
              "code": "mmol/L",
              "system": "http://unitsofmeasure.org"
            }
          },
          {
            "high": {
              "value": 29,
              "code": "mmol/L",
              "system": "http://unitsofmeasure.org"
            }
          }
        ],
        "text": {
          "status": "generated",
          "div": "<div xmlns=\"http://www.w3.org/1999/xhtml\"><table class=\"hl7__eu__lab__report\"><tr><th>Test</th><th>27-Sep-2017</th><th>Reference&#xA0;Range</th><th>Unit</th></tr><tr><td>Carbon dioxide, total [Moles/volume] in Serum or Plasma</td><td>26.0</td><td>22 - 29</td><td></td><td>mmol/L</td></tr></table></div>"
        },
        "status": "final",
        "subject": {
          "reference": "urn:uuid:8735014f-d8f8-4c1b-9456-80543e8c6390",
          "display": "Θεμιστοκλής Λιναρδάκη"
        },
        "effectiveDateTime": "2017-09-27T06:16:00Z",
        "specimen": {
          "reference": "urn:uuid:e62bb79f-be9a-492b-ad96-258160189484"
        }
      }
    },
    {
      "fullUrl": "urn:uuid:b30252e4-9937-4f05-8f4c-8137477093bf",
      "resource": {
        "resourceType": "Observation",
        "id": "b30252e4-9937-4f05-8f4c-8137477093bf",
        "meta": {
          "profile": [
            "http://hl7.eu/fhir/laboratory/StructureDefinition/Observation-resultslab-eu-lab"
          ]
        },
        "performer": [
          {
            "display": "The Central European Lab"
          }
        ],
        "category": [
          {
            "coding": [
              {
                "system": "http://terminology.hl7.org/CodeSystem/observation-category",
                "code": "laboratory"
              }
            ]
          }
        ],
        "code": {
          "coding": [
            {
              "code": "5767-9",
              "system": "http://loinc.org",
              "display": "Appearance of Urine"
            }
          ],
          "text": "Appearance of Urine"
        },
        "text": {
          "status": "generated",
          "div": "<div xmlns=\"http://www.w3.org/1999/xhtml\"><table class=\"hl7__eu__lab__report\"><tr><th>Test</th><th>27-Sep-2017</th><th>Reference&#xA0;Range</th><th>Unit</th></tr><tr><td>Appearance of Urine</td></tr></table></div>"
        },
        "status": "final",
        "subject": {
          "reference": "urn:uuid:8735014f-d8f8-4c1b-9456-80543e8c6390",
          "display": "Θεμιστοκλής Λιναρδάκη"
        },
        "effectiveDateTime": "2017-09-27T06:16:00Z",
        "specimen": {
          "reference": "urn:uuid:dca93aed-ef9c-4db6-9019-7a43837acf5a"
        }
      }
    },
    {
      "fullUrl": "urn:uuid:eb31d4e6-c4a5-4db4-9a46-0e6e55dd4e2c",
      "resource": {
        "resourceType": "Observation",
        "id": "eb31d4e6-c4a5-4db4-9a46-0e6e55dd4e2c",
        "meta": {
          "profile": [
            "http://hl7.eu/fhir/laboratory/StructureDefinition/Observation-resultslab-eu-lab"
          ]
        },
        "performer": [
          {
            "display": "The Central European Lab"
          }
        ],
        "category": [
          {
            "coding": [
              {
                "system": "http://terminology.hl7.org/CodeSystem/observation-category",
                "code": "laboratory"
              }
            ]
          }
        ],
        "code": {
          "coding": [
            {
              "code": "34533-0",
              "system": "http://loinc.org",
              "display": "Odor of Urine"
            }
          ],
          "text": "Odor of Urine"
        },
        "text": {
          "status": "generated",
          "div": "<div xmlns=\"http://www.w3.org/1999/xhtml\"><table class=\"hl7__eu__lab__report\"><tr><th>Test</th><th>27-Sep-2017</th><th>Reference&#xA0;Range</th><th>Unit</th></tr><tr><td>Odor of Urine</td></tr></table></div>"
        },
        "status": "final",
        "subject": {
          "reference": "urn:uuid:8735014f-d8f8-4c1b-9456-80543e8c6390",
          "display": "Θεμιστοκλής Λιναρδάκη"
        },
        "effectiveDateTime": "2017-09-27T06:16:00Z",
        "specimen": {
          "reference": "urn:uuid:dca93aed-ef9c-4db6-9019-7a43837acf5a"
        }
      }
    },
    {
      "fullUrl": "urn:uuid:ff6b79ae-4288-4d0a-912b-f46e306c605a",
      "resource": {
        "resourceType": "Observation",
        "id": "ff6b79ae-4288-4d0a-912b-f46e306c605a",
        "meta": {
          "profile": [
            "http://hl7.eu/fhir/laboratory/StructureDefinition/Observation-resultslab-eu-lab"
          ]
        },
        "performer": [
          {
            "display": "The Central European Lab"
          }
        ],
        "category": [
          {
            "coding": [
              {
                "system": "http://terminology.hl7.org/CodeSystem/observation-category",
                "code": "laboratory"
              }
            ]
          }
        ],
        "code": {
          "coding": [
            {
              "code": "32167-9",
              "system": "http://loinc.org",
              "display": "Clarity of Urine"
            }
          ],
          "text": "Clarity of Urine"
        },
        "text": {
          "status": "generated",
          "div": "<div xmlns=\"http://www.w3.org/1999/xhtml\"><table class=\"hl7__eu__lab__report\"><tr><th>Test</th><th>27-Sep-2017</th><th>Reference&#xA0;Range</th><th>Unit</th></tr><tr><td>Clarity of Urine</td></tr></table></div>"
        },
        "status": "final",
        "subject": {
          "reference": "urn:uuid:8735014f-d8f8-4c1b-9456-80543e8c6390",
          "display": "Θεμιστοκλής Λιναρδάκη"
        },
        "effectiveDateTime": "2017-09-27T06:16:00Z",
        "specimen": {
          "reference": "urn:uuid:dca93aed-ef9c-4db6-9019-7a43837acf5a"
        }
      }
    },
    {
      "fullUrl": "urn:uuid:5d0593ab-8b2b-4ba7-82d4-036f4c0632b7",
      "resource": {
        "resourceType": "Observation",
        "id": "5d0593ab-8b2b-4ba7-82d4-036f4c0632b7",
        "meta": {
          "profile": [
            "http://hl7.eu/fhir/laboratory/StructureDefinition/Observation-resultslab-eu-lab"
          ]
        },
        "performer": [
          {
            "display": "The Central European Lab"
          }
        ],
        "category": [
          {
            "coding": [
              {
                "system": "http://terminology.hl7.org/CodeSystem/observation-category",
                "code": "laboratory"
              }
            ]
          }
        ],
        "code": {
          "coding": [
            {
              "code": "5778-6",
              "system": "http://loinc.org",
              "display": "Color of Urine"
            }
          ],
          "text": "Color of Urine"
        },
        "text": {
          "status": "generated",
          "div": "<div xmlns=\"http://www.w3.org/1999/xhtml\"><table class=\"hl7__eu__lab__report\"><tr><th>Test</th><th>27-Sep-2017</th><th>Reference&#xA0;Range</th><th>Unit</th></tr><tr><td>Color of Urine</td></tr></table></div>"
        },
        "status": "final",
        "subject": {
          "reference": "urn:uuid:8735014f-d8f8-4c1b-9456-80543e8c6390",
          "display": "Θεμιστοκλής Λιναρδάκη"
        },
        "effectiveDateTime": "2017-09-27T06:16:00Z",
        "specimen": {
          "reference": "urn:uuid:dca93aed-ef9c-4db6-9019-7a43837acf5a"
        }
      }
    },
    {
      "fullUrl": "urn:uuid:50ad540e-0782-494d-b045-725986199fe6",
      "resource": {
        "resourceType": "Observation",
        "id": "50ad540e-0782-494d-b045-725986199fe6",
        "meta": {
          "profile": [
            "http://hl7.eu/fhir/laboratory/StructureDefinition/Observation-resultslab-eu-lab"
          ]
        },
        "performer": [
          {
            "display": "The Central European Lab"
          }
        ],
        "category": [
          {
            "coding": [
              {
                "system": "http://terminology.hl7.org/CodeSystem/observation-category",
                "code": "laboratory"
              }
            ]
          }
        ],
        "code": {
          "coding": [
            {
              "code": "5792-7",
              "system": "http://loinc.org",
              "display": "Glucose [Mass/volume] in Urine by Test strip"
            }
          ],
          "text": "Glucose [Mass/volume] in Urine by Test strip"
        },
        "valueQuantity": {
          "system": "http://unitsofmeasure.org",
          "value": 1.8,
          "unit": "mg/dL",
          "code": "mg/dL"
        },
        "referenceRange": [
          {
            "low": {
              "value": 0,
              "code": "mg/dL",
              "system": "http://unitsofmeasure.org"
            }
          },
          {
            "high": {
              "value": 0.8,
              "code": "mg/dL",
              "system": "http://unitsofmeasure.org"
            }
          }
        ],
        "interpretation": [
          {
            "coding": [
              {
                "code": "H",
                "system": "http://terminology.hl7.org/CodeSystem/v3-ObservationInterpretation",
                "display": "High"
              }
            ]
          }
        ],
        "text": {
          "status": "generated",
          "div": "<div xmlns=\"http://www.w3.org/1999/xhtml\"><table class=\"hl7__eu__lab__report\"><tr><th>Test</th><th>27-Sep-2017</th><th>Reference&#xA0;Range</th><th>Unit</th></tr><tr><td>Glucose [Mass/volume] in Urine by Test strip</td><td>1.8</td><td>0 - 0.8</td><td>H</td><td>mg/dL</td></tr></table></div>"
        },
        "status": "final",
        "subject": {
          "reference": "urn:uuid:8735014f-d8f8-4c1b-9456-80543e8c6390",
          "display": "Θεμιστοκλής Λιναρδάκη"
        },
        "effectiveDateTime": "2017-09-27T06:16:00Z",
        "specimen": {
          "reference": "urn:uuid:dca93aed-ef9c-4db6-9019-7a43837acf5a"
        }
      }
    },
    {
      "fullUrl": "urn:uuid:2138e09f-598b-41b7-a2b8-6f6b9771b7c7",
      "resource": {
        "resourceType": "Observation",
        "id": "2138e09f-598b-41b7-a2b8-6f6b9771b7c7",
        "meta": {
          "profile": [
            "http://hl7.eu/fhir/laboratory/StructureDefinition/Observation-resultslab-eu-lab"
          ]
        },
        "performer": [
          {
            "display": "The Central European Lab"
          }
        ],
        "category": [
          {
            "coding": [
              {
                "system": "http://terminology.hl7.org/CodeSystem/observation-category",
                "code": "laboratory"
              }
            ]
          }
        ],
        "code": {
          "coding": [
            {
              "code": "25428-4",
              "system": "http://loinc.org",
              "display": "Glucose [Presence] in Urine by Test strip"
            }
          ],
          "text": "Glucose [Presence] in Urine by Test strip"
        },
        "text": {
          "status": "generated",
          "div": "<div xmlns=\"http://www.w3.org/1999/xhtml\"><table class=\"hl7__eu__lab__report\"><tr><th>Test</th><th>27-Sep-2017</th><th>Reference&#xA0;Range</th><th>Unit</th></tr><tr><td>Glucose [Presence] in Urine by Test strip</td></tr></table></div>"
        },
        "status": "final",
        "subject": {
          "reference": "urn:uuid:8735014f-d8f8-4c1b-9456-80543e8c6390",
          "display": "Θεμιστοκλής Λιναρδάκη"
        },
        "effectiveDateTime": "2017-09-27T06:16:00Z",
        "specimen": {
          "reference": "urn:uuid:dca93aed-ef9c-4db6-9019-7a43837acf5a"
        }
      }
    },
    {
      "fullUrl": "urn:uuid:4a45a5b6-3a3f-43a5-a859-1014e9b1086c",
      "resource": {
        "resourceType": "Observation",
        "id": "4a45a5b6-3a3f-43a5-a859-1014e9b1086c",
        "meta": {
          "profile": [
            "http://hl7.eu/fhir/laboratory/StructureDefinition/Observation-resultslab-eu-lab"
          ]
        },
        "performer": [
          {
            "display": "The Central European Lab"
          }
        ],
        "category": [
          {
            "coding": [
              {
                "system": "http://terminology.hl7.org/CodeSystem/observation-category",
                "code": "laboratory"
              }
            ]
          }
        ],
        "code": {
          "coding": [
            {
              "code": "20505-4",
              "system": "http://loinc.org",
              "display": "Bilirubin.total [Mass/volume] in Urine by Test strip"
            }
          ],
          "text": "Bilirubin.total [Mass/volume] in Urine by Test strip"
        },
        "valueQuantity": {
          "system": "http://unitsofmeasure.org",
          "value": 0.3,
          "unit": "mg/dL",
          "code": "mg/dL"
        },
        "referenceRange": [
          {
            "low": {
              "value": 0.2,
              "code": "mg/dL",
              "system": "http://unitsofmeasure.org"
            }
          },
          {
            "high": {
              "value": 1,
              "code": "mg/dL",
              "system": "http://unitsofmeasure.org"
            }
          }
        ],
        "text": {
          "status": "generated",
          "div": "<div xmlns=\"http://www.w3.org/1999/xhtml\"><table class=\"hl7__eu__lab__report\"><tr><th>Test</th><th>27-Sep-2017</th><th>Reference&#xA0;Range</th><th>Unit</th></tr><tr><td>Bilirubin.total [Mass/volume] in Urine by Test strip</td><td>0.3</td><td>0.2 - 1</td><td></td><td>mg/dL</td></tr></table></div>"
        },
        "status": "final",
        "subject": {
          "reference": "urn:uuid:8735014f-d8f8-4c1b-9456-80543e8c6390",
          "display": "Θεμιστοκλής Λιναρδάκη"
        },
        "effectiveDateTime": "2017-09-27T06:16:00Z",
        "specimen": {
          "reference": "urn:uuid:dca93aed-ef9c-4db6-9019-7a43837acf5a"
        }
      }
    },
    {
      "fullUrl": "urn:uuid:17878743-b973-4fb9-9ca7-e9d358caf033",
      "resource": {
        "resourceType": "Observation",
        "id": "17878743-b973-4fb9-9ca7-e9d358caf033",
        "meta": {
          "profile": [
            "http://hl7.eu/fhir/laboratory/StructureDefinition/Observation-resultslab-eu-lab"
          ]
        },
        "performer": [
          {
            "display": "The Central European Lab"
          }
        ],
        "category": [
          {
            "coding": [
              {
                "system": "http://terminology.hl7.org/CodeSystem/observation-category",
                "code": "laboratory"
              }
            ]
          }
        ],
        "code": {
          "coding": [
            {
              "code": "5770-3",
              "system": "http://loinc.org",
              "display": "Bilirubin.total [Presence] in Urine by Test strip"
            }
          ],
          "text": "Bilirubin.total [Presence] in Urine by Test strip"
        },
        "text": {
          "status": "generated",
          "div": "<div xmlns=\"http://www.w3.org/1999/xhtml\"><table class=\"hl7__eu__lab__report\"><tr><th>Test</th><th>27-Sep-2017</th><th>Reference&#xA0;Range</th><th>Unit</th></tr><tr><td>Bilirubin.total [Presence] in Urine by Test strip</td></tr></table></div>"
        },
        "status": "final",
        "subject": {
          "reference": "urn:uuid:8735014f-d8f8-4c1b-9456-80543e8c6390",
          "display": "Θεμιστοκλής Λιναρδάκη"
        },
        "effectiveDateTime": "2017-09-27T06:16:00Z",
        "specimen": {
          "reference": "urn:uuid:dca93aed-ef9c-4db6-9019-7a43837acf5a"
        }
      }
    },
    {
      "fullUrl": "urn:uuid:dc819ff4-f423-4c8c-bcca-63aa3239b34a",
      "resource": {
        "resourceType": "Observation",
        "id": "dc819ff4-f423-4c8c-bcca-63aa3239b34a",
        "meta": {
          "profile": [
            "http://hl7.eu/fhir/laboratory/StructureDefinition/Observation-resultslab-eu-lab"
          ]
        },
        "performer": [
          {
            "display": "The Central European Lab"
          }
        ],
        "category": [
          {
            "coding": [
              {
                "system": "http://terminology.hl7.org/CodeSystem/observation-category",
                "code": "laboratory"
              }
            ]
          }
        ],
        "code": {
          "coding": [
            {
              "code": "5797-6",
              "system": "http://loinc.org",
              "display": "Ketones [Mass/volume] in Urine by Test strip"
            }
          ],
          "text": "Ketones [Mass/volume] in Urine by Test strip"
        },
        "valueQuantity": {
          "system": "http://unitsofmeasure.org",
          "value": 13.9,
          "unit": "mg/dL",
          "code": "mg/dL"
        },
        "referenceRange": [
          {
            "low": {
              "value": 0,
              "code": "mg/dL",
              "system": "http://unitsofmeasure.org"
            }
          },
          {
            "high": {
              "value": 5,
              "code": "mg/dL",
              "system": "http://unitsofmeasure.org"
            }
          }
        ],
        "interpretation": [
          {
            "coding": [
              {
                "code": "H",
                "system": "http://terminology.hl7.org/CodeSystem/v3-ObservationInterpretation",
                "display": "High"
              }
            ]
          }
        ],
        "text": {
          "status": "generated",
          "div": "<div xmlns=\"http://www.w3.org/1999/xhtml\"><table class=\"hl7__eu__lab__report\"><tr><th>Test</th><th>27-Sep-2017</th><th>Reference&#xA0;Range</th><th>Unit</th></tr><tr><td>Ketones [Mass/volume] in Urine by Test strip</td><td>13.9</td><td>0 - 5</td><td>H</td><td>mg/dL</td></tr></table></div>"
        },
        "status": "final",
        "subject": {
          "reference": "urn:uuid:8735014f-d8f8-4c1b-9456-80543e8c6390",
          "display": "Θεμιστοκλής Λιναρδάκη"
        },
        "effectiveDateTime": "2017-09-27T06:16:00Z",
        "specimen": {
          "reference": "urn:uuid:dca93aed-ef9c-4db6-9019-7a43837acf5a"
        }
      }
    },
    {
      "fullUrl": "urn:uuid:e321b3fe-fe6b-4291-a16c-5c51d20ee9bf",
      "resource": {
        "resourceType": "Observation",
        "id": "e321b3fe-fe6b-4291-a16c-5c51d20ee9bf",
        "meta": {
          "profile": [
            "http://hl7.eu/fhir/laboratory/StructureDefinition/Observation-resultslab-eu-lab"
          ]
        },
        "performer": [
          {
            "display": "The Central European Lab"
          }
        ],
        "category": [
          {
            "coding": [
              {
                "system": "http://terminology.hl7.org/CodeSystem/observation-category",
                "code": "laboratory"
              }
            ]
          }
        ],
        "code": {
          "coding": [
            {
              "code": "2514-8",
              "system": "http://loinc.org",
              "display": "Ketones [Presence] in Urine by Test strip"
            }
          ],
          "text": "Ketones [Presence] in Urine by Test strip"
        },
        "text": {
          "status": "generated",
          "div": "<div xmlns=\"http://www.w3.org/1999/xhtml\"><table class=\"hl7__eu__lab__report\"><tr><th>Test</th><th>27-Sep-2017</th><th>Reference&#xA0;Range</th><th>Unit</th></tr><tr><td>Ketones [Presence] in Urine by Test strip</td></tr></table></div>"
        },
        "status": "final",
        "subject": {
          "reference": "urn:uuid:8735014f-d8f8-4c1b-9456-80543e8c6390",
          "display": "Θεμιστοκλής Λιναρδάκη"
        },
        "effectiveDateTime": "2017-09-27T06:16:00Z",
        "specimen": {
          "reference": "urn:uuid:dca93aed-ef9c-4db6-9019-7a43837acf5a"
        }
      }
    },
    {
      "fullUrl": "urn:uuid:ede1d631-ea3a-4521-a9bb-3041fb7dd10d",
      "resource": {
        "resourceType": "Observation",
        "id": "ede1d631-ea3a-4521-a9bb-3041fb7dd10d",
        "meta": {
          "profile": [
            "http://hl7.eu/fhir/laboratory/StructureDefinition/Observation-resultslab-eu-lab"
          ]
        },
        "performer": [
          {
            "display": "The Central European Lab"
          }
        ],
        "category": [
          {
            "coding": [
              {
                "system": "http://terminology.hl7.org/CodeSystem/observation-category",
                "code": "laboratory"
              }
            ]
          }
        ],
        "code": {
          "coding": [
            {
              "code": "5811-5",
              "system": "http://loinc.org",
              "display": "Specific gravity of Urine by Test strip"
            }
          ],
          "text": "Specific gravity of Urine by Test strip"
        },
        "valueQuantity": {
          "system": "http://unitsofmeasure.org",
          "value": 1,
          "unit": "{nominal}",
          "code": "{nominal}"
        },
        "referenceRange": [
          {
            "low": {
              "value": 1.005,
              "code": "g/mL",
              "system": "http://unitsofmeasure.org"
            }
          },
          {
            "high": {
              "value": 1.03,
              "code": "g/mL",
              "system": "http://unitsofmeasure.org"
            }
          }
        ],
        "interpretation": [
          {
            "coding": [
              {
                "code": "L",
                "system": "http://terminology.hl7.org/CodeSystem/v3-ObservationInterpretation",
                "display": "Low"
              }
            ]
          }
        ],
        "text": {
          "status": "generated",
          "div": "<div xmlns=\"http://www.w3.org/1999/xhtml\"><table class=\"hl7__eu__lab__report\"><tr><th>Test</th><th>27-Sep-2017</th><th>Reference&#xA0;Range</th><th>Unit</th></tr><tr><td>Specific gravity of Urine by Test strip</td><td>1.0</td><td>1.005 - 1.03</td><td>L</td><td>{nominal}</td></tr></table></div>"
        },
        "status": "final",
        "subject": {
          "reference": "urn:uuid:8735014f-d8f8-4c1b-9456-80543e8c6390",
          "display": "Θεμιστοκλής Λιναρδάκη"
        },
        "effectiveDateTime": "2017-09-27T06:16:00Z",
        "specimen": {
          "reference": "urn:uuid:dca93aed-ef9c-4db6-9019-7a43837acf5a"
        }
      }
    },
    {
      "fullUrl": "urn:uuid:c2597e6c-612d-489b-8ecc-fc57453c1722",
      "resource": {
        "resourceType": "Observation",
        "id": "c2597e6c-612d-489b-8ecc-fc57453c1722",
        "meta": {
          "profile": [
            "http://hl7.eu/fhir/laboratory/StructureDefinition/Observation-resultslab-eu-lab"
          ]
        },
        "performer": [
          {
            "display": "The Central European Lab"
          }
        ],
        "category": [
          {
            "coding": [
              {
                "system": "http://terminology.hl7.org/CodeSystem/observation-category",
                "code": "laboratory"
              }
            ]
          }
        ],
        "code": {
          "coding": [
            {
              "code": "5803-2",
              "system": "http://loinc.org",
              "display": "pH of Urine by Test strip"
            }
          ],
          "text": "pH of Urine by Test strip"
        },
        "valueQuantity": {
          "system": "http://unitsofmeasure.org",
          "value": 5.1,
          "unit": "pH",
          "code": "pH"
        },
        "referenceRange": [
          {
            "low": {
              "value": 4.6,
              "code": "pH",
              "system": "http://unitsofmeasure.org"
            }
          },
          {
            "high": {
              "value": 7,
              "code": "pH",
              "system": "http://unitsofmeasure.org"
            }
          }
        ],
        "text": {
          "status": "generated",
          "div": "<div xmlns=\"http://www.w3.org/1999/xhtml\"><table class=\"hl7__eu__lab__report\"><tr><th>Test</th><th>27-Sep-2017</th><th>Reference&#xA0;Range</th><th>Unit</th></tr><tr><td>pH of Urine by Test strip</td><td>5.1</td><td>4.6 - 7</td><td></td><td>pH</td></tr></table></div>"
        },
        "status": "final",
        "subject": {
          "reference": "urn:uuid:8735014f-d8f8-4c1b-9456-80543e8c6390",
          "display": "Θεμιστοκλής Λιναρδάκη"
        },
        "effectiveDateTime": "2017-09-27T06:16:00Z",
        "specimen": {
          "reference": "urn:uuid:dca93aed-ef9c-4db6-9019-7a43837acf5a"
        }
      }
    },
    {
      "fullUrl": "urn:uuid:8935f309-18d4-4f61-b2dd-6e51b5977c9d",
      "resource": {
        "resourceType": "Observation",
        "id": "8935f309-18d4-4f61-b2dd-6e51b5977c9d",
        "meta": {
          "profile": [
            "http://hl7.eu/fhir/laboratory/StructureDefinition/Observation-resultslab-eu-lab"
          ]
        },
        "performer": [
          {
            "display": "The Central European Lab"
          }
        ],
        "category": [
          {
            "coding": [
              {
                "system": "http://terminology.hl7.org/CodeSystem/observation-category",
                "code": "laboratory"
              }
            ]
          }
        ],
        "code": {
          "coding": [
            {
              "code": "5804-0",
              "system": "http://loinc.org",
              "display": "Protein [Mass/volume] in Urine by Test strip"
            }
          ],
          "text": "Protein [Mass/volume] in Urine by Test strip"
        },
        "valueQuantity": {
          "system": "http://unitsofmeasure.org",
          "value": 298.6,
          "unit": "mg/dL",
          "code": "mg/dL"
        },
        "referenceRange": [
          {
            "low": {
              "value": 0,
              "code": "mg/dL",
              "system": "http://unitsofmeasure.org"
            }
          },
          {
            "high": {
              "value": 150,
              "code": "mg/dL",
              "system": "http://unitsofmeasure.org"
            }
          }
        ],
        "interpretation": [
          {
            "coding": [
              {
                "code": "H",
                "system": "http://terminology.hl7.org/CodeSystem/v3-ObservationInterpretation",
                "display": "High"
              }
            ]
          }
        ],
        "text": {
          "status": "generated",
          "div": "<div xmlns=\"http://www.w3.org/1999/xhtml\"><table class=\"hl7__eu__lab__report\"><tr><th>Test</th><th>27-Sep-2017</th><th>Reference&#xA0;Range</th><th>Unit</th></tr><tr><td>Protein [Mass/volume] in Urine by Test strip</td><td>298.6</td><td>0 - 150</td><td>H</td><td>mg/dL</td></tr></table></div>"
        },
        "status": "final",
        "subject": {
          "reference": "urn:uuid:8735014f-d8f8-4c1b-9456-80543e8c6390",
          "display": "Θεμιστοκλής Λιναρδάκη"
        },
        "effectiveDateTime": "2017-09-27T06:16:00Z",
        "specimen": {
          "reference": "urn:uuid:dca93aed-ef9c-4db6-9019-7a43837acf5a"
        }
      }
    },
    {
      "fullUrl": "urn:uuid:9e67054d-d858-4962-8b04-35253d7e7f31",
      "resource": {
        "resourceType": "Observation",
        "id": "9e67054d-d858-4962-8b04-35253d7e7f31",
        "meta": {
          "profile": [
            "http://hl7.eu/fhir/laboratory/StructureDefinition/Observation-resultslab-eu-lab"
          ]
        },
        "performer": [
          {
            "display": "The Central European Lab"
          }
        ],
        "category": [
          {
            "coding": [
              {
                "system": "http://terminology.hl7.org/CodeSystem/observation-category",
                "code": "laboratory"
              }
            ]
          }
        ],
        "code": {
          "coding": [
            {
              "code": "20454-5",
              "system": "http://loinc.org",
              "display": "Protein [Presence] in Urine by Test strip"
            }
          ],
          "text": "Protein [Presence] in Urine by Test strip"
        },
        "text": {
          "status": "generated",
          "div": "<div xmlns=\"http://www.w3.org/1999/xhtml\"><table class=\"hl7__eu__lab__report\"><tr><th>Test</th><th>27-Sep-2017</th><th>Reference&#xA0;Range</th><th>Unit</th></tr><tr><td>Protein [Presence] in Urine by Test strip</td></tr></table></div>"
        },
        "status": "final",
        "subject": {
          "reference": "urn:uuid:8735014f-d8f8-4c1b-9456-80543e8c6390",
          "display": "Θεμιστοκλής Λιναρδάκη"
        },
        "effectiveDateTime": "2017-09-27T06:16:00Z",
        "specimen": {
          "reference": "urn:uuid:dca93aed-ef9c-4db6-9019-7a43837acf5a"
        }
      }
    },
    {
      "fullUrl": "urn:uuid:fc72b157-a757-43a9-8292-cf139680f3fc",
      "resource": {
        "resourceType": "Observation",
        "id": "fc72b157-a757-43a9-8292-cf139680f3fc",
        "meta": {
          "profile": [
            "http://hl7.eu/fhir/laboratory/StructureDefinition/Observation-resultslab-eu-lab"
          ]
        },
        "performer": [
          {
            "display": "The Central European Lab"
          }
        ],
        "category": [
          {
            "coding": [
              {
                "system": "http://terminology.hl7.org/CodeSystem/observation-category",
                "code": "laboratory"
              }
            ]
          }
        ],
        "code": {
          "coding": [
            {
              "code": "5802-4",
              "system": "http://loinc.org",
              "display": "Nitrite [Presence] in Urine by Test strip"
            }
          ],
          "text": "Nitrite [Presence] in Urine by Test strip"
        },
        "text": {
          "status": "generated",
          "div": "<div xmlns=\"http://www.w3.org/1999/xhtml\"><table class=\"hl7__eu__lab__report\"><tr><th>Test</th><th>27-Sep-2017</th><th>Reference&#xA0;Range</th><th>Unit</th></tr><tr><td>Nitrite [Presence] in Urine by Test strip</td></tr></table></div>"
        },
        "status": "final",
        "subject": {
          "reference": "urn:uuid:8735014f-d8f8-4c1b-9456-80543e8c6390",
          "display": "Θεμιστοκλής Λιναρδάκη"
        },
        "effectiveDateTime": "2017-09-27T06:16:00Z",
        "specimen": {
          "reference": "urn:uuid:dca93aed-ef9c-4db6-9019-7a43837acf5a"
        }
      }
    },
    {
      "fullUrl": "urn:uuid:da820c21-0be7-46f4-a527-84cf312f5cc9",
      "resource": {
        "resourceType": "Observation",
        "id": "da820c21-0be7-46f4-a527-84cf312f5cc9",
        "meta": {
          "profile": [
            "http://hl7.eu/fhir/laboratory/StructureDefinition/Observation-resultslab-eu-lab"
          ]
        },
        "performer": [
          {
            "display": "The Central European Lab"
          }
        ],
        "category": [
          {
            "coding": [
              {
                "system": "http://terminology.hl7.org/CodeSystem/observation-category",
                "code": "laboratory"
              }
            ]
          }
        ],
        "code": {
          "coding": [
            {
              "code": "5794-3",
              "system": "http://loinc.org",
              "display": "Hemoglobin [Presence] in Urine by Test strip"
            }
          ],
          "text": "Hemoglobin [Presence] in Urine by Test strip"
        },
        "text": {
          "status": "generated",
          "div": "<div xmlns=\"http://www.w3.org/1999/xhtml\"><table class=\"hl7__eu__lab__report\"><tr><th>Test</th><th>27-Sep-2017</th><th>Reference&#xA0;Range</th><th>Unit</th></tr><tr><td>Hemoglobin [Presence] in Urine by Test strip</td></tr></table></div>"
        },
        "status": "final",
        "subject": {
          "reference": "urn:uuid:8735014f-d8f8-4c1b-9456-80543e8c6390",
          "display": "Θεμιστοκλής Λιναρδάκη"
        },
        "effectiveDateTime": "2017-09-27T06:16:00Z",
        "specimen": {
          "reference": "urn:uuid:dca93aed-ef9c-4db6-9019-7a43837acf5a"
        }
      }
    },
    {
      "fullUrl": "urn:uuid:8eb05138-c441-42f7-8f26-1094332fffac",
      "resource": {
        "resourceType": "Observation",
        "id": "8eb05138-c441-42f7-8f26-1094332fffac",
        "meta": {
          "profile": [
            "http://hl7.eu/fhir/laboratory/StructureDefinition/Observation-resultslab-eu-lab"
          ]
        },
        "performer": [
          {
            "display": "The Central European Lab"
          }
        ],
        "category": [
          {
            "coding": [
              {
                "system": "http://terminology.hl7.org/CodeSystem/observation-category",
                "code": "laboratory"
              }
            ]
          }
        ],
        "code": {
          "coding": [
            {
              "code": "5799-2",
              "system": "http://loinc.org",
              "display": "Leukocyte esterase [Presence] in Urine by Test strip"
            }
          ],
          "text": "Leukocyte esterase [Presence] in Urine by Test strip"
        },
        "text": {
          "status": "generated",
          "div": "<div xmlns=\"http://www.w3.org/1999/xhtml\"><table class=\"hl7__eu__lab__report\"><tr><th>Test</th><th>27-Sep-2017</th><th>Reference&#xA0;Range</th><th>Unit</th></tr><tr><td>Leukocyte esterase [Presence] in Urine by Test strip</td></tr></table></div>"
        },
        "status": "final",
        "subject": {
          "reference": "urn:uuid:8735014f-d8f8-4c1b-9456-80543e8c6390",
          "display": "Θεμιστοκλής Λιναρδάκη"
        },
        "effectiveDateTime": "2017-09-27T06:16:00Z",
        "specimen": {
          "reference": "urn:uuid:dca93aed-ef9c-4db6-9019-7a43837acf5a"
        }
      }
    },
    {
      "fullUrl": "urn:uuid:a3116779-3ee2-4545-afcf-5154d7bb86ff",
      "resource": {
        "resourceType": "Observation",
        "id": "a3116779-3ee2-4545-afcf-5154d7bb86ff",
        "meta": {
          "profile": [
            "http://hl7.eu/fhir/laboratory/StructureDefinition/Observation-resultslab-eu-lab"
          ]
        },
        "performer": [
          {
            "display": "The Central European Lab"
          }
        ],
        "category": [
          {
            "coding": [
              {
                "system": "http://terminology.hl7.org/CodeSystem/observation-category",
                "code": "laboratory"
              }
            ]
          }
        ],
        "code": {
          "coding": [
            {
              "code": "4548-4",
              "system": "http://loinc.org",
              "display": "Hemoglobin A1c/Hemoglobin.total in Blood"
            }
          ],
          "text": "Hemoglobin A1c/Hemoglobin.total in Blood"
        },
        "valueQuantity": {
          "system": "http://unitsofmeasure.org",
          "value": 3,
          "unit": "%",
          "code": "%"
        },
        "referenceRange": [
          {
            "low": {
              "value": 4.3,
              "code": "%",
              "system": "http://unitsofmeasure.org"
            }
          },
          {
            "high": {
              "value": 6.4,
              "code": "%",
              "system": "http://unitsofmeasure.org"
            }
          }
        ],
        "interpretation": [
          {
            "coding": [
              {
                "code": "L",
                "system": "http://terminology.hl7.org/CodeSystem/v3-ObservationInterpretation",
                "display": "Low"
              }
            ]
          }
        ],
        "text": {
          "status": "generated",
          "div": "<div xmlns=\"http://www.w3.org/1999/xhtml\"><table class=\"hl7__eu__lab__report\"><tr><th>Test</th><th>27-Sep-2017</th><th>Reference&#xA0;Range</th><th>Unit</th></tr><tr><td>Hemoglobin A1c/Hemoglobin.total in Blood</td><td>3.0</td><td>4.3 - 6.4</td><td>L</td><td>%</td></tr></table></div>"
        },
        "status": "final",
        "subject": {
          "reference": "urn:uuid:8735014f-d8f8-4c1b-9456-80543e8c6390",
          "display": "Θεμιστοκλής Λιναρδάκη"
        },
        "effectiveDateTime": "2017-09-27T06:16:00Z",
        "specimen": {
          "reference": "urn:uuid:33e44896-7a54-42e6-b12b-b7d170a0510f"
        }
      }
    },
    {
      "fullUrl": "urn:uuid:1da552bc-a71c-41b1-afb8-dd460b38de12",
      "resource": {
        "resourceType": "Observation",
        "id": "1da552bc-a71c-41b1-afb8-dd460b38de12",
        "meta": {
          "profile": [
            "http://hl7.eu/fhir/laboratory/StructureDefinition/Observation-resultslab-eu-lab"
          ]
        },
        "performer": [
          {
            "display": "The Central European Lab"
          }
        ],
        "category": [
          {
            "coding": [
              {
                "system": "http://terminology.hl7.org/CodeSystem/observation-category",
                "code": "laboratory"
              }
            ]
          }
        ],
        "code": {
          "coding": [
            {
              "code": "2339-0",
              "system": "http://loinc.org",
              "display": "Glucose [Mass/volume] in Blood"
            }
          ],
          "text": "Glucose [Mass/volume] in Blood"
        },
        "valueQuantity": {
          "system": "http://unitsofmeasure.org",
          "value": 94.8,
          "unit": "mg/dL",
          "code": "mg/dL"
        },
        "referenceRange": [
          {
            "low": {
              "value": 70,
              "code": "mg/dL",
              "system": "http://unitsofmeasure.org"
            }
          },
          {
            "high": {
              "value": 140,
              "code": "mg/dL",
              "system": "http://unitsofmeasure.org"
            }
          }
        ],
        "text": {
          "status": "generated",
          "div": "<div xmlns=\"http://www.w3.org/1999/xhtml\"><table class=\"hl7__eu__lab__report\"><tr><th>Test</th><th>27-Sep-2017</th><th>Reference&#xA0;Range</th><th>Unit</th></tr><tr><td>Glucose [Mass/volume] in Blood</td><td>94.8</td><td>70 - 140</td><td></td><td>mg/dL</td></tr></table></div>"
        },
        "status": "final",
        "subject": {
          "reference": "urn:uuid:8735014f-d8f8-4c1b-9456-80543e8c6390",
          "display": "Θεμιστοκλής Λιναρδάκη"
        },
        "effectiveDateTime": "2017-09-27T06:16:00Z",
        "specimen": {
          "reference": "urn:uuid:33e44896-7a54-42e6-b12b-b7d170a0510f"
        }
      }
    },
    {
      "fullUrl": "urn:uuid:338e3254-2efa-443c-ab02-e5213f980a6a",
      "resource": {
        "resourceType": "Observation",
        "id": "338e3254-2efa-443c-ab02-e5213f980a6a",
        "meta": {
          "profile": [
            "http://hl7.eu/fhir/laboratory/StructureDefinition/Observation-resultslab-eu-lab"
          ]
        },
        "performer": [
          {
            "display": "The Central European Lab"
          }
        ],
        "category": [
          {
            "coding": [
              {
                "system": "http://terminology.hl7.org/CodeSystem/observation-category",
                "code": "laboratory"
              }
            ]
          }
        ],
        "code": {
          "coding": [
            {
              "code": "6299-2",
              "system": "http://loinc.org",
              "display": "Urea nitrogen [Mass/volume] in Blood"
            }
          ],
          "text": "Urea nitrogen [Mass/volume] in Blood"
        },
        "valueQuantity": {
          "system": "http://unitsofmeasure.org",
          "value": 19,
          "unit": "mg/dL",
          "code": "mg/dL"
        },
        "referenceRange": [
          {
            "low": {
              "value": 7,
              "code": "mg/dL",
              "system": "http://unitsofmeasure.org"
            }
          },
          {
            "high": {
              "value": 20,
              "code": "mg/dL",
              "system": "http://unitsofmeasure.org"
            }
          }
        ],
        "text": {
          "status": "generated",
          "div": "<div xmlns=\"http://www.w3.org/1999/xhtml\"><table class=\"hl7__eu__lab__report\"><tr><th>Test</th><th>27-Sep-2017</th><th>Reference&#xA0;Range</th><th>Unit</th></tr><tr><td>Urea nitrogen [Mass/volume] in Blood</td><td>19.0</td><td>7 - 20</td><td></td><td>mg/dL</td></tr></table></div>"
        },
        "status": "final",
        "subject": {
          "reference": "urn:uuid:8735014f-d8f8-4c1b-9456-80543e8c6390",
          "display": "Θεμιστοκλής Λιναρδάκη"
        },
        "effectiveDateTime": "2017-09-27T06:16:00Z",
        "specimen": {
          "reference": "urn:uuid:33e44896-7a54-42e6-b12b-b7d170a0510f"
        }
      }
    },
    {
      "fullUrl": "urn:uuid:b66f8a5c-e7cf-4659-8066-0e62883655eb",
      "resource": {
        "resourceType": "Observation",
        "id": "b66f8a5c-e7cf-4659-8066-0e62883655eb",
        "meta": {
          "profile": [
            "http://hl7.eu/fhir/laboratory/StructureDefinition/Observation-resultslab-eu-lab"
          ]
        },
        "performer": [
          {
            "display": "The Central European Lab"
          }
        ],
        "category": [
          {
            "coding": [
              {
                "system": "http://terminology.hl7.org/CodeSystem/observation-category",
                "code": "laboratory"
              }
            ]
          }
        ],
        "code": {
          "coding": [
            {
              "code": "38483-4",
              "system": "http://loinc.org",
              "display": "Creatinine [Mass/volume] in Blood"
            }
          ],
          "text": "Creatinine [Mass/volume] in Blood"
        },
        "valueQuantity": {
          "system": "http://unitsofmeasure.org",
          "value": 5.1,
          "unit": "mg/dL",
          "code": "mg/dL"
        },
        "referenceRange": [
          {
            "low": {
              "value": 0.6,
              "code": "mg/dL",
              "system": "http://unitsofmeasure.org"
            }
          },
          {
            "high": {
              "value": 1.3,
              "code": "mg/dL",
              "system": "http://unitsofmeasure.org"
            }
          }
        ],
        "interpretation": [
          {
            "coding": [
              {
                "code": "H",
                "system": "http://terminology.hl7.org/CodeSystem/v3-ObservationInterpretation",
                "display": "High"
              }
            ]
          }
        ],
        "text": {
          "status": "generated",
          "div": "<div xmlns=\"http://www.w3.org/1999/xhtml\"><table class=\"hl7__eu__lab__report\"><tr><th>Test</th><th>27-Sep-2017</th><th>Reference&#xA0;Range</th><th>Unit</th></tr><tr><td>Creatinine [Mass/volume] in Blood</td><td>5.1</td><td>0.6 - 1.3</td><td>H</td><td>mg/dL</td></tr></table></div>"
        },
        "status": "final",
        "subject": {
          "reference": "urn:uuid:8735014f-d8f8-4c1b-9456-80543e8c6390",
          "display": "Θεμιστοκλής Λιναρδάκη"
        },
        "effectiveDateTime": "2017-09-27T06:16:00Z",
        "specimen": {
          "reference": "urn:uuid:33e44896-7a54-42e6-b12b-b7d170a0510f"
        }
      }
    },
    {
      "fullUrl": "urn:uuid:c185b146-3cf8-4f1d-956e-47353ca693bb",
      "resource": {
        "resourceType": "Observation",
        "id": "c185b146-3cf8-4f1d-956e-47353ca693bb",
        "meta": {
          "profile": [
            "http://hl7.eu/fhir/laboratory/StructureDefinition/Observation-resultslab-eu-lab"
          ]
        },
        "performer": [
          {
            "display": "The Central European Lab"
          }
        ],
        "category": [
          {
            "coding": [
              {
                "system": "http://terminology.hl7.org/CodeSystem/observation-category",
                "code": "laboratory"
              }
            ]
          }
        ],
        "code": {
          "coding": [
            {
              "code": "49765-1",
              "system": "http://loinc.org",
              "display": "Calcium [Mass/volume] in Blood"
            }
          ],
          "text": "Calcium [Mass/volume] in Blood"
        },
        "valueQuantity": {
          "system": "http://unitsofmeasure.org",
          "value": 8.7,
          "unit": "mg/dL",
          "code": "mg/dL"
        },
        "referenceRange": [
          {
            "low": {
              "value": 8.5,
              "code": "mg/dL",
              "system": "http://unitsofmeasure.org"
            }
          },
          {
            "high": {
              "value": 10.5,
              "code": "mg/dL",
              "system": "http://unitsofmeasure.org"
            }
          }
        ],
        "text": {
          "status": "generated",
          "div": "<div xmlns=\"http://www.w3.org/1999/xhtml\"><table class=\"hl7__eu__lab__report\"><tr><th>Test</th><th>27-Sep-2017</th><th>Reference&#xA0;Range</th><th>Unit</th></tr><tr><td>Calcium [Mass/volume] in Blood</td><td>8.7</td><td>8.5 - 10.5</td><td></td><td>mg/dL</td></tr></table></div>"
        },
        "status": "final",
        "subject": {
          "reference": "urn:uuid:8735014f-d8f8-4c1b-9456-80543e8c6390",
          "display": "Θεμιστοκλής Λιναρδάκη"
        },
        "effectiveDateTime": "2017-09-27T06:16:00Z",
        "specimen": {
          "reference": "urn:uuid:33e44896-7a54-42e6-b12b-b7d170a0510f"
        }
      }
    },
    {
      "fullUrl": "urn:uuid:55599b5a-3abb-4d36-9395-beaa320df8e0",
      "resource": {
        "resourceType": "Observation",
        "id": "55599b5a-3abb-4d36-9395-beaa320df8e0",
        "meta": {
          "profile": [
            "http://hl7.eu/fhir/laboratory/StructureDefinition/Observation-resultslab-eu-lab"
          ]
        },
        "performer": [
          {
            "display": "The Central European Lab"
          }
        ],
        "category": [
          {
            "coding": [
              {
                "system": "http://terminology.hl7.org/CodeSystem/observation-category",
                "code": "laboratory"
              }
            ]
          }
        ],
        "code": {
          "coding": [
            {
              "code": "2947-0",
              "system": "http://loinc.org",
              "display": "Sodium [Moles/volume] in Blood"
            }
          ],
          "text": "Sodium [Moles/volume] in Blood"
        },
        "valueQuantity": {
          "system": "http://unitsofmeasure.org",
          "value": 139.1,
          "unit": "mmol/L",
          "code": "mmol/L"
        },
        "referenceRange": [
          {
            "low": {
              "value": 135,
              "code": "mmol/L",
              "system": "http://unitsofmeasure.org"
            }
          },
          {
            "high": {
              "value": 145,
              "code": "mmol/L",
              "system": "http://unitsofmeasure.org"
            }
          }
        ],
        "text": {
          "status": "generated",
          "div": "<div xmlns=\"http://www.w3.org/1999/xhtml\"><table class=\"hl7__eu__lab__report\"><tr><th>Test</th><th>27-Sep-2017</th><th>Reference&#xA0;Range</th><th>Unit</th></tr><tr><td>Sodium [Moles/volume] in Blood</td><td>139.1</td><td>135 - 145</td><td></td><td>mmol/L</td></tr></table></div>"
        },
        "status": "final",
        "subject": {
          "reference": "urn:uuid:8735014f-d8f8-4c1b-9456-80543e8c6390",
          "display": "Θεμιστοκλής Λιναρδάκη"
        },
        "effectiveDateTime": "2017-09-27T06:16:00Z",
        "specimen": {
          "reference": "urn:uuid:33e44896-7a54-42e6-b12b-b7d170a0510f"
        }
      }
    },
    {
      "fullUrl": "urn:uuid:849c32b7-a81d-4769-bef4-f95cadc3e043",
      "resource": {
        "resourceType": "Observation",
        "id": "849c32b7-a81d-4769-bef4-f95cadc3e043",
        "meta": {
          "profile": [
            "http://hl7.eu/fhir/laboratory/StructureDefinition/Observation-resultslab-eu-lab"
          ]
        },
        "performer": [
          {
            "display": "The Central European Lab"
          }
        ],
        "category": [
          {
            "coding": [
              {
                "system": "http://terminology.hl7.org/CodeSystem/observation-category",
                "code": "laboratory"
              }
            ]
          }
        ],
        "code": {
          "coding": [
            {
              "code": "6298-4",
              "system": "http://loinc.org",
              "display": "Potassium [Moles/volume] in Blood"
            }
          ],
          "text": "Potassium [Moles/volume] in Blood"
        },
        "valueQuantity": {
          "system": "http://unitsofmeasure.org",
          "value": 4.4,
          "unit": "mmol/L",
          "code": "mmol/L"
        },
        "referenceRange": [
          {
            "low": {
              "value": 3.5,
              "code": "mmol/L",
              "system": "http://unitsofmeasure.org"
            }
          },
          {
            "high": {
              "value": 5.3,
              "code": "mmol/L",
              "system": "http://unitsofmeasure.org"
            }
          }
        ],
        "text": {
          "status": "generated",
          "div": "<div xmlns=\"http://www.w3.org/1999/xhtml\"><table class=\"hl7__eu__lab__report\"><tr><th>Test</th><th>27-Sep-2017</th><th>Reference&#xA0;Range</th><th>Unit</th></tr><tr><td>Potassium [Moles/volume] in Blood</td><td>4.4</td><td>3.5 - 5.3</td><td></td><td>mmol/L</td></tr></table></div>"
        },
        "status": "final",
        "subject": {
          "reference": "urn:uuid:8735014f-d8f8-4c1b-9456-80543e8c6390",
          "display": "Θεμιστοκλής Λιναρδάκη"
        },
        "effectiveDateTime": "2017-09-27T06:16:00Z",
        "specimen": {
          "reference": "urn:uuid:33e44896-7a54-42e6-b12b-b7d170a0510f"
        }
      }
    },
    {
      "fullUrl": "urn:uuid:bd35fe71-8a4d-4c85-a67e-cef8f4de9672",
      "resource": {
        "resourceType": "Observation",
        "id": "bd35fe71-8a4d-4c85-a67e-cef8f4de9672",
        "meta": {
          "profile": [
            "http://hl7.eu/fhir/laboratory/StructureDefinition/Observation-resultslab-eu-lab"
          ]
        },
        "performer": [
          {
            "display": "The Central European Lab"
          }
        ],
        "category": [
          {
            "coding": [
              {
                "system": "http://terminology.hl7.org/CodeSystem/observation-category",
                "code": "laboratory"
              }
            ]
          }
        ],
        "code": {
          "coding": [
            {
              "code": "2069-3",
              "system": "http://loinc.org",
              "display": "Chloride [Moles/volume] in Blood"
            }
          ],
          "text": "Chloride [Moles/volume] in Blood"
        },
        "valueQuantity": {
          "system": "http://unitsofmeasure.org",
          "value": 108.3,
          "unit": "mmol/L",
          "code": "mmol/L"
        },
        "referenceRange": [
          {
            "low": {
              "value": 98,
              "code": "mmol/L",
              "system": "http://unitsofmeasure.org"
            }
          },
          {
            "high": {
              "value": 110,
              "code": "mmol/L",
              "system": "http://unitsofmeasure.org"
            }
          }
        ],
        "text": {
          "status": "generated",
          "div": "<div xmlns=\"http://www.w3.org/1999/xhtml\"><table class=\"hl7__eu__lab__report\"><tr><th>Test</th><th>27-Sep-2017</th><th>Reference&#xA0;Range</th><th>Unit</th></tr><tr><td>Chloride [Moles/volume] in Blood</td><td>108.3</td><td>98 - 110</td><td></td><td>mmol/L</td></tr></table></div>"
        },
        "status": "final",
        "subject": {
          "reference": "urn:uuid:8735014f-d8f8-4c1b-9456-80543e8c6390",
          "display": "Θεμιστοκλής Λιναρδάκη"
        },
        "effectiveDateTime": "2017-09-27T06:16:00Z",
        "specimen": {
          "reference": "urn:uuid:33e44896-7a54-42e6-b12b-b7d170a0510f"
        }
      }
    },
    {
      "fullUrl": "urn:uuid:ba794ee8-dd08-448a-a937-0c2b36a63ff3",
      "resource": {
        "resourceType": "Observation",
        "id": "ba794ee8-dd08-448a-a937-0c2b36a63ff3",
        "meta": {
          "profile": [
            "http://hl7.eu/fhir/laboratory/StructureDefinition/Observation-resultslab-eu-lab"
          ]
        },
        "performer": [
          {
            "display": "The Central European Lab"
          }
        ],
        "category": [
          {
            "coding": [
              {
                "system": "http://terminology.hl7.org/CodeSystem/observation-category",
                "code": "laboratory"
              }
            ]
          }
        ],
        "code": {
          "coding": [
            {
              "code": "20565-8",
              "system": "http://loinc.org",
              "display": "Carbon dioxide, total [Moles/volume] in Blood"
            }
          ],
          "text": "Carbon dioxide, total [Moles/volume] in Blood"
        },
        "valueQuantity": {
          "system": "http://unitsofmeasure.org",
          "value": 26,
          "unit": "mmol/L",
          "code": "mmol/L"
        },
        "referenceRange": [
          {
            "low": {
              "value": 22,
              "code": "mmol/L",
              "system": "http://unitsofmeasure.org"
            }
          },
          {
            "high": {
              "value": 29,
              "code": "mmol/L",
              "system": "http://unitsofmeasure.org"
            }
          }
        ],
        "text": {
          "status": "generated",
          "div": "<div xmlns=\"http://www.w3.org/1999/xhtml\"><table class=\"hl7__eu__lab__report\"><tr><th>Test</th><th>27-Sep-2017</th><th>Reference&#xA0;Range</th><th>Unit</th></tr><tr><td>Carbon dioxide, total [Moles/volume] in Blood</td><td>26.0</td><td>22 - 29</td><td></td><td>mmol/L</td></tr></table></div>"
        },
        "status": "final",
        "subject": {
          "reference": "urn:uuid:8735014f-d8f8-4c1b-9456-80543e8c6390",
          "display": "Θεμιστοκλής Λιναρδάκη"
        },
        "effectiveDateTime": "2017-09-27T06:16:00Z",
        "specimen": {
          "reference": "urn:uuid:33e44896-7a54-42e6-b12b-b7d170a0510f"
        }
      }
    },
    {
      "fullUrl": "urn:uuid:efd313c6-4f55-4406-b643-196ce2457b85",
      "resource": {
        "resourceType": "Device",
        "id": "efd313c6-4f55-4406-b643-196ce2457b85",
        "deviceName": [
          {
            "name": "SYNDERAI Synthetic Generator",
            "type": "manufacturer-name"
          }
        ],
        "version": [
          {
            "value": "5.0"
          }
        ],
        "text": {
          "status": "generated",
          "div": "<div xmlns=\"http://www.w3.org/1999/xhtml\">SYNDERAI Synthetic Generator v5.0</div>"
        },
        "status": "active\"",
        "distinctIdentifier": "synderai-generator-50",
        "manufacturer": "SYNDERAI Project"
      }
    },
    {
      "fullUrl": "urn:uuid:132ddef9-50bb-4611-a8dd-48e9053e3c54",
      "resource": {
        "resourceType": "Provenance",
        "id": "132ddef9-50bb-4611-a8dd-48e9053e3c54",
        "target": [
          {
            "reference": "Patient/8735014f-d8f8-4c1b-9456-80543e8c6390"
          },
          {
            "reference": "Bundle/dbd6ea67-a70f-4565-b21a-6591eec6f25c"
          },
          {
            "reference": "Composition/fb291d53-ca30-4c41-b9a6-3636a32ec1e7"
          },
          {
            "reference": "PractitionerRole/14a8b081-65c3-483f-b866-1e2497720123"
          },
          {
            "reference": "Practitioner/2c172841-53eb-42da-8346-8953d578688c"
          },
          {
            "reference": "PractitionerRole/1da15ad3-2d9b-46e0-9edf-b50621012e40"
          },
          {
            "reference": "Organization/edbf8dee-5b64-4b27-b722-467f281aa390"
          }
        ],
        "activity": {
          "text": "Synthetic Example Data Generation"
        },
        "policy": [
          "https://synderai.net/synderai-synthetic-data-policy"
        ],
        "agent": [
          {
            "type": {
              "text": "author"
            },
            "who": {
              "reference": "Device/efd313c6-4f55-4406-b643-196ce2457b85"
            }
          }
        ],
        "reason": [
          {
            "text": "Interoperability Testing and Training (non-clinical use)"
          }
        ],
        "text": {
          "status": "generated",
          "div": "<div xmlns=\"http://www.w3.org/1999/xhtml\">Provenance for SYNDERAI Synthetic Example Data Resource</div>"
        },
        "recorded": "2017-09-27T08:16:00Z"
      }
    },
    {
      "fullUrl": "urn:uuid:14a8b081-65c3-483f-b866-1e2497720123",
      "resource": {
        "resourceType": "PractitionerRole",
        "id": "14a8b081-65c3-483f-b866-1e2497720123",
        "meta": {
          "profile": [
            "http://hl7.eu/fhir/base/StructureDefinition/practitionerRole-eu"
          ]
        },
        "text": {
          "status": "generated",
          "div": "<div xmlns=\"http://www.w3.org/1999/xhtml\">Laboratory Role Id: 14a8b081-65c3-483f-b866-1e2497720123</div>"
        },
        "practitioner": {
          "reference": "urn:uuid:2c172841-53eb-42da-8346-8953d578688c"
        }
      }
    },
    {
      "fullUrl": "urn:uuid:2c172841-53eb-42da-8346-8953d578688c",
      "resource": {
        "resourceType": "Practitioner",
        "id": "2c172841-53eb-42da-8346-8953d578688c",
        "meta": {
          "profile": [
            "http://hl7.eu/fhir/base/StructureDefinition/practitioner-eu"
          ]
        },
        "identifier": [
          {
            "assigner": {
              "display": "HL7 Europe"
            },
            "system": "urn:oid:2.16.840.1.113883.2.51.999",
            "value": "8d667948-d16d-4658-9332-83b4e99a95dd"
          }
        ],
        "name": [
          {
            "prefix": [
              "dr"
            ],
            "given": [
              "Ex"
            ],
            "family": "Ample"
          }
        ],
        "address": [
          {
            "line": [
              "Laboratoire Central Européenne",
              "Boulevard du Jardin Botanique 32"
            ],
            "postalCode": "1000",
            "city": "Brussels",
            "country": "Belgium"
          }
        ],
        "text": {
          "status": "generated",
          "div": "<div xmlns=\"http://www.w3.org/1999/xhtml\">Laboratory: Laboratoire Central Européenne, 1000 Brussels, Belgium</div>"
        }
      }
    }
  ],
  "type": "document",
  "timestamp": "2017-09-27T08:16:00Z"
}
