{
  "resourceType": "Bundle",
  "id": "0fe95f29-1d4d-4f50-b80d-9437b3125fe1",
  "meta": {
    "profile": [
      "http://hl7.eu/fhir/laboratory/StructureDefinition/Bundle-eu-lab"
    ]
  },
  "identifier": {
    "assigner": {
      "display": "HL7 Europe"
    },
    "system": "urn:oid:2.16.840.1.113883.2.51.999",
    "value": "78d96165-eb33-4f29-825b-ce766220f9ba"
  },
  "entry": [
    {
      "fullUrl": "urn:uuid:7631e7a2-aae2-4d9c-8303-1cba8305aec7",
      "resource": {
        "resourceType": "Composition",
        "id": "7631e7a2-aae2-4d9c-8303-1cba8305aec7",
        "meta": {
          "profile": [
            "http://hl7.eu/fhir/laboratory/StructureDefinition/Composition-eu-lab"
          ]
        },
        "identifier": {
          "assigner": {
            "display": "HL7 Europe"
          },
          "system": "urn:oid:2.16.840.1.113883.2.51.999",
          "value": "d21c3c71-fd0a-4d35-a172-c3d8592b507e"
        },
        "author": [
          {
            "reference": "urn:uuid:fb662ec0-2176-42dc-9092-cce5fc93690a"
          }
        ],
        "category": [
          {
            "coding": [
              {
                "code": "26436-6",
                "system": "http://loinc.org",
                "display": "Laboratory studies (set)"
              }
            ]
          }
        ],
        "type": {
          "coding": [
            {
              "code": "11502-2",
              "system": "http://loinc.org",
              "display": "Laboratory report"
            }
          ],
          "text": "Laboratory Report"
        },
        "section": [
          {
            "code": {
              "coding": [
                {
                  "code": "26436-6",
                  "system": "http://loinc.org",
                  "display": "Laboratory studies (set)"
                }
              ],
              "text": "Laboratory studies"
            },
            "section": [
              {
                "code": {
                  "coding": [
                    {
                      "code": "$18719-5",
                      "system": "http://loinc.org",
                      "display": "Chemistry studies (set)"
                    }
                  ],
                  "text": "Chemistry"
                },
                "entry": [
                  {
                    "reference": "urn:uuid:d1fb41f9-8b12-425a-b02d-e831e44392f0"
                  },
                  {
                    "reference": "urn:uuid:d148c0aa-b441-4dc3-830a-1ce01f2b13e6"
                  },
                  {
                    "reference": "urn:uuid:81abd541-19d5-460c-80c3-5097851bd9e0"
                  },
                  {
                    "reference": "urn:uuid:f2cccd7b-3782-4831-b79e-c4a191a61b55"
                  },
                  {
                    "reference": "urn:uuid:5e81e688-de6e-43eb-b97b-38c503049854"
                  },
                  {
                    "reference": "urn:uuid:4d784c56-d727-4d78-9f8b-b95f9e7af27b"
                  },
                  {
                    "reference": "urn:uuid:3514fe30-2835-40ed-a6d5-992a97b4f2e6"
                  },
                  {
                    "reference": "urn:uuid:40909cbf-3cdd-415f-bd25-dfb6bc8b8cc5"
                  },
                  {
                    "reference": "urn:uuid:0fde872c-21a2-409f-b7da-3813bf8e0bdf"
                  },
                  {
                    "reference": "urn:uuid:7ea4378b-a692-4799-b9a4-c60d94f8cbd3"
                  },
                  {
                    "reference": "urn:uuid:0ba23dd6-26e8-49b1-a931-6fccccc2cd4e"
                  },
                  {
                    "reference": "urn:uuid:ff05abf3-9abe-4be5-9dba-28459f44514a"
                  },
                  {
                    "reference": "urn:uuid:9e36f373-0051-44cc-a0c8-78ae1fbfd21d"
                  },
                  {
                    "reference": "urn:uuid:24463f89-07f4-439b-9e04-9dc411af67d0"
                  },
                  {
                    "reference": "urn:uuid:bab12a07-787b-4448-98ec-d63cf9890c9e"
                  },
                  {
                    "reference": "urn:uuid:52b37326-f5e7-403f-80df-f112522b91e6"
                  },
                  {
                    "reference": "urn:uuid:26d31912-f515-4ac7-8ab2-d99235564370"
                  },
                  {
                    "reference": "urn:uuid:01724d44-f457-4464-b69b-823abaddb9c7"
                  }
                ],
                "text": {
                  "status": "generated",
                  "div": "<div xmlns=\"http://www.w3.org/1999/xhtml\"><h3>Chemistry</h3><table class=\"hl7__eu__lab__report\"><thead><tr><th>Test</th><th>29-SEP-2015</th><th>Reference&#xA0;Range</th><th>Unit</th></tr></thead><tbody><tr><td>Glucose [Mass/volume] in Serum or Plasma</td><td>81.9</td><td>70 - 99</td><td>mg/dL</td></tr><tr><td>Urea nitrogen [Mass/volume] in Serum or Plasma</td><td>9.9</td><td>7 - 50</td><td>mg/dL</td></tr><tr><td>Creatinine [Mass/volume] in Serum or Plasma</td><td><strong>2.1 H</strong></td><td>0.6 - 1.1</td><td>mg/dL</td></tr><tr><td>Calcium [Mass/volume] in Serum or Plasma</td><td>9.4</td><td>8.6 - 10.4</td><td>mg/dL</td></tr><tr><td>Sodium [Moles/volume] in Serum or Plasma</td><td>143.0</td><td>135 - 145</td><td>mmol/L</td></tr><tr><td>Potassium [Moles/volume] in Serum or Plasma</td><td>4.4</td><td>3.5 - 5.1</td><td>mmol/L</td></tr><tr><td>Chloride [Moles/volume] in Serum or Plasma</td><td>103.5</td><td>98 - 108</td><td>mmol/L</td></tr><tr><td>Carbon dioxide, total [Moles/volume] in Serum or Plasma</td><td>25.3</td><td>22 - 32</td><td>mmol/L</td></tr><tr><td>Ketones [Presence] in Urine by Test strip</td><td>Urine ketone test = +</td><td></td><td></td></tr><tr><td>Hemoglobin A1c/Hemoglobin.total in Blood</td><td><strong>3.3 L</strong></td><td>4 - 6.4</td><td>%</td></tr><tr><td>Glucose [Mass/volume] in Blood</td><td>81.9</td><td>70 - 100</td><td>mg/dL</td></tr><tr><td>Urea nitrogen [Mass/volume] in Blood</td><td>9.9</td><td>7 - 43</td><td>mg/dL</td></tr><tr><td>Creatinine [Mass/volume] in Blood</td><td><strong>1.5 H</strong></td><td>0.6 - 1.1</td><td>mg/dL</td></tr><tr><td>Calcium [Mass/volume] in Blood</td><td>9.4</td><td>8.5 - 10.5</td><td>mg/dL</td></tr><tr><td>Sodium [Moles/volume] in Blood</td><td>143.0</td><td>135 - 145</td><td>mmol/L</td></tr><tr><td>Potassium [Moles/volume] in Blood</td><td>4.4</td><td>3.5 - 5.1</td><td>mmol/L</td></tr><tr><td>Chloride [Moles/volume] in Blood</td><td>103.5</td><td>98 - 108</td><td>mmol/L</td></tr><tr><td>Carbon dioxide, total [Moles/volume] in Blood</td><td>25.3</td><td>22 - 29</td><td>mmol/L</td></tr></tbody></table></div>"
                },
                "title": "Chemistry"
              },
              {
                "code": {
                  "coding": [
                    {
                      "code": "$18729-4",
                      "system": "http://loinc.org",
                      "display": "Urinalysis studies (set)"
                    }
                  ],
                  "text": "Urinalysis"
                },
                "entry": [
                  {
                    "reference": "urn:uuid:0efe665c-848e-4a35-9e4c-753ad9503e78"
                  },
                  {
                    "reference": "urn:uuid:9e368d2a-a0f3-47e4-a3df-83a31ad7029c"
                  },
                  {
                    "reference": "urn:uuid:fe467b1c-2769-4a62-8bd6-a8f45c0f7ade"
                  },
                  {
                    "reference": "urn:uuid:5a700e3b-d3df-4890-aea6-70dfa8e3826a"
                  },
                  {
                    "reference": "urn:uuid:fec2628a-2110-4d39-af06-738ba61bbe9d"
                  },
                  {
                    "reference": "urn:uuid:ac3998ec-8740-4b36-a0d7-f1602c446ce9"
                  },
                  {
                    "reference": "urn:uuid:c3139047-759e-4fb9-97b8-8d013913aacd"
                  },
                  {
                    "reference": "urn:uuid:cedaad2f-a31b-40f7-a470-0f4c0e9e59f0"
                  },
                  {
                    "reference": "urn:uuid:300b51c3-b8a2-4a76-ab4b-b386dbe3d0fd"
                  },
                  {
                    "reference": "urn:uuid:b9238fb6-b8d0-49ca-b07b-f770074a4211"
                  },
                  {
                    "reference": "urn:uuid:60ea0881-6feb-4f87-ba94-1c574eb5141a"
                  },
                  {
                    "reference": "urn:uuid:6f27ca04-b7d3-4223-a3ac-48ed3e90dc6b"
                  }
                ],
                "text": {
                  "status": "generated",
                  "div": "<div xmlns=\"http://www.w3.org/1999/xhtml\"><h3>Urinalysis</h3><table class=\"hl7__eu__lab__report\"><thead><tr><th>Test</th><th>29-SEP-2015</th><th>Reference&#xA0;Range</th><th>Unit</th></tr></thead><tbody><tr><td>Glucose [Mass/volume] in Urine by Test strip</td><td><strong>2.1 H</strong></td><td>0.8 - 0</td><td>mg/dL</td></tr><tr><td>Glucose [Presence] in Urine by Test strip</td><td>++</td><td></td><td></td></tr><tr><td>Bilirubin.total [Mass/volume] in Urine by Test strip</td><td>0.8</td><td>0 - 1</td><td>mg/dL</td></tr><tr><td>Bilirubin.total [Presence] in Urine by Test strip</td><td>Finding of bilirubin in urine</td><td></td><td></td></tr><tr><td>Ketones [Mass/volume] in Urine by Test strip</td><td><strong>15.5 H</strong></td><td>0 - 4</td><td>mg/dL</td></tr><tr><td>Specific gravity of Urine by Test strip</td><td><strong>1.0 L</strong></td><td>1.005 - 1.03</td><td>{nominal}</td></tr><tr><td>pH of Urine by Test strip</td><td>5.6</td><td>4.6 - 7</td><td>pH</td></tr><tr><td>Protein [Mass/volume] in Urine by Test strip</td><td><strong>278.6 H</strong></td><td>0 - 14</td><td>mg/dL</td></tr><tr><td>Protein [Presence] in Urine by Test strip</td><td>Urine protein test = ++</td><td></td><td></td></tr><tr><td>Nitrite [Presence] in Urine by Test strip</td><td>Urine nitrite negative</td><td></td><td></td></tr><tr><td>Hemoglobin [Presence] in Urine by Test strip</td><td>Urine blood test = negative</td><td></td><td></td></tr><tr><td>Leukocyte esterase [Presence] in Urine by Test strip</td><td>Urine leukocyte test negative</td><td></td><td></td></tr></tbody></table></div>"
                },
                "title": "Urinalysis"
              },
              {
                "code": {
                  "coding": [
                    {
                      "code": "$LP7846-1",
                      "system": "http://loinc.org",
                      "display": "Specimen information"
                    }
                  ],
                  "text": "Specimen information"
                },
                "entry": [
                  {
                    "reference": "urn:uuid:a0ae4cd4-5c87-433a-b5eb-66cdaa4c10cb"
                  },
                  {
                    "reference": "urn:uuid:03888911-c083-45d4-a22d-8973be1817a8"
                  },
                  {
                    "reference": "urn:uuid:2ce4b793-5bf8-4ae1-8c0b-d8286954b5d2"
                  },
                  {
                    "reference": "urn:uuid:0c3490f7-2346-486e-af54-04d369823c3e"
                  }
                ],
                "text": {
                  "status": "generated",
                  "div": "<div xmlns=\"http://www.w3.org/1999/xhtml\"><h3>Specimen information</h3><table class=\"hl7__eu__lab__report\"><thead><tr><th>Test</th><th>29-SEP-2015</th><th>Specimen</th><th></th></tr></thead><tbody><tr><td>Appearance of Urine</td><td>Cloudy urine</td><td>Urine</td><td></td></tr><tr><td>Odor of Urine</td><td>Urine smell ammoniacal</td><td>Urine</td><td></td></tr><tr><td>Clarity of Urine</td><td>Translucent</td><td>Urine</td><td></td></tr><tr><td>Color of Urine</td><td>Brown color</td><td>Urine</td><td></td></tr></tbody></table></div>"
                },
                "title": "Specimen information"
              }
            ],
            "title": "Laboratory Report"
          },
          {
            "text": {
              "status": "generated",
              "div": "<div xmlns=\"http://www.w3.org/1999/xhtml\"><h3>Annotation</h3><table class=\"hl7__eu__lab__report\"><tr><th>Conclusion and Recommendations based on this report and previous findings known to us</th></tr><tr><td>The patient shows elevated creatinine, significant proteinuria, glucosuria, and ketonuria, with low urine specific gravity and brown, cloudy urine. Blood glucose is normal, but HbA1c is low. These findings suggest impaired renal function (possible acute or chronic kidney disease) with evidence of renal tubular dysfunction (possibly Fanconi syndrome or similar), and no current hyperglycemia. Urinalysis does not indicate infection. Further nephrological evaluation is recommended.</td></tr></table></div>"
            },
            "code": {
              "coding": [
                {
                  "system": "http://loinc.org",
                  "code": "48767-8",
                  "display": "Annotation comment"
                }
              ]
            },
            "title": "Annotation comment"
          }
        ],
        "status": "final",
        "subject": {
          "reference": "urn:uuid:b5f6f9b1-6ff7-456c-a73f-441f00eb7177",
          "display": "Meaghan Neary"
        },
        "date": "2015-09-29T00:11:04Z",
        "title": "Laboratory Report",
        "confidentiality": "N"
      }
    },
    {
      "fullUrl": "urn:uuid:cabca703-5f6a-43a3-9cb8-de89800e8f79",
      "resource": {
        "resourceType": "DiagnosticReport",
        "id": "cabca703-5f6a-43a3-9cb8-de89800e8f79",
        "meta": {
          "profile": [
            "http://hl7.eu/fhir/laboratory/StructureDefinition/DiagnosticReport-eu-lab"
          ]
        },
        "identifier": [
          {
            "assigner": {
              "display": "HL7 Europe"
            },
            "system": "urn:oid:2.16.840.1.113883.2.51.999",
            "value": "f676e7e5-1f0f-4436-acc5-c14bdd32fcae"
          }
        ],
        "extension": [
          {
            "url": "http://hl7.org/fhir/5.0/StructureDefinition/extension-DiagnosticReport.composition",
            "valueReference": {
              "reference": "urn:uuid:d21c3c71-fd0a-4d35-a172-c3d8592b507e"
            }
          }
        ],
        "category": [
          {
            "coding": [
              {
                "code": "26436-6",
                "system": "http://loinc.org",
                "display": "Laboratory studies (set)"
              }
            ]
          }
        ],
        "specimen": [
          {
            "reference": "urn:uuid:ecddce09-a4d9-4a28-9643-5c71832d050b"
          },
          {
            "reference": "urn:uuid:dad50368-6055-4553-a9be-56a95c78d66d"
          },
          {
            "reference": "urn:uuid:3b60cddc-f858-48a4-9b73-004a8022b107"
          }
        ],
        "result": [
          {
            "reference": "urn:uuid:d1fb41f9-8b12-425a-b02d-e831e44392f0"
          },
          {
            "reference": "urn:uuid:d148c0aa-b441-4dc3-830a-1ce01f2b13e6"
          },
          {
            "reference": "urn:uuid:81abd541-19d5-460c-80c3-5097851bd9e0"
          },
          {
            "reference": "urn:uuid:f2cccd7b-3782-4831-b79e-c4a191a61b55"
          },
          {
            "reference": "urn:uuid:5e81e688-de6e-43eb-b97b-38c503049854"
          },
          {
            "reference": "urn:uuid:4d784c56-d727-4d78-9f8b-b95f9e7af27b"
          },
          {
            "reference": "urn:uuid:3514fe30-2835-40ed-a6d5-992a97b4f2e6"
          },
          {
            "reference": "urn:uuid:40909cbf-3cdd-415f-bd25-dfb6bc8b8cc5"
          },
          {
            "reference": "urn:uuid:a0ae4cd4-5c87-433a-b5eb-66cdaa4c10cb"
          },
          {
            "reference": "urn:uuid:03888911-c083-45d4-a22d-8973be1817a8"
          },
          {
            "reference": "urn:uuid:2ce4b793-5bf8-4ae1-8c0b-d8286954b5d2"
          },
          {
            "reference": "urn:uuid:0c3490f7-2346-486e-af54-04d369823c3e"
          },
          {
            "reference": "urn:uuid:0efe665c-848e-4a35-9e4c-753ad9503e78"
          },
          {
            "reference": "urn:uuid:9e368d2a-a0f3-47e4-a3df-83a31ad7029c"
          },
          {
            "reference": "urn:uuid:fe467b1c-2769-4a62-8bd6-a8f45c0f7ade"
          },
          {
            "reference": "urn:uuid:5a700e3b-d3df-4890-aea6-70dfa8e3826a"
          },
          {
            "reference": "urn:uuid:fec2628a-2110-4d39-af06-738ba61bbe9d"
          },
          {
            "reference": "urn:uuid:0fde872c-21a2-409f-b7da-3813bf8e0bdf"
          },
          {
            "reference": "urn:uuid:ac3998ec-8740-4b36-a0d7-f1602c446ce9"
          },
          {
            "reference": "urn:uuid:c3139047-759e-4fb9-97b8-8d013913aacd"
          },
          {
            "reference": "urn:uuid:cedaad2f-a31b-40f7-a470-0f4c0e9e59f0"
          },
          {
            "reference": "urn:uuid:300b51c3-b8a2-4a76-ab4b-b386dbe3d0fd"
          },
          {
            "reference": "urn:uuid:b9238fb6-b8d0-49ca-b07b-f770074a4211"
          },
          {
            "reference": "urn:uuid:60ea0881-6feb-4f87-ba94-1c574eb5141a"
          },
          {
            "reference": "urn:uuid:6f27ca04-b7d3-4223-a3ac-48ed3e90dc6b"
          },
          {
            "reference": "urn:uuid:7ea4378b-a692-4799-b9a4-c60d94f8cbd3"
          },
          {
            "reference": "urn:uuid:0ba23dd6-26e8-49b1-a931-6fccccc2cd4e"
          },
          {
            "reference": "urn:uuid:ff05abf3-9abe-4be5-9dba-28459f44514a"
          },
          {
            "reference": "urn:uuid:9e36f373-0051-44cc-a0c8-78ae1fbfd21d"
          },
          {
            "reference": "urn:uuid:24463f89-07f4-439b-9e04-9dc411af67d0"
          },
          {
            "reference": "urn:uuid:bab12a07-787b-4448-98ec-d63cf9890c9e"
          },
          {
            "reference": "urn:uuid:52b37326-f5e7-403f-80df-f112522b91e6"
          },
          {
            "reference": "urn:uuid:26d31912-f515-4ac7-8ab2-d99235564370"
          },
          {
            "reference": "urn:uuid:01724d44-f457-4464-b69b-823abaddb9c7"
          }
        ],
        "status": "registered",
        "code": {
          "coding": [
            {
              "code": "11502-2",
              "system": "http://loinc.org",
              "display": "Laboratory report"
            }
          ]
        },
        "subject": {
          "reference": "urn:uuid:b5f6f9b1-6ff7-456c-a73f-441f00eb7177",
          "display": "Meaghan Neary"
        }
      }
    },
    {
      "fullUrl": "urn:uuid:b5f6f9b1-6ff7-456c-a73f-441f00eb7177",
      "resource": {
        "resourceType": "Patient",
        "id": "b5f6f9b1-6ff7-456c-a73f-441f00eb7177",
        "meta": {
          "security": [
            {
              "system": "http://terminology.hl7.org/CodeSystem/v3-ActReason",
              "code": "HTEST"
            },
            {
              "system": "http://terminology.hl7.org/CodeSystem/v3-ActReason",
              "code": "TRAIN"
            }
          ],
          "tag": [
            {
              "system": "https://synderai.net/fhir/CodeSystem/tags",
              "code": "synthetic",
              "display": "SYNDERAI Synthetic data"
            }
          ],
          "profile": [
            "http://hl7.eu/fhir/base/StructureDefinition/patient-eu-core"
          ]
        },
        "identifier": [
          {
            "type": {
              "coding": [
                {
                  "code": "PT",
                  "system": "http://terminology.hl7.org/CodeSystem/v2-0203"
                }
              ]
            },
            "system": "http://ec.europa.eu/identifier/eci",
            "value": "1586-567257-8"
          },
          {
            "type": {
              "coding": [
                {
                  "code": "MR",
                  "system": "http://terminology.hl7.org/CodeSystem/v2-0203"
                }
              ]
            },
            "system": "http://local.setting.eu/identifier",
            "value": "443e6379-f231-b364-3ccb-644740a1aa2a"
          }
        ],
        "name": [
          {
            "family": "Neary"
          },
          {
            "given": [
              "Meaghan"
            ]
          },
          {
            "text": "Meaghan Neary"
          }
        ],
        "address": [
          {
            "line": [
              "64 Linskey Street"
            ],
            "use": "home",
            "type": "physical",
            "postalCode": "D02",
            "city": "Dublin",
            "country": "Ireland"
          }
        ],
        "telecom": [
          {
            "system": "phone",
            "value": "001-967-573-0911x465"
          }
        ],
        "extension": [
          {
            "url": "http://hl7.org/fhir/StructureDefinition/patient-nationality",
            "valueCodeableConcept": {
              "coding": [
                {
                  "code": "IE",
                  "system": "http://hl7.org/fhir/ValueSet/country"
                }
              ]
            }
          }
        ],
        "text": {
          "status": "generated",
          "div": "<div xmlns=\"http://www.w3.org/1999/xhtml\"><table class=\"hl7__ips\"><tr><td>Meaghan Neary</td><td>female</td><td>19-Dec-1960</td></tr></table></div>"
        },
        "gender": "female",
        "birthDate": "1960-12-19"
      }
    },
    {
      "fullUrl": "urn:uuid:5a5c4c94-99d4-48ea-917a-5877aefaba45",
      "resource": {
        "resourceType": "ServiceRequest",
        "id": "5a5c4c94-99d4-48ea-917a-5877aefaba45",
        "meta": {
          "profile": [
            "http://hl7.eu/fhir/laboratory/StructureDefinition/ServiceRequest-eu-lab"
          ]
        },
        "identifier": [
          {
            "system": "http://example.org",
            "value": "23dec680-49bd-4c36-9618-c008ae82b7d0"
          }
        ],
        "specimen": [
          {
            "reference": "urn:uuid:ecddce09-a4d9-4a28-9643-5c71832d050b"
          },
          {
            "reference": "urn:uuid:dad50368-6055-4553-a9be-56a95c78d66d"
          },
          {
            "reference": "urn:uuid:3b60cddc-f858-48a4-9b73-004a8022b107"
          }
        ],
        "reasonCode": [
          {
            "coding": [
              {
                "code": "55822004",
                "system": "http://snomed.info/sct",
                "display": "Hyperlipidemia"
              }
            ]
          },
          {
            "coding": [
              {
                "code": "433144002",
                "system": "http://snomed.info/sct",
                "display": "Chronic kidney disease stage 3"
              }
            ]
          },
          {
            "coding": [
              {
                "code": "157141000119108",
                "system": "http://snomed.info/sct",
                "display": "Proteinuria due to type 2 diabetes mellitus"
              }
            ]
          },
          {
            "coding": [
              {
                "code": "431856006",
                "system": "http://snomed.info/sct",
                "display": "Chronic kidney disease stage 2"
              }
            ]
          },
          {
            "coding": [
              {
                "code": "90781000119102",
                "system": "http://snomed.info/sct",
                "display": "Microalbuminuria due to type 2 diabetes mellitus"
              }
            ]
          },
          {
            "coding": [
              {
                "code": "127013003",
                "system": "http://snomed.info/sct",
                "display": "Disorder of kidney due to diabetes mellitus"
              }
            ]
          },
          {
            "coding": [
              {
                "code": "431855005",
                "system": "http://snomed.info/sct",
                "display": "Chronic kidney disease stage 1"
              }
            ]
          },
          {
            "coding": [
              {
                "code": "237602007",
                "system": "http://snomed.info/sct",
                "display": "Metabolic syndrome X"
              }
            ]
          },
          {
            "coding": [
              {
                "code": "271737000",
                "system": "http://snomed.info/sct",
                "display": "Anemia"
              }
            ]
          },
          {
            "coding": [
              {
                "code": "15777000",
                "system": "http://snomed.info/sct",
                "display": "Prediabetes"
              }
            ]
          },
          {
            "coding": [
              {
                "code": "59621000",
                "system": "http://snomed.info/sct",
                "display": "Essential hypertension"
              }
            ]
          }
        ],
        "status": "active",
        "intent": "order",
        "code": {
          "coding": [
            {
              "code": "108252007",
              "system": "http://snomed.info/sct",
              "display": "Laboratory procedure"
            }
          ]
        },
        "subject": {
          "reference": "urn:uuid:b5f6f9b1-6ff7-456c-a73f-441f00eb7177",
          "display": "Meaghan Neary"
        },
        "requester": {
          "reference": "urn:uuid:5cfe68a8-781f-4d3e-a934-ab6f0d03c24d"
        }
      }
    },
    {
      "fullUrl": "urn:uuid:5cfe68a8-781f-4d3e-a934-ab6f0d03c24d",
      "resource": {
        "resourceType": "PractitionerRole",
        "id": "5cfe68a8-781f-4d3e-a934-ab6f0d03c24d",
        "meta": {
          "profile": [
            "http://hl7.eu/fhir/base/StructureDefinition/practitionerRole-eu"
          ]
        },
        "text": {
          "status": "generated",
          "div": "<div xmlns=\"http://www.w3.org/1999/xhtml\">Provider Role Id: 5cfe68a8-781f-4d3e-a934-ab6f0d03c24d</div>"
        },
        "organization": {
          "reference": "urn:uuid:ff3bbaf3-89c0-4882-bb9f-337012bd5165"
        }
      }
    },
    {
      "fullUrl": "urn:uuid:ff3bbaf3-89c0-4882-bb9f-337012bd5165",
      "resource": {
        "resourceType": "Organization",
        "id": "ff3bbaf3-89c0-4882-bb9f-337012bd5165",
        "meta": {
          "profile": [
            "http://hl7.eu/fhir/base/StructureDefinition/organization-eu"
          ]
        },
        "identifier": [
          {
            "assigner": {
              "display": "HL7 Europe"
            },
            "system": "urn:oid:2.16.840.1.113883.2.51.999",
            "value": "c333d79d-8620-4b79-905b-cd63bd5f5d96"
          }
        ],
        "address": [
          {
            "line": [
              "Parnell Square West nan"
            ],
            "city": "Dublin",
            "postalCode": "D01",
            "country": "Ireland"
          }
        ],
        "text": {
          "status": "generated",
          "div": "<div xmlns=\"http://www.w3.org/1999/xhtml\">Provider Organization: Rotunda Hospital</div>"
        },
        "name": "Rotunda Hospital"
      }
    },
    {
      "fullUrl": "urn:uuid:ecddce09-a4d9-4a28-9643-5c71832d050b",
      "resource": {
        "resourceType": "Specimen",
        "id": "ecddce09-a4d9-4a28-9643-5c71832d050b",
        "meta": {
          "profile": [
            "http://hl7.eu/fhir/laboratory/StructureDefinition/Specimen-eu-lab"
          ]
        },
        "collection": {
          "collectedDateTime": "2015-09-28"
        },
        "text": {
          "status": "generated",
          "div": "<div xmlns=\"http://www.w3.org/1999/xhtml\"><table class=\"hl7__eu__lab__report\"><tr><th>Specimen</th><th>Collection Date</th></tr><tr><td>Acellular blood (serum or plasma) specimen</td><td><span class=\"nb\">28-Sep-2015</span></td></tr></table></div>"
        },
        "type": {
          "coding": [
            {
              "code": "122592007",
              "system": "http://snomed.info/sct",
              "display": "Acellular blood (serum or plasma) specimen"
            }
          ]
        }
      }
    },
    {
      "fullUrl": "urn:uuid:dad50368-6055-4553-a9be-56a95c78d66d",
      "resource": {
        "resourceType": "Specimen",
        "id": "dad50368-6055-4553-a9be-56a95c78d66d",
        "meta": {
          "profile": [
            "http://hl7.eu/fhir/laboratory/StructureDefinition/Specimen-eu-lab"
          ]
        },
        "collection": {
          "collectedDateTime": "2015-09-28"
        },
        "text": {
          "status": "generated",
          "div": "<div xmlns=\"http://www.w3.org/1999/xhtml\"><table class=\"hl7__eu__lab__report\"><tr><th>Specimen</th><th>Collection Date</th></tr><tr><td>Urine specimen</td><td><span class=\"nb\">28-Sep-2015</span></td></tr></table></div>"
        },
        "type": {
          "coding": [
            {
              "code": "122575003",
              "system": "http://snomed.info/sct",
              "display": "Urine specimen"
            }
          ]
        }
      }
    },
    {
      "fullUrl": "urn:uuid:3b60cddc-f858-48a4-9b73-004a8022b107",
      "resource": {
        "resourceType": "Specimen",
        "id": "3b60cddc-f858-48a4-9b73-004a8022b107",
        "meta": {
          "profile": [
            "http://hl7.eu/fhir/laboratory/StructureDefinition/Specimen-eu-lab"
          ]
        },
        "collection": {
          "collectedDateTime": "2015-09-28"
        },
        "text": {
          "status": "generated",
          "div": "<div xmlns=\"http://www.w3.org/1999/xhtml\"><table class=\"hl7__eu__lab__report\"><tr><th>Specimen</th><th>Collection Date</th></tr><tr><td>Whole blood specimen (specimen)</td><td><span class=\"nb\">28-Sep-2015</span></td></tr></table></div>"
        },
        "type": {
          "coding": [
            {
              "code": "258580003",
              "system": "http://snomed.info/sct",
              "display": "Whole blood specimen (specimen)"
            }
          ]
        }
      }
    },
    {
      "fullUrl": "urn:uuid:d1fb41f9-8b12-425a-b02d-e831e44392f0",
      "resource": {
        "resourceType": "Observation",
        "id": "d1fb41f9-8b12-425a-b02d-e831e44392f0",
        "meta": {
          "profile": [
            "http://hl7.eu/fhir/laboratory/StructureDefinition/Observation-resultslab-eu-lab"
          ]
        },
        "performer": [
          {
            "display": "The Central European Lab"
          }
        ],
        "category": [
          {
            "coding": [
              {
                "system": "http://terminology.hl7.org/CodeSystem/observation-category",
                "code": "laboratory"
              }
            ]
          }
        ],
        "code": {
          "coding": [
            {
              "code": "2345-7",
              "system": "http://loinc.org",
              "display": "Glucose [Mass/volume] in Serum or Plasma"
            }
          ],
          "text": "Glucose [Mass/volume] in Serum or Plasma"
        },
        "valueQuantity": {
          "system": "http://unitsofmeasure.org",
          "value": 81.9,
          "unit": "mg/dL",
          "code": "mg/dL"
        },
        "referenceRange": [
          {
            "low": {
              "value": 70,
              "code": "mg/dL",
              "system": "http://unitsofmeasure.org"
            }
          },
          {
            "high": {
              "value": 99,
              "code": "mg/dL",
              "system": "http://unitsofmeasure.org"
            }
          }
        ],
        "text": {
          "status": "generated",
          "div": "<div xmlns=\"http://www.w3.org/1999/xhtml\"><table class=\"hl7__eu__lab__report\"><tr><th>Test</th><th>29-Sep-2015</th><th>Reference&#xA0;Range</th><th>Unit</th></tr><tr><td>Glucose [Mass/volume] in Serum or Plasma</td><td>81.9</td><td>70 - 99</td><td></td><td>mg/dL</td></tr></table></div>"
        },
        "status": "final",
        "subject": {
          "reference": "urn:uuid:b5f6f9b1-6ff7-456c-a73f-441f00eb7177",
          "display": "Meaghan Neary"
        },
        "effectiveDateTime": "2015-09-28T22:11:04Z",
        "specimen": {
          "reference": "urn:uuid:ecddce09-a4d9-4a28-9643-5c71832d050b"
        }
      }
    },
    {
      "fullUrl": "urn:uuid:d148c0aa-b441-4dc3-830a-1ce01f2b13e6",
      "resource": {
        "resourceType": "Observation",
        "id": "d148c0aa-b441-4dc3-830a-1ce01f2b13e6",
        "meta": {
          "profile": [
            "http://hl7.eu/fhir/laboratory/StructureDefinition/Observation-resultslab-eu-lab"
          ]
        },
        "performer": [
          {
            "display": "The Central European Lab"
          }
        ],
        "category": [
          {
            "coding": [
              {
                "system": "http://terminology.hl7.org/CodeSystem/observation-category",
                "code": "laboratory"
              }
            ]
          }
        ],
        "code": {
          "coding": [
            {
              "code": "3094-0",
              "system": "http://loinc.org",
              "display": "Urea nitrogen [Mass/volume] in Serum or Plasma"
            }
          ],
          "text": "Urea nitrogen [Mass/volume] in Serum or Plasma"
        },
        "valueQuantity": {
          "system": "http://unitsofmeasure.org",
          "value": 9.9,
          "unit": "mg/dL",
          "code": "mg/dL"
        },
        "referenceRange": [
          {
            "low": {
              "value": 7,
              "code": "mg/dL",
              "system": "http://unitsofmeasure.org"
            }
          },
          {
            "high": {
              "value": 50,
              "code": "mg/dL",
              "system": "http://unitsofmeasure.org"
            }
          }
        ],
        "text": {
          "status": "generated",
          "div": "<div xmlns=\"http://www.w3.org/1999/xhtml\"><table class=\"hl7__eu__lab__report\"><tr><th>Test</th><th>29-Sep-2015</th><th>Reference&#xA0;Range</th><th>Unit</th></tr><tr><td>Urea nitrogen [Mass/volume] in Serum or Plasma</td><td>9.9</td><td>7 - 50</td><td></td><td>mg/dL</td></tr></table></div>"
        },
        "status": "final",
        "subject": {
          "reference": "urn:uuid:b5f6f9b1-6ff7-456c-a73f-441f00eb7177",
          "display": "Meaghan Neary"
        },
        "effectiveDateTime": "2015-09-28T22:11:04Z",
        "specimen": {
          "reference": "urn:uuid:ecddce09-a4d9-4a28-9643-5c71832d050b"
        }
      }
    },
    {
      "fullUrl": "urn:uuid:81abd541-19d5-460c-80c3-5097851bd9e0",
      "resource": {
        "resourceType": "Observation",
        "id": "81abd541-19d5-460c-80c3-5097851bd9e0",
        "meta": {
          "profile": [
            "http://hl7.eu/fhir/laboratory/StructureDefinition/Observation-resultslab-eu-lab"
          ]
        },
        "performer": [
          {
            "display": "The Central European Lab"
          }
        ],
        "category": [
          {
            "coding": [
              {
                "system": "http://terminology.hl7.org/CodeSystem/observation-category",
                "code": "laboratory"
              }
            ]
          }
        ],
        "code": {
          "coding": [
            {
              "code": "2160-0",
              "system": "http://loinc.org",
              "display": "Creatinine [Mass/volume] in Serum or Plasma"
            }
          ],
          "text": "Creatinine [Mass/volume] in Serum or Plasma"
        },
        "valueQuantity": {
          "system": "http://unitsofmeasure.org",
          "value": 2.1,
          "unit": "mg/dL",
          "code": "mg/dL"
        },
        "referenceRange": [
          {
            "low": {
              "value": 0.6,
              "code": "mg/dL",
              "system": "http://unitsofmeasure.org"
            }
          },
          {
            "high": {
              "value": 1.1,
              "code": "mg/dL",
              "system": "http://unitsofmeasure.org"
            }
          }
        ],
        "interpretation": [
          {
            "coding": [
              {
                "code": "H",
                "system": "http://terminology.hl7.org/CodeSystem/v3-ObservationInterpretation",
                "display": "High"
              }
            ]
          }
        ],
        "text": {
          "status": "generated",
          "div": "<div xmlns=\"http://www.w3.org/1999/xhtml\"><table class=\"hl7__eu__lab__report\"><tr><th>Test</th><th>29-Sep-2015</th><th>Reference&#xA0;Range</th><th>Unit</th></tr><tr><td>Creatinine [Mass/volume] in Serum or Plasma</td><td>2.1</td><td>0.6 - 1.1</td><td>H</td><td>mg/dL</td></tr></table></div>"
        },
        "status": "final",
        "subject": {
          "reference": "urn:uuid:b5f6f9b1-6ff7-456c-a73f-441f00eb7177",
          "display": "Meaghan Neary"
        },
        "effectiveDateTime": "2015-09-28T22:11:04Z",
        "specimen": {
          "reference": "urn:uuid:ecddce09-a4d9-4a28-9643-5c71832d050b"
        }
      }
    },
    {
      "fullUrl": "urn:uuid:f2cccd7b-3782-4831-b79e-c4a191a61b55",
      "resource": {
        "resourceType": "Observation",
        "id": "f2cccd7b-3782-4831-b79e-c4a191a61b55",
        "meta": {
          "profile": [
            "http://hl7.eu/fhir/laboratory/StructureDefinition/Observation-resultslab-eu-lab"
          ]
        },
        "performer": [
          {
            "display": "The Central European Lab"
          }
        ],
        "category": [
          {
            "coding": [
              {
                "system": "http://terminology.hl7.org/CodeSystem/observation-category",
                "code": "laboratory"
              }
            ]
          }
        ],
        "code": {
          "coding": [
            {
              "code": "17861-6",
              "system": "http://loinc.org",
              "display": "Calcium [Mass/volume] in Serum or Plasma"
            }
          ],
          "text": "Calcium [Mass/volume] in Serum or Plasma"
        },
        "valueQuantity": {
          "system": "http://unitsofmeasure.org",
          "value": 9.4,
          "unit": "mg/dL",
          "code": "mg/dL"
        },
        "referenceRange": [
          {
            "low": {
              "value": 8.6,
              "code": "mg/dL",
              "system": "http://unitsofmeasure.org"
            }
          },
          {
            "high": {
              "value": 10.4,
              "code": "mg/dL",
              "system": "http://unitsofmeasure.org"
            }
          }
        ],
        "text": {
          "status": "generated",
          "div": "<div xmlns=\"http://www.w3.org/1999/xhtml\"><table class=\"hl7__eu__lab__report\"><tr><th>Test</th><th>29-Sep-2015</th><th>Reference&#xA0;Range</th><th>Unit</th></tr><tr><td>Calcium [Mass/volume] in Serum or Plasma</td><td>9.4</td><td>8.6 - 10.4</td><td></td><td>mg/dL</td></tr></table></div>"
        },
        "status": "final",
        "subject": {
          "reference": "urn:uuid:b5f6f9b1-6ff7-456c-a73f-441f00eb7177",
          "display": "Meaghan Neary"
        },
        "effectiveDateTime": "2015-09-28T22:11:04Z",
        "specimen": {
          "reference": "urn:uuid:ecddce09-a4d9-4a28-9643-5c71832d050b"
        }
      }
    },
    {
      "fullUrl": "urn:uuid:5e81e688-de6e-43eb-b97b-38c503049854",
      "resource": {
        "resourceType": "Observation",
        "id": "5e81e688-de6e-43eb-b97b-38c503049854",
        "meta": {
          "profile": [
            "http://hl7.eu/fhir/laboratory/StructureDefinition/Observation-resultslab-eu-lab"
          ]
        },
        "performer": [
          {
            "display": "The Central European Lab"
          }
        ],
        "category": [
          {
            "coding": [
              {
                "system": "http://terminology.hl7.org/CodeSystem/observation-category",
                "code": "laboratory"
              }
            ]
          }
        ],
        "code": {
          "coding": [
            {
              "code": "2951-2",
              "system": "http://loinc.org",
              "display": "Sodium [Moles/volume] in Serum or Plasma"
            }
          ],
          "text": "Sodium [Moles/volume] in Serum or Plasma"
        },
        "valueQuantity": {
          "system": "http://unitsofmeasure.org",
          "value": 143,
          "unit": "mmol/L",
          "code": "mmol/L"
        },
        "referenceRange": [
          {
            "low": {
              "value": 135,
              "code": "mmol/L",
              "system": "http://unitsofmeasure.org"
            }
          },
          {
            "high": {
              "value": 145,
              "code": "mmol/L",
              "system": "http://unitsofmeasure.org"
            }
          }
        ],
        "text": {
          "status": "generated",
          "div": "<div xmlns=\"http://www.w3.org/1999/xhtml\"><table class=\"hl7__eu__lab__report\"><tr><th>Test</th><th>29-Sep-2015</th><th>Reference&#xA0;Range</th><th>Unit</th></tr><tr><td>Sodium [Moles/volume] in Serum or Plasma</td><td>143.0</td><td>135 - 145</td><td></td><td>mmol/L</td></tr></table></div>"
        },
        "status": "final",
        "subject": {
          "reference": "urn:uuid:b5f6f9b1-6ff7-456c-a73f-441f00eb7177",
          "display": "Meaghan Neary"
        },
        "effectiveDateTime": "2015-09-28T22:11:04Z",
        "specimen": {
          "reference": "urn:uuid:ecddce09-a4d9-4a28-9643-5c71832d050b"
        }
      }
    },
    {
      "fullUrl": "urn:uuid:4d784c56-d727-4d78-9f8b-b95f9e7af27b",
      "resource": {
        "resourceType": "Observation",
        "id": "4d784c56-d727-4d78-9f8b-b95f9e7af27b",
        "meta": {
          "profile": [
            "http://hl7.eu/fhir/laboratory/StructureDefinition/Observation-resultslab-eu-lab"
          ]
        },
        "performer": [
          {
            "display": "The Central European Lab"
          }
        ],
        "category": [
          {
            "coding": [
              {
                "system": "http://terminology.hl7.org/CodeSystem/observation-category",
                "code": "laboratory"
              }
            ]
          }
        ],
        "code": {
          "coding": [
            {
              "code": "2823-3",
              "system": "http://loinc.org",
              "display": "Potassium [Moles/volume] in Serum or Plasma"
            }
          ],
          "text": "Potassium [Moles/volume] in Serum or Plasma"
        },
        "valueQuantity": {
          "system": "http://unitsofmeasure.org",
          "value": 4.4,
          "unit": "mmol/L",
          "code": "mmol/L"
        },
        "referenceRange": [
          {
            "low": {
              "value": 3.5,
              "code": "mmol/L",
              "system": "http://unitsofmeasure.org"
            }
          },
          {
            "high": {
              "value": 5.1,
              "code": "mmol/L",
              "system": "http://unitsofmeasure.org"
            }
          }
        ],
        "text": {
          "status": "generated",
          "div": "<div xmlns=\"http://www.w3.org/1999/xhtml\"><table class=\"hl7__eu__lab__report\"><tr><th>Test</th><th>29-Sep-2015</th><th>Reference&#xA0;Range</th><th>Unit</th></tr><tr><td>Potassium [Moles/volume] in Serum or Plasma</td><td>4.4</td><td>3.5 - 5.1</td><td></td><td>mmol/L</td></tr></table></div>"
        },
        "status": "final",
        "subject": {
          "reference": "urn:uuid:b5f6f9b1-6ff7-456c-a73f-441f00eb7177",
          "display": "Meaghan Neary"
        },
        "effectiveDateTime": "2015-09-28T22:11:04Z",
        "specimen": {
          "reference": "urn:uuid:ecddce09-a4d9-4a28-9643-5c71832d050b"
        }
      }
    },
    {
      "fullUrl": "urn:uuid:3514fe30-2835-40ed-a6d5-992a97b4f2e6",
      "resource": {
        "resourceType": "Observation",
        "id": "3514fe30-2835-40ed-a6d5-992a97b4f2e6",
        "meta": {
          "profile": [
            "http://hl7.eu/fhir/laboratory/StructureDefinition/Observation-resultslab-eu-lab"
          ]
        },
        "performer": [
          {
            "display": "The Central European Lab"
          }
        ],
        "category": [
          {
            "coding": [
              {
                "system": "http://terminology.hl7.org/CodeSystem/observation-category",
                "code": "laboratory"
              }
            ]
          }
        ],
        "code": {
          "coding": [
            {
              "code": "2075-0",
              "system": "http://loinc.org",
              "display": "Chloride [Moles/volume] in Serum or Plasma"
            }
          ],
          "text": "Chloride [Moles/volume] in Serum or Plasma"
        },
        "valueQuantity": {
          "system": "http://unitsofmeasure.org",
          "value": 103.5,
          "unit": "mmol/L",
          "code": "mmol/L"
        },
        "referenceRange": [
          {
            "low": {
              "value": 98,
              "code": "mmol/L",
              "system": "http://unitsofmeasure.org"
            }
          },
          {
            "high": {
              "value": 108,
              "code": "mmol/L",
              "system": "http://unitsofmeasure.org"
            }
          }
        ],
        "text": {
          "status": "generated",
          "div": "<div xmlns=\"http://www.w3.org/1999/xhtml\"><table class=\"hl7__eu__lab__report\"><tr><th>Test</th><th>29-Sep-2015</th><th>Reference&#xA0;Range</th><th>Unit</th></tr><tr><td>Chloride [Moles/volume] in Serum or Plasma</td><td>103.5</td><td>98 - 108</td><td></td><td>mmol/L</td></tr></table></div>"
        },
        "status": "final",
        "subject": {
          "reference": "urn:uuid:b5f6f9b1-6ff7-456c-a73f-441f00eb7177",
          "display": "Meaghan Neary"
        },
        "effectiveDateTime": "2015-09-28T22:11:04Z",
        "specimen": {
          "reference": "urn:uuid:ecddce09-a4d9-4a28-9643-5c71832d050b"
        }
      }
    },
    {
      "fullUrl": "urn:uuid:40909cbf-3cdd-415f-bd25-dfb6bc8b8cc5",
      "resource": {
        "resourceType": "Observation",
        "id": "40909cbf-3cdd-415f-bd25-dfb6bc8b8cc5",
        "meta": {
          "profile": [
            "http://hl7.eu/fhir/laboratory/StructureDefinition/Observation-resultslab-eu-lab"
          ]
        },
        "performer": [
          {
            "display": "The Central European Lab"
          }
        ],
        "category": [
          {
            "coding": [
              {
                "system": "http://terminology.hl7.org/CodeSystem/observation-category",
                "code": "laboratory"
              }
            ]
          }
        ],
        "code": {
          "coding": [
            {
              "code": "2028-9",
              "system": "http://loinc.org",
              "display": "Carbon dioxide, total [Moles/volume] in Serum or Plasma"
            }
          ],
          "text": "Carbon dioxide, total [Moles/volume] in Serum or Plasma"
        },
        "valueQuantity": {
          "system": "http://unitsofmeasure.org",
          "value": 25.3,
          "unit": "mmol/L",
          "code": "mmol/L"
        },
        "referenceRange": [
          {
            "low": {
              "value": 22,
              "code": "mmol/L",
              "system": "http://unitsofmeasure.org"
            }
          },
          {
            "high": {
              "value": 32,
              "code": "mmol/L",
              "system": "http://unitsofmeasure.org"
            }
          }
        ],
        "text": {
          "status": "generated",
          "div": "<div xmlns=\"http://www.w3.org/1999/xhtml\"><table class=\"hl7__eu__lab__report\"><tr><th>Test</th><th>29-Sep-2015</th><th>Reference&#xA0;Range</th><th>Unit</th></tr><tr><td>Carbon dioxide, total [Moles/volume] in Serum or Plasma</td><td>25.3</td><td>22 - 32</td><td></td><td>mmol/L</td></tr></table></div>"
        },
        "status": "final",
        "subject": {
          "reference": "urn:uuid:b5f6f9b1-6ff7-456c-a73f-441f00eb7177",
          "display": "Meaghan Neary"
        },
        "effectiveDateTime": "2015-09-28T22:11:04Z",
        "specimen": {
          "reference": "urn:uuid:ecddce09-a4d9-4a28-9643-5c71832d050b"
        }
      }
    },
    {
      "fullUrl": "urn:uuid:a0ae4cd4-5c87-433a-b5eb-66cdaa4c10cb",
      "resource": {
        "resourceType": "Observation",
        "id": "a0ae4cd4-5c87-433a-b5eb-66cdaa4c10cb",
        "meta": {
          "profile": [
            "http://hl7.eu/fhir/laboratory/StructureDefinition/Observation-resultslab-eu-lab"
          ]
        },
        "performer": [
          {
            "display": "The Central European Lab"
          }
        ],
        "category": [
          {
            "coding": [
              {
                "system": "http://terminology.hl7.org/CodeSystem/observation-category",
                "code": "laboratory"
              }
            ]
          }
        ],
        "code": {
          "coding": [
            {
              "code": "5767-9",
              "system": "http://loinc.org",
              "display": "Appearance of Urine"
            }
          ],
          "text": "Appearance of Urine"
        },
        "text": {
          "status": "generated",
          "div": "<div xmlns=\"http://www.w3.org/1999/xhtml\"><table class=\"hl7__eu__lab__report\"><tr><th>Test</th><th>29-Sep-2015</th><th>Reference&#xA0;Range</th><th>Unit</th></tr><tr><td>Appearance of Urine</td></tr></table></div>"
        },
        "status": "final",
        "subject": {
          "reference": "urn:uuid:b5f6f9b1-6ff7-456c-a73f-441f00eb7177",
          "display": "Meaghan Neary"
        },
        "effectiveDateTime": "2015-09-28T22:11:04Z",
        "specimen": {
          "reference": "urn:uuid:dad50368-6055-4553-a9be-56a95c78d66d"
        }
      }
    },
    {
      "fullUrl": "urn:uuid:03888911-c083-45d4-a22d-8973be1817a8",
      "resource": {
        "resourceType": "Observation",
        "id": "03888911-c083-45d4-a22d-8973be1817a8",
        "meta": {
          "profile": [
            "http://hl7.eu/fhir/laboratory/StructureDefinition/Observation-resultslab-eu-lab"
          ]
        },
        "performer": [
          {
            "display": "The Central European Lab"
          }
        ],
        "category": [
          {
            "coding": [
              {
                "system": "http://terminology.hl7.org/CodeSystem/observation-category",
                "code": "laboratory"
              }
            ]
          }
        ],
        "code": {
          "coding": [
            {
              "code": "34533-0",
              "system": "http://loinc.org",
              "display": "Odor of Urine"
            }
          ],
          "text": "Odor of Urine"
        },
        "text": {
          "status": "generated",
          "div": "<div xmlns=\"http://www.w3.org/1999/xhtml\"><table class=\"hl7__eu__lab__report\"><tr><th>Test</th><th>29-Sep-2015</th><th>Reference&#xA0;Range</th><th>Unit</th></tr><tr><td>Odor of Urine</td></tr></table></div>"
        },
        "status": "final",
        "subject": {
          "reference": "urn:uuid:b5f6f9b1-6ff7-456c-a73f-441f00eb7177",
          "display": "Meaghan Neary"
        },
        "effectiveDateTime": "2015-09-28T22:11:04Z",
        "specimen": {
          "reference": "urn:uuid:dad50368-6055-4553-a9be-56a95c78d66d"
        }
      }
    },
    {
      "fullUrl": "urn:uuid:2ce4b793-5bf8-4ae1-8c0b-d8286954b5d2",
      "resource": {
        "resourceType": "Observation",
        "id": "2ce4b793-5bf8-4ae1-8c0b-d8286954b5d2",
        "meta": {
          "profile": [
            "http://hl7.eu/fhir/laboratory/StructureDefinition/Observation-resultslab-eu-lab"
          ]
        },
        "performer": [
          {
            "display": "The Central European Lab"
          }
        ],
        "category": [
          {
            "coding": [
              {
                "system": "http://terminology.hl7.org/CodeSystem/observation-category",
                "code": "laboratory"
              }
            ]
          }
        ],
        "code": {
          "coding": [
            {
              "code": "32167-9",
              "system": "http://loinc.org",
              "display": "Clarity of Urine"
            }
          ],
          "text": "Clarity of Urine"
        },
        "text": {
          "status": "generated",
          "div": "<div xmlns=\"http://www.w3.org/1999/xhtml\"><table class=\"hl7__eu__lab__report\"><tr><th>Test</th><th>29-Sep-2015</th><th>Reference&#xA0;Range</th><th>Unit</th></tr><tr><td>Clarity of Urine</td></tr></table></div>"
        },
        "status": "final",
        "subject": {
          "reference": "urn:uuid:b5f6f9b1-6ff7-456c-a73f-441f00eb7177",
          "display": "Meaghan Neary"
        },
        "effectiveDateTime": "2015-09-28T22:11:04Z",
        "specimen": {
          "reference": "urn:uuid:dad50368-6055-4553-a9be-56a95c78d66d"
        }
      }
    },
    {
      "fullUrl": "urn:uuid:0c3490f7-2346-486e-af54-04d369823c3e",
      "resource": {
        "resourceType": "Observation",
        "id": "0c3490f7-2346-486e-af54-04d369823c3e",
        "meta": {
          "profile": [
            "http://hl7.eu/fhir/laboratory/StructureDefinition/Observation-resultslab-eu-lab"
          ]
        },
        "performer": [
          {
            "display": "The Central European Lab"
          }
        ],
        "category": [
          {
            "coding": [
              {
                "system": "http://terminology.hl7.org/CodeSystem/observation-category",
                "code": "laboratory"
              }
            ]
          }
        ],
        "code": {
          "coding": [
            {
              "code": "5778-6",
              "system": "http://loinc.org",
              "display": "Color of Urine"
            }
          ],
          "text": "Color of Urine"
        },
        "text": {
          "status": "generated",
          "div": "<div xmlns=\"http://www.w3.org/1999/xhtml\"><table class=\"hl7__eu__lab__report\"><tr><th>Test</th><th>29-Sep-2015</th><th>Reference&#xA0;Range</th><th>Unit</th></tr><tr><td>Color of Urine</td></tr></table></div>"
        },
        "status": "final",
        "subject": {
          "reference": "urn:uuid:b5f6f9b1-6ff7-456c-a73f-441f00eb7177",
          "display": "Meaghan Neary"
        },
        "effectiveDateTime": "2015-09-28T22:11:04Z",
        "specimen": {
          "reference": "urn:uuid:dad50368-6055-4553-a9be-56a95c78d66d"
        }
      }
    },
    {
      "fullUrl": "urn:uuid:0efe665c-848e-4a35-9e4c-753ad9503e78",
      "resource": {
        "resourceType": "Observation",
        "id": "0efe665c-848e-4a35-9e4c-753ad9503e78",
        "meta": {
          "profile": [
            "http://hl7.eu/fhir/laboratory/StructureDefinition/Observation-resultslab-eu-lab"
          ]
        },
        "performer": [
          {
            "display": "The Central European Lab"
          }
        ],
        "category": [
          {
            "coding": [
              {
                "system": "http://terminology.hl7.org/CodeSystem/observation-category",
                "code": "laboratory"
              }
            ]
          }
        ],
        "code": {
          "coding": [
            {
              "code": "5792-7",
              "system": "http://loinc.org",
              "display": "Glucose [Mass/volume] in Urine by Test strip"
            }
          ],
          "text": "Glucose [Mass/volume] in Urine by Test strip"
        },
        "valueQuantity": {
          "system": "http://unitsofmeasure.org",
          "value": 2.1,
          "unit": "mg/dL",
          "code": "mg/dL"
        },
        "referenceRange": [
          {
            "low": {
              "value": 0.8,
              "code": "mg/dL",
              "system": "http://unitsofmeasure.org"
            }
          },
          {
            "high": {
              "value": 0,
              "code": "mg/dL",
              "system": "http://unitsofmeasure.org"
            }
          }
        ],
        "interpretation": [
          {
            "coding": [
              {
                "code": "H",
                "system": "http://terminology.hl7.org/CodeSystem/v3-ObservationInterpretation",
                "display": "High"
              }
            ]
          }
        ],
        "text": {
          "status": "generated",
          "div": "<div xmlns=\"http://www.w3.org/1999/xhtml\"><table class=\"hl7__eu__lab__report\"><tr><th>Test</th><th>29-Sep-2015</th><th>Reference&#xA0;Range</th><th>Unit</th></tr><tr><td>Glucose [Mass/volume] in Urine by Test strip</td><td>2.1</td><td>0.8 - 0</td><td>H</td><td>mg/dL</td></tr></table></div>"
        },
        "status": "final",
        "subject": {
          "reference": "urn:uuid:b5f6f9b1-6ff7-456c-a73f-441f00eb7177",
          "display": "Meaghan Neary"
        },
        "effectiveDateTime": "2015-09-28T22:11:04Z",
        "specimen": {
          "reference": "urn:uuid:dad50368-6055-4553-a9be-56a95c78d66d"
        }
      }
    },
    {
      "fullUrl": "urn:uuid:9e368d2a-a0f3-47e4-a3df-83a31ad7029c",
      "resource": {
        "resourceType": "Observation",
        "id": "9e368d2a-a0f3-47e4-a3df-83a31ad7029c",
        "meta": {
          "profile": [
            "http://hl7.eu/fhir/laboratory/StructureDefinition/Observation-resultslab-eu-lab"
          ]
        },
        "performer": [
          {
            "display": "The Central European Lab"
          }
        ],
        "category": [
          {
            "coding": [
              {
                "system": "http://terminology.hl7.org/CodeSystem/observation-category",
                "code": "laboratory"
              }
            ]
          }
        ],
        "code": {
          "coding": [
            {
              "code": "25428-4",
              "system": "http://loinc.org",
              "display": "Glucose [Presence] in Urine by Test strip"
            }
          ],
          "text": "Glucose [Presence] in Urine by Test strip"
        },
        "text": {
          "status": "generated",
          "div": "<div xmlns=\"http://www.w3.org/1999/xhtml\"><table class=\"hl7__eu__lab__report\"><tr><th>Test</th><th>29-Sep-2015</th><th>Reference&#xA0;Range</th><th>Unit</th></tr><tr><td>Glucose [Presence] in Urine by Test strip</td></tr></table></div>"
        },
        "status": "final",
        "subject": {
          "reference": "urn:uuid:b5f6f9b1-6ff7-456c-a73f-441f00eb7177",
          "display": "Meaghan Neary"
        },
        "effectiveDateTime": "2015-09-28T22:11:04Z",
        "specimen": {
          "reference": "urn:uuid:dad50368-6055-4553-a9be-56a95c78d66d"
        }
      }
    },
    {
      "fullUrl": "urn:uuid:fe467b1c-2769-4a62-8bd6-a8f45c0f7ade",
      "resource": {
        "resourceType": "Observation",
        "id": "fe467b1c-2769-4a62-8bd6-a8f45c0f7ade",
        "meta": {
          "profile": [
            "http://hl7.eu/fhir/laboratory/StructureDefinition/Observation-resultslab-eu-lab"
          ]
        },
        "performer": [
          {
            "display": "The Central European Lab"
          }
        ],
        "category": [
          {
            "coding": [
              {
                "system": "http://terminology.hl7.org/CodeSystem/observation-category",
                "code": "laboratory"
              }
            ]
          }
        ],
        "code": {
          "coding": [
            {
              "code": "20505-4",
              "system": "http://loinc.org",
              "display": "Bilirubin.total [Mass/volume] in Urine by Test strip"
            }
          ],
          "text": "Bilirubin.total [Mass/volume] in Urine by Test strip"
        },
        "valueQuantity": {
          "system": "http://unitsofmeasure.org",
          "value": 0.8,
          "unit": "mg/dL",
          "code": "mg/dL"
        },
        "referenceRange": [
          {
            "low": {
              "value": 0,
              "code": "mg/dL",
              "system": "http://unitsofmeasure.org"
            }
          },
          {
            "high": {
              "value": 1,
              "code": "mg/dL",
              "system": "http://unitsofmeasure.org"
            }
          }
        ],
        "text": {
          "status": "generated",
          "div": "<div xmlns=\"http://www.w3.org/1999/xhtml\"><table class=\"hl7__eu__lab__report\"><tr><th>Test</th><th>29-Sep-2015</th><th>Reference&#xA0;Range</th><th>Unit</th></tr><tr><td>Bilirubin.total [Mass/volume] in Urine by Test strip</td><td>0.8</td><td>0 - 1</td><td></td><td>mg/dL</td></tr></table></div>"
        },
        "status": "final",
        "subject": {
          "reference": "urn:uuid:b5f6f9b1-6ff7-456c-a73f-441f00eb7177",
          "display": "Meaghan Neary"
        },
        "effectiveDateTime": "2015-09-28T22:11:04Z",
        "specimen": {
          "reference": "urn:uuid:dad50368-6055-4553-a9be-56a95c78d66d"
        }
      }
    },
    {
      "fullUrl": "urn:uuid:5a700e3b-d3df-4890-aea6-70dfa8e3826a",
      "resource": {
        "resourceType": "Observation",
        "id": "5a700e3b-d3df-4890-aea6-70dfa8e3826a",
        "meta": {
          "profile": [
            "http://hl7.eu/fhir/laboratory/StructureDefinition/Observation-resultslab-eu-lab"
          ]
        },
        "performer": [
          {
            "display": "The Central European Lab"
          }
        ],
        "category": [
          {
            "coding": [
              {
                "system": "http://terminology.hl7.org/CodeSystem/observation-category",
                "code": "laboratory"
              }
            ]
          }
        ],
        "code": {
          "coding": [
            {
              "code": "5770-3",
              "system": "http://loinc.org",
              "display": "Bilirubin.total [Presence] in Urine by Test strip"
            }
          ],
          "text": "Bilirubin.total [Presence] in Urine by Test strip"
        },
        "text": {
          "status": "generated",
          "div": "<div xmlns=\"http://www.w3.org/1999/xhtml\"><table class=\"hl7__eu__lab__report\"><tr><th>Test</th><th>29-Sep-2015</th><th>Reference&#xA0;Range</th><th>Unit</th></tr><tr><td>Bilirubin.total [Presence] in Urine by Test strip</td></tr></table></div>"
        },
        "status": "final",
        "subject": {
          "reference": "urn:uuid:b5f6f9b1-6ff7-456c-a73f-441f00eb7177",
          "display": "Meaghan Neary"
        },
        "effectiveDateTime": "2015-09-28T22:11:04Z",
        "specimen": {
          "reference": "urn:uuid:dad50368-6055-4553-a9be-56a95c78d66d"
        }
      }
    },
    {
      "fullUrl": "urn:uuid:fec2628a-2110-4d39-af06-738ba61bbe9d",
      "resource": {
        "resourceType": "Observation",
        "id": "fec2628a-2110-4d39-af06-738ba61bbe9d",
        "meta": {
          "profile": [
            "http://hl7.eu/fhir/laboratory/StructureDefinition/Observation-resultslab-eu-lab"
          ]
        },
        "performer": [
          {
            "display": "The Central European Lab"
          }
        ],
        "category": [
          {
            "coding": [
              {
                "system": "http://terminology.hl7.org/CodeSystem/observation-category",
                "code": "laboratory"
              }
            ]
          }
        ],
        "code": {
          "coding": [
            {
              "code": "5797-6",
              "system": "http://loinc.org",
              "display": "Ketones [Mass/volume] in Urine by Test strip"
            }
          ],
          "text": "Ketones [Mass/volume] in Urine by Test strip"
        },
        "valueQuantity": {
          "system": "http://unitsofmeasure.org",
          "value": 15.5,
          "unit": "mg/dL",
          "code": "mg/dL"
        },
        "referenceRange": [
          {
            "low": {
              "value": 0,
              "code": "mg/dL",
              "system": "http://unitsofmeasure.org"
            }
          },
          {
            "high": {
              "value": 4,
              "code": "mg/dL",
              "system": "http://unitsofmeasure.org"
            }
          }
        ],
        "interpretation": [
          {
            "coding": [
              {
                "code": "H",
                "system": "http://terminology.hl7.org/CodeSystem/v3-ObservationInterpretation",
                "display": "High"
              }
            ]
          }
        ],
        "text": {
          "status": "generated",
          "div": "<div xmlns=\"http://www.w3.org/1999/xhtml\"><table class=\"hl7__eu__lab__report\"><tr><th>Test</th><th>29-Sep-2015</th><th>Reference&#xA0;Range</th><th>Unit</th></tr><tr><td>Ketones [Mass/volume] in Urine by Test strip</td><td>15.5</td><td>0 - 4</td><td>H</td><td>mg/dL</td></tr></table></div>"
        },
        "status": "final",
        "subject": {
          "reference": "urn:uuid:b5f6f9b1-6ff7-456c-a73f-441f00eb7177",
          "display": "Meaghan Neary"
        },
        "effectiveDateTime": "2015-09-28T22:11:04Z",
        "specimen": {
          "reference": "urn:uuid:dad50368-6055-4553-a9be-56a95c78d66d"
        }
      }
    },
    {
      "fullUrl": "urn:uuid:0fde872c-21a2-409f-b7da-3813bf8e0bdf",
      "resource": {
        "resourceType": "Observation",
        "id": "0fde872c-21a2-409f-b7da-3813bf8e0bdf",
        "meta": {
          "profile": [
            "http://hl7.eu/fhir/laboratory/StructureDefinition/Observation-resultslab-eu-lab"
          ]
        },
        "performer": [
          {
            "display": "The Central European Lab"
          }
        ],
        "category": [
          {
            "coding": [
              {
                "system": "http://terminology.hl7.org/CodeSystem/observation-category",
                "code": "laboratory"
              }
            ]
          }
        ],
        "code": {
          "coding": [
            {
              "code": "2514-8",
              "system": "http://loinc.org",
              "display": "Ketones [Presence] in Urine by Test strip"
            }
          ],
          "text": "Ketones [Presence] in Urine by Test strip"
        },
        "text": {
          "status": "generated",
          "div": "<div xmlns=\"http://www.w3.org/1999/xhtml\"><table class=\"hl7__eu__lab__report\"><tr><th>Test</th><th>29-Sep-2015</th><th>Reference&#xA0;Range</th><th>Unit</th></tr><tr><td>Ketones [Presence] in Urine by Test strip</td></tr></table></div>"
        },
        "status": "final",
        "subject": {
          "reference": "urn:uuid:b5f6f9b1-6ff7-456c-a73f-441f00eb7177",
          "display": "Meaghan Neary"
        },
        "effectiveDateTime": "2015-09-28T22:11:04Z",
        "specimen": {
          "reference": "urn:uuid:dad50368-6055-4553-a9be-56a95c78d66d"
        }
      }
    },
    {
      "fullUrl": "urn:uuid:ac3998ec-8740-4b36-a0d7-f1602c446ce9",
      "resource": {
        "resourceType": "Observation",
        "id": "ac3998ec-8740-4b36-a0d7-f1602c446ce9",
        "meta": {
          "profile": [
            "http://hl7.eu/fhir/laboratory/StructureDefinition/Observation-resultslab-eu-lab"
          ]
        },
        "performer": [
          {
            "display": "The Central European Lab"
          }
        ],
        "category": [
          {
            "coding": [
              {
                "system": "http://terminology.hl7.org/CodeSystem/observation-category",
                "code": "laboratory"
              }
            ]
          }
        ],
        "code": {
          "coding": [
            {
              "code": "5811-5",
              "system": "http://loinc.org",
              "display": "Specific gravity of Urine by Test strip"
            }
          ],
          "text": "Specific gravity of Urine by Test strip"
        },
        "valueQuantity": {
          "system": "http://unitsofmeasure.org",
          "value": 1,
          "unit": "{nominal}",
          "code": "{nominal}"
        },
        "referenceRange": [
          {
            "low": {
              "value": 1.005,
              "code": "g/mL",
              "system": "http://unitsofmeasure.org"
            }
          },
          {
            "high": {
              "value": 1.03,
              "code": "g/mL",
              "system": "http://unitsofmeasure.org"
            }
          }
        ],
        "interpretation": [
          {
            "coding": [
              {
                "code": "L",
                "system": "http://terminology.hl7.org/CodeSystem/v3-ObservationInterpretation",
                "display": "Low"
              }
            ]
          }
        ],
        "text": {
          "status": "generated",
          "div": "<div xmlns=\"http://www.w3.org/1999/xhtml\"><table class=\"hl7__eu__lab__report\"><tr><th>Test</th><th>29-Sep-2015</th><th>Reference&#xA0;Range</th><th>Unit</th></tr><tr><td>Specific gravity of Urine by Test strip</td><td>1.0</td><td>1.005 - 1.03</td><td>L</td><td>{nominal}</td></tr></table></div>"
        },
        "status": "final",
        "subject": {
          "reference": "urn:uuid:b5f6f9b1-6ff7-456c-a73f-441f00eb7177",
          "display": "Meaghan Neary"
        },
        "effectiveDateTime": "2015-09-28T22:11:04Z",
        "specimen": {
          "reference": "urn:uuid:dad50368-6055-4553-a9be-56a95c78d66d"
        }
      }
    },
    {
      "fullUrl": "urn:uuid:c3139047-759e-4fb9-97b8-8d013913aacd",
      "resource": {
        "resourceType": "Observation",
        "id": "c3139047-759e-4fb9-97b8-8d013913aacd",
        "meta": {
          "profile": [
            "http://hl7.eu/fhir/laboratory/StructureDefinition/Observation-resultslab-eu-lab"
          ]
        },
        "performer": [
          {
            "display": "The Central European Lab"
          }
        ],
        "category": [
          {
            "coding": [
              {
                "system": "http://terminology.hl7.org/CodeSystem/observation-category",
                "code": "laboratory"
              }
            ]
          }
        ],
        "code": {
          "coding": [
            {
              "code": "5803-2",
              "system": "http://loinc.org",
              "display": "pH of Urine by Test strip"
            }
          ],
          "text": "pH of Urine by Test strip"
        },
        "valueQuantity": {
          "system": "http://unitsofmeasure.org",
          "value": 5.6,
          "unit": "pH",
          "code": "pH"
        },
        "referenceRange": [
          {
            "low": {
              "value": 4.6,
              "code": "pH",
              "system": "http://unitsofmeasure.org"
            }
          },
          {
            "high": {
              "value": 7,
              "code": "pH",
              "system": "http://unitsofmeasure.org"
            }
          }
        ],
        "text": {
          "status": "generated",
          "div": "<div xmlns=\"http://www.w3.org/1999/xhtml\"><table class=\"hl7__eu__lab__report\"><tr><th>Test</th><th>29-Sep-2015</th><th>Reference&#xA0;Range</th><th>Unit</th></tr><tr><td>pH of Urine by Test strip</td><td>5.6</td><td>4.6 - 7</td><td></td><td>pH</td></tr></table></div>"
        },
        "status": "final",
        "subject": {
          "reference": "urn:uuid:b5f6f9b1-6ff7-456c-a73f-441f00eb7177",
          "display": "Meaghan Neary"
        },
        "effectiveDateTime": "2015-09-28T22:11:04Z",
        "specimen": {
          "reference": "urn:uuid:dad50368-6055-4553-a9be-56a95c78d66d"
        }
      }
    },
    {
      "fullUrl": "urn:uuid:cedaad2f-a31b-40f7-a470-0f4c0e9e59f0",
      "resource": {
        "resourceType": "Observation",
        "id": "cedaad2f-a31b-40f7-a470-0f4c0e9e59f0",
        "meta": {
          "profile": [
            "http://hl7.eu/fhir/laboratory/StructureDefinition/Observation-resultslab-eu-lab"
          ]
        },
        "performer": [
          {
            "display": "The Central European Lab"
          }
        ],
        "category": [
          {
            "coding": [
              {
                "system": "http://terminology.hl7.org/CodeSystem/observation-category",
                "code": "laboratory"
              }
            ]
          }
        ],
        "code": {
          "coding": [
            {
              "code": "5804-0",
              "system": "http://loinc.org",
              "display": "Protein [Mass/volume] in Urine by Test strip"
            }
          ],
          "text": "Protein [Mass/volume] in Urine by Test strip"
        },
        "valueQuantity": {
          "system": "http://unitsofmeasure.org",
          "value": 278.6,
          "unit": "mg/dL",
          "code": "mg/dL"
        },
        "referenceRange": [
          {
            "low": {
              "value": 0,
              "code": "mg/dL",
              "system": "http://unitsofmeasure.org"
            }
          },
          {
            "high": {
              "value": 14,
              "code": "mg/dL",
              "system": "http://unitsofmeasure.org"
            }
          }
        ],
        "interpretation": [
          {
            "coding": [
              {
                "code": "H",
                "system": "http://terminology.hl7.org/CodeSystem/v3-ObservationInterpretation",
                "display": "High"
              }
            ]
          }
        ],
        "text": {
          "status": "generated",
          "div": "<div xmlns=\"http://www.w3.org/1999/xhtml\"><table class=\"hl7__eu__lab__report\"><tr><th>Test</th><th>29-Sep-2015</th><th>Reference&#xA0;Range</th><th>Unit</th></tr><tr><td>Protein [Mass/volume] in Urine by Test strip</td><td>278.6</td><td>0 - 14</td><td>H</td><td>mg/dL</td></tr></table></div>"
        },
        "status": "final",
        "subject": {
          "reference": "urn:uuid:b5f6f9b1-6ff7-456c-a73f-441f00eb7177",
          "display": "Meaghan Neary"
        },
        "effectiveDateTime": "2015-09-28T22:11:04Z",
        "specimen": {
          "reference": "urn:uuid:dad50368-6055-4553-a9be-56a95c78d66d"
        }
      }
    },
    {
      "fullUrl": "urn:uuid:300b51c3-b8a2-4a76-ab4b-b386dbe3d0fd",
      "resource": {
        "resourceType": "Observation",
        "id": "300b51c3-b8a2-4a76-ab4b-b386dbe3d0fd",
        "meta": {
          "profile": [
            "http://hl7.eu/fhir/laboratory/StructureDefinition/Observation-resultslab-eu-lab"
          ]
        },
        "performer": [
          {
            "display": "The Central European Lab"
          }
        ],
        "category": [
          {
            "coding": [
              {
                "system": "http://terminology.hl7.org/CodeSystem/observation-category",
                "code": "laboratory"
              }
            ]
          }
        ],
        "code": {
          "coding": [
            {
              "code": "20454-5",
              "system": "http://loinc.org",
              "display": "Protein [Presence] in Urine by Test strip"
            }
          ],
          "text": "Protein [Presence] in Urine by Test strip"
        },
        "text": {
          "status": "generated",
          "div": "<div xmlns=\"http://www.w3.org/1999/xhtml\"><table class=\"hl7__eu__lab__report\"><tr><th>Test</th><th>29-Sep-2015</th><th>Reference&#xA0;Range</th><th>Unit</th></tr><tr><td>Protein [Presence] in Urine by Test strip</td></tr></table></div>"
        },
        "status": "final",
        "subject": {
          "reference": "urn:uuid:b5f6f9b1-6ff7-456c-a73f-441f00eb7177",
          "display": "Meaghan Neary"
        },
        "effectiveDateTime": "2015-09-28T22:11:04Z",
        "specimen": {
          "reference": "urn:uuid:dad50368-6055-4553-a9be-56a95c78d66d"
        }
      }
    },
    {
      "fullUrl": "urn:uuid:b9238fb6-b8d0-49ca-b07b-f770074a4211",
      "resource": {
        "resourceType": "Observation",
        "id": "b9238fb6-b8d0-49ca-b07b-f770074a4211",
        "meta": {
          "profile": [
            "http://hl7.eu/fhir/laboratory/StructureDefinition/Observation-resultslab-eu-lab"
          ]
        },
        "performer": [
          {
            "display": "The Central European Lab"
          }
        ],
        "category": [
          {
            "coding": [
              {
                "system": "http://terminology.hl7.org/CodeSystem/observation-category",
                "code": "laboratory"
              }
            ]
          }
        ],
        "code": {
          "coding": [
            {
              "code": "5802-4",
              "system": "http://loinc.org",
              "display": "Nitrite [Presence] in Urine by Test strip"
            }
          ],
          "text": "Nitrite [Presence] in Urine by Test strip"
        },
        "text": {
          "status": "generated",
          "div": "<div xmlns=\"http://www.w3.org/1999/xhtml\"><table class=\"hl7__eu__lab__report\"><tr><th>Test</th><th>29-Sep-2015</th><th>Reference&#xA0;Range</th><th>Unit</th></tr><tr><td>Nitrite [Presence] in Urine by Test strip</td></tr></table></div>"
        },
        "status": "final",
        "subject": {
          "reference": "urn:uuid:b5f6f9b1-6ff7-456c-a73f-441f00eb7177",
          "display": "Meaghan Neary"
        },
        "effectiveDateTime": "2015-09-28T22:11:04Z",
        "specimen": {
          "reference": "urn:uuid:dad50368-6055-4553-a9be-56a95c78d66d"
        }
      }
    },
    {
      "fullUrl": "urn:uuid:60ea0881-6feb-4f87-ba94-1c574eb5141a",
      "resource": {
        "resourceType": "Observation",
        "id": "60ea0881-6feb-4f87-ba94-1c574eb5141a",
        "meta": {
          "profile": [
            "http://hl7.eu/fhir/laboratory/StructureDefinition/Observation-resultslab-eu-lab"
          ]
        },
        "performer": [
          {
            "display": "The Central European Lab"
          }
        ],
        "category": [
          {
            "coding": [
              {
                "system": "http://terminology.hl7.org/CodeSystem/observation-category",
                "code": "laboratory"
              }
            ]
          }
        ],
        "code": {
          "coding": [
            {
              "code": "5794-3",
              "system": "http://loinc.org",
              "display": "Hemoglobin [Presence] in Urine by Test strip"
            }
          ],
          "text": "Hemoglobin [Presence] in Urine by Test strip"
        },
        "text": {
          "status": "generated",
          "div": "<div xmlns=\"http://www.w3.org/1999/xhtml\"><table class=\"hl7__eu__lab__report\"><tr><th>Test</th><th>29-Sep-2015</th><th>Reference&#xA0;Range</th><th>Unit</th></tr><tr><td>Hemoglobin [Presence] in Urine by Test strip</td></tr></table></div>"
        },
        "status": "final",
        "subject": {
          "reference": "urn:uuid:b5f6f9b1-6ff7-456c-a73f-441f00eb7177",
          "display": "Meaghan Neary"
        },
        "effectiveDateTime": "2015-09-28T22:11:04Z",
        "specimen": {
          "reference": "urn:uuid:dad50368-6055-4553-a9be-56a95c78d66d"
        }
      }
    },
    {
      "fullUrl": "urn:uuid:6f27ca04-b7d3-4223-a3ac-48ed3e90dc6b",
      "resource": {
        "resourceType": "Observation",
        "id": "6f27ca04-b7d3-4223-a3ac-48ed3e90dc6b",
        "meta": {
          "profile": [
            "http://hl7.eu/fhir/laboratory/StructureDefinition/Observation-resultslab-eu-lab"
          ]
        },
        "performer": [
          {
            "display": "The Central European Lab"
          }
        ],
        "category": [
          {
            "coding": [
              {
                "system": "http://terminology.hl7.org/CodeSystem/observation-category",
                "code": "laboratory"
              }
            ]
          }
        ],
        "code": {
          "coding": [
            {
              "code": "5799-2",
              "system": "http://loinc.org",
              "display": "Leukocyte esterase [Presence] in Urine by Test strip"
            }
          ],
          "text": "Leukocyte esterase [Presence] in Urine by Test strip"
        },
        "text": {
          "status": "generated",
          "div": "<div xmlns=\"http://www.w3.org/1999/xhtml\"><table class=\"hl7__eu__lab__report\"><tr><th>Test</th><th>29-Sep-2015</th><th>Reference&#xA0;Range</th><th>Unit</th></tr><tr><td>Leukocyte esterase [Presence] in Urine by Test strip</td></tr></table></div>"
        },
        "status": "final",
        "subject": {
          "reference": "urn:uuid:b5f6f9b1-6ff7-456c-a73f-441f00eb7177",
          "display": "Meaghan Neary"
        },
        "effectiveDateTime": "2015-09-28T22:11:04Z",
        "specimen": {
          "reference": "urn:uuid:dad50368-6055-4553-a9be-56a95c78d66d"
        }
      }
    },
    {
      "fullUrl": "urn:uuid:7ea4378b-a692-4799-b9a4-c60d94f8cbd3",
      "resource": {
        "resourceType": "Observation",
        "id": "7ea4378b-a692-4799-b9a4-c60d94f8cbd3",
        "meta": {
          "profile": [
            "http://hl7.eu/fhir/laboratory/StructureDefinition/Observation-resultslab-eu-lab"
          ]
        },
        "performer": [
          {
            "display": "The Central European Lab"
          }
        ],
        "category": [
          {
            "coding": [
              {
                "system": "http://terminology.hl7.org/CodeSystem/observation-category",
                "code": "laboratory"
              }
            ]
          }
        ],
        "code": {
          "coding": [
            {
              "code": "4548-4",
              "system": "http://loinc.org",
              "display": "Hemoglobin A1c/Hemoglobin.total in Blood"
            }
          ],
          "text": "Hemoglobin A1c/Hemoglobin.total in Blood"
        },
        "valueQuantity": {
          "system": "http://unitsofmeasure.org",
          "value": 3.3,
          "unit": "%",
          "code": "%"
        },
        "referenceRange": [
          {
            "low": {
              "value": 4,
              "code": "%",
              "system": "http://unitsofmeasure.org"
            }
          },
          {
            "high": {
              "value": 6.4,
              "code": "%",
              "system": "http://unitsofmeasure.org"
            }
          }
        ],
        "interpretation": [
          {
            "coding": [
              {
                "code": "L",
                "system": "http://terminology.hl7.org/CodeSystem/v3-ObservationInterpretation",
                "display": "Low"
              }
            ]
          }
        ],
        "text": {
          "status": "generated",
          "div": "<div xmlns=\"http://www.w3.org/1999/xhtml\"><table class=\"hl7__eu__lab__report\"><tr><th>Test</th><th>29-Sep-2015</th><th>Reference&#xA0;Range</th><th>Unit</th></tr><tr><td>Hemoglobin A1c/Hemoglobin.total in Blood</td><td>3.3</td><td>4 - 6.4</td><td>L</td><td>%</td></tr></table></div>"
        },
        "status": "final",
        "subject": {
          "reference": "urn:uuid:b5f6f9b1-6ff7-456c-a73f-441f00eb7177",
          "display": "Meaghan Neary"
        },
        "effectiveDateTime": "2015-09-28T22:11:04Z",
        "specimen": {
          "reference": "urn:uuid:3b60cddc-f858-48a4-9b73-004a8022b107"
        }
      }
    },
    {
      "fullUrl": "urn:uuid:0ba23dd6-26e8-49b1-a931-6fccccc2cd4e",
      "resource": {
        "resourceType": "Observation",
        "id": "0ba23dd6-26e8-49b1-a931-6fccccc2cd4e",
        "meta": {
          "profile": [
            "http://hl7.eu/fhir/laboratory/StructureDefinition/Observation-resultslab-eu-lab"
          ]
        },
        "performer": [
          {
            "display": "The Central European Lab"
          }
        ],
        "category": [
          {
            "coding": [
              {
                "system": "http://terminology.hl7.org/CodeSystem/observation-category",
                "code": "laboratory"
              }
            ]
          }
        ],
        "code": {
          "coding": [
            {
              "code": "2339-0",
              "system": "http://loinc.org",
              "display": "Glucose [Mass/volume] in Blood"
            }
          ],
          "text": "Glucose [Mass/volume] in Blood"
        },
        "valueQuantity": {
          "system": "http://unitsofmeasure.org",
          "value": 81.9,
          "unit": "mg/dL",
          "code": "mg/dL"
        },
        "referenceRange": [
          {
            "low": {
              "value": 70,
              "code": "mg/dL",
              "system": "http://unitsofmeasure.org"
            }
          },
          {
            "high": {
              "value": 100,
              "code": "mg/dL",
              "system": "http://unitsofmeasure.org"
            }
          }
        ],
        "text": {
          "status": "generated",
          "div": "<div xmlns=\"http://www.w3.org/1999/xhtml\"><table class=\"hl7__eu__lab__report\"><tr><th>Test</th><th>29-Sep-2015</th><th>Reference&#xA0;Range</th><th>Unit</th></tr><tr><td>Glucose [Mass/volume] in Blood</td><td>81.9</td><td>70 - 100</td><td></td><td>mg/dL</td></tr></table></div>"
        },
        "status": "final",
        "subject": {
          "reference": "urn:uuid:b5f6f9b1-6ff7-456c-a73f-441f00eb7177",
          "display": "Meaghan Neary"
        },
        "effectiveDateTime": "2015-09-28T22:11:04Z",
        "specimen": {
          "reference": "urn:uuid:3b60cddc-f858-48a4-9b73-004a8022b107"
        }
      }
    },
    {
      "fullUrl": "urn:uuid:ff05abf3-9abe-4be5-9dba-28459f44514a",
      "resource": {
        "resourceType": "Observation",
        "id": "ff05abf3-9abe-4be5-9dba-28459f44514a",
        "meta": {
          "profile": [
            "http://hl7.eu/fhir/laboratory/StructureDefinition/Observation-resultslab-eu-lab"
          ]
        },
        "performer": [
          {
            "display": "The Central European Lab"
          }
        ],
        "category": [
          {
            "coding": [
              {
                "system": "http://terminology.hl7.org/CodeSystem/observation-category",
                "code": "laboratory"
              }
            ]
          }
        ],
        "code": {
          "coding": [
            {
              "code": "6299-2",
              "system": "http://loinc.org",
              "display": "Urea nitrogen [Mass/volume] in Blood"
            }
          ],
          "text": "Urea nitrogen [Mass/volume] in Blood"
        },
        "valueQuantity": {
          "system": "http://unitsofmeasure.org",
          "value": 9.9,
          "unit": "mg/dL",
          "code": "mg/dL"
        },
        "referenceRange": [
          {
            "low": {
              "value": 7,
              "code": "mg/dL",
              "system": "http://unitsofmeasure.org"
            }
          },
          {
            "high": {
              "value": 43,
              "code": "mg/dL",
              "system": "http://unitsofmeasure.org"
            }
          }
        ],
        "text": {
          "status": "generated",
          "div": "<div xmlns=\"http://www.w3.org/1999/xhtml\"><table class=\"hl7__eu__lab__report\"><tr><th>Test</th><th>29-Sep-2015</th><th>Reference&#xA0;Range</th><th>Unit</th></tr><tr><td>Urea nitrogen [Mass/volume] in Blood</td><td>9.9</td><td>7 - 43</td><td></td><td>mg/dL</td></tr></table></div>"
        },
        "status": "final",
        "subject": {
          "reference": "urn:uuid:b5f6f9b1-6ff7-456c-a73f-441f00eb7177",
          "display": "Meaghan Neary"
        },
        "effectiveDateTime": "2015-09-28T22:11:04Z",
        "specimen": {
          "reference": "urn:uuid:3b60cddc-f858-48a4-9b73-004a8022b107"
        }
      }
    },
    {
      "fullUrl": "urn:uuid:9e36f373-0051-44cc-a0c8-78ae1fbfd21d",
      "resource": {
        "resourceType": "Observation",
        "id": "9e36f373-0051-44cc-a0c8-78ae1fbfd21d",
        "meta": {
          "profile": [
            "http://hl7.eu/fhir/laboratory/StructureDefinition/Observation-resultslab-eu-lab"
          ]
        },
        "performer": [
          {
            "display": "The Central European Lab"
          }
        ],
        "category": [
          {
            "coding": [
              {
                "system": "http://terminology.hl7.org/CodeSystem/observation-category",
                "code": "laboratory"
              }
            ]
          }
        ],
        "code": {
          "coding": [
            {
              "code": "38483-4",
              "system": "http://loinc.org",
              "display": "Creatinine [Mass/volume] in Blood"
            }
          ],
          "text": "Creatinine [Mass/volume] in Blood"
        },
        "valueQuantity": {
          "system": "http://unitsofmeasure.org",
          "value": 1.5,
          "unit": "mg/dL",
          "code": "mg/dL"
        },
        "referenceRange": [
          {
            "low": {
              "value": 0.6,
              "code": "mg/dL",
              "system": "http://unitsofmeasure.org"
            }
          },
          {
            "high": {
              "value": 1.1,
              "code": "mg/dL",
              "system": "http://unitsofmeasure.org"
            }
          }
        ],
        "interpretation": [
          {
            "coding": [
              {
                "code": "H",
                "system": "http://terminology.hl7.org/CodeSystem/v3-ObservationInterpretation",
                "display": "High"
              }
            ]
          }
        ],
        "text": {
          "status": "generated",
          "div": "<div xmlns=\"http://www.w3.org/1999/xhtml\"><table class=\"hl7__eu__lab__report\"><tr><th>Test</th><th>29-Sep-2015</th><th>Reference&#xA0;Range</th><th>Unit</th></tr><tr><td>Creatinine [Mass/volume] in Blood</td><td>1.5</td><td>0.6 - 1.1</td><td>H</td><td>mg/dL</td></tr></table></div>"
        },
        "status": "final",
        "subject": {
          "reference": "urn:uuid:b5f6f9b1-6ff7-456c-a73f-441f00eb7177",
          "display": "Meaghan Neary"
        },
        "effectiveDateTime": "2015-09-28T22:11:04Z",
        "specimen": {
          "reference": "urn:uuid:3b60cddc-f858-48a4-9b73-004a8022b107"
        }
      }
    },
    {
      "fullUrl": "urn:uuid:24463f89-07f4-439b-9e04-9dc411af67d0",
      "resource": {
        "resourceType": "Observation",
        "id": "24463f89-07f4-439b-9e04-9dc411af67d0",
        "meta": {
          "profile": [
            "http://hl7.eu/fhir/laboratory/StructureDefinition/Observation-resultslab-eu-lab"
          ]
        },
        "performer": [
          {
            "display": "The Central European Lab"
          }
        ],
        "category": [
          {
            "coding": [
              {
                "system": "http://terminology.hl7.org/CodeSystem/observation-category",
                "code": "laboratory"
              }
            ]
          }
        ],
        "code": {
          "coding": [
            {
              "code": "49765-1",
              "system": "http://loinc.org",
              "display": "Calcium [Mass/volume] in Blood"
            }
          ],
          "text": "Calcium [Mass/volume] in Blood"
        },
        "valueQuantity": {
          "system": "http://unitsofmeasure.org",
          "value": 9.4,
          "unit": "mg/dL",
          "code": "mg/dL"
        },
        "referenceRange": [
          {
            "low": {
              "value": 8.5,
              "code": "mg/dL",
              "system": "http://unitsofmeasure.org"
            }
          },
          {
            "high": {
              "value": 10.5,
              "code": "mg/dL",
              "system": "http://unitsofmeasure.org"
            }
          }
        ],
        "text": {
          "status": "generated",
          "div": "<div xmlns=\"http://www.w3.org/1999/xhtml\"><table class=\"hl7__eu__lab__report\"><tr><th>Test</th><th>29-Sep-2015</th><th>Reference&#xA0;Range</th><th>Unit</th></tr><tr><td>Calcium [Mass/volume] in Blood</td><td>9.4</td><td>8.5 - 10.5</td><td></td><td>mg/dL</td></tr></table></div>"
        },
        "status": "final",
        "subject": {
          "reference": "urn:uuid:b5f6f9b1-6ff7-456c-a73f-441f00eb7177",
          "display": "Meaghan Neary"
        },
        "effectiveDateTime": "2015-09-28T22:11:04Z",
        "specimen": {
          "reference": "urn:uuid:3b60cddc-f858-48a4-9b73-004a8022b107"
        }
      }
    },
    {
      "fullUrl": "urn:uuid:bab12a07-787b-4448-98ec-d63cf9890c9e",
      "resource": {
        "resourceType": "Observation",
        "id": "bab12a07-787b-4448-98ec-d63cf9890c9e",
        "meta": {
          "profile": [
            "http://hl7.eu/fhir/laboratory/StructureDefinition/Observation-resultslab-eu-lab"
          ]
        },
        "performer": [
          {
            "display": "The Central European Lab"
          }
        ],
        "category": [
          {
            "coding": [
              {
                "system": "http://terminology.hl7.org/CodeSystem/observation-category",
                "code": "laboratory"
              }
            ]
          }
        ],
        "code": {
          "coding": [
            {
              "code": "2947-0",
              "system": "http://loinc.org",
              "display": "Sodium [Moles/volume] in Blood"
            }
          ],
          "text": "Sodium [Moles/volume] in Blood"
        },
        "valueQuantity": {
          "system": "http://unitsofmeasure.org",
          "value": 143,
          "unit": "mmol/L",
          "code": "mmol/L"
        },
        "referenceRange": [
          {
            "low": {
              "value": 135,
              "code": "mmol/L",
              "system": "http://unitsofmeasure.org"
            }
          },
          {
            "high": {
              "value": 145,
              "code": "mmol/L",
              "system": "http://unitsofmeasure.org"
            }
          }
        ],
        "text": {
          "status": "generated",
          "div": "<div xmlns=\"http://www.w3.org/1999/xhtml\"><table class=\"hl7__eu__lab__report\"><tr><th>Test</th><th>29-Sep-2015</th><th>Reference&#xA0;Range</th><th>Unit</th></tr><tr><td>Sodium [Moles/volume] in Blood</td><td>143.0</td><td>135 - 145</td><td></td><td>mmol/L</td></tr></table></div>"
        },
        "status": "final",
        "subject": {
          "reference": "urn:uuid:b5f6f9b1-6ff7-456c-a73f-441f00eb7177",
          "display": "Meaghan Neary"
        },
        "effectiveDateTime": "2015-09-28T22:11:04Z",
        "specimen": {
          "reference": "urn:uuid:3b60cddc-f858-48a4-9b73-004a8022b107"
        }
      }
    },
    {
      "fullUrl": "urn:uuid:52b37326-f5e7-403f-80df-f112522b91e6",
      "resource": {
        "resourceType": "Observation",
        "id": "52b37326-f5e7-403f-80df-f112522b91e6",
        "meta": {
          "profile": [
            "http://hl7.eu/fhir/laboratory/StructureDefinition/Observation-resultslab-eu-lab"
          ]
        },
        "performer": [
          {
            "display": "The Central European Lab"
          }
        ],
        "category": [
          {
            "coding": [
              {
                "system": "http://terminology.hl7.org/CodeSystem/observation-category",
                "code": "laboratory"
              }
            ]
          }
        ],
        "code": {
          "coding": [
            {
              "code": "6298-4",
              "system": "http://loinc.org",
              "display": "Potassium [Moles/volume] in Blood"
            }
          ],
          "text": "Potassium [Moles/volume] in Blood"
        },
        "valueQuantity": {
          "system": "http://unitsofmeasure.org",
          "value": 4.4,
          "unit": "mmol/L",
          "code": "mmol/L"
        },
        "referenceRange": [
          {
            "low": {
              "value": 3.5,
              "code": "mmol/L",
              "system": "http://unitsofmeasure.org"
            }
          },
          {
            "high": {
              "value": 5.1,
              "code": "mmol/L",
              "system": "http://unitsofmeasure.org"
            }
          }
        ],
        "text": {
          "status": "generated",
          "div": "<div xmlns=\"http://www.w3.org/1999/xhtml\"><table class=\"hl7__eu__lab__report\"><tr><th>Test</th><th>29-Sep-2015</th><th>Reference&#xA0;Range</th><th>Unit</th></tr><tr><td>Potassium [Moles/volume] in Blood</td><td>4.4</td><td>3.5 - 5.1</td><td></td><td>mmol/L</td></tr></table></div>"
        },
        "status": "final",
        "subject": {
          "reference": "urn:uuid:b5f6f9b1-6ff7-456c-a73f-441f00eb7177",
          "display": "Meaghan Neary"
        },
        "effectiveDateTime": "2015-09-28T22:11:04Z",
        "specimen": {
          "reference": "urn:uuid:3b60cddc-f858-48a4-9b73-004a8022b107"
        }
      }
    },
    {
      "fullUrl": "urn:uuid:26d31912-f515-4ac7-8ab2-d99235564370",
      "resource": {
        "resourceType": "Observation",
        "id": "26d31912-f515-4ac7-8ab2-d99235564370",
        "meta": {
          "profile": [
            "http://hl7.eu/fhir/laboratory/StructureDefinition/Observation-resultslab-eu-lab"
          ]
        },
        "performer": [
          {
            "display": "The Central European Lab"
          }
        ],
        "category": [
          {
            "coding": [
              {
                "system": "http://terminology.hl7.org/CodeSystem/observation-category",
                "code": "laboratory"
              }
            ]
          }
        ],
        "code": {
          "coding": [
            {
              "code": "2069-3",
              "system": "http://loinc.org",
              "display": "Chloride [Moles/volume] in Blood"
            }
          ],
          "text": "Chloride [Moles/volume] in Blood"
        },
        "valueQuantity": {
          "system": "http://unitsofmeasure.org",
          "value": 103.5,
          "unit": "mmol/L",
          "code": "mmol/L"
        },
        "referenceRange": [
          {
            "low": {
              "value": 98,
              "code": "mmol/L",
              "system": "http://unitsofmeasure.org"
            }
          },
          {
            "high": {
              "value": 108,
              "code": "mmol/L",
              "system": "http://unitsofmeasure.org"
            }
          }
        ],
        "text": {
          "status": "generated",
          "div": "<div xmlns=\"http://www.w3.org/1999/xhtml\"><table class=\"hl7__eu__lab__report\"><tr><th>Test</th><th>29-Sep-2015</th><th>Reference&#xA0;Range</th><th>Unit</th></tr><tr><td>Chloride [Moles/volume] in Blood</td><td>103.5</td><td>98 - 108</td><td></td><td>mmol/L</td></tr></table></div>"
        },
        "status": "final",
        "subject": {
          "reference": "urn:uuid:b5f6f9b1-6ff7-456c-a73f-441f00eb7177",
          "display": "Meaghan Neary"
        },
        "effectiveDateTime": "2015-09-28T22:11:04Z",
        "specimen": {
          "reference": "urn:uuid:3b60cddc-f858-48a4-9b73-004a8022b107"
        }
      }
    },
    {
      "fullUrl": "urn:uuid:01724d44-f457-4464-b69b-823abaddb9c7",
      "resource": {
        "resourceType": "Observation",
        "id": "01724d44-f457-4464-b69b-823abaddb9c7",
        "meta": {
          "profile": [
            "http://hl7.eu/fhir/laboratory/StructureDefinition/Observation-resultslab-eu-lab"
          ]
        },
        "performer": [
          {
            "display": "The Central European Lab"
          }
        ],
        "category": [
          {
            "coding": [
              {
                "system": "http://terminology.hl7.org/CodeSystem/observation-category",
                "code": "laboratory"
              }
            ]
          }
        ],
        "code": {
          "coding": [
            {
              "code": "20565-8",
              "system": "http://loinc.org",
              "display": "Carbon dioxide, total [Moles/volume] in Blood"
            }
          ],
          "text": "Carbon dioxide, total [Moles/volume] in Blood"
        },
        "valueQuantity": {
          "system": "http://unitsofmeasure.org",
          "value": 25.3,
          "unit": "mmol/L",
          "code": "mmol/L"
        },
        "referenceRange": [
          {
            "low": {
              "value": 22,
              "code": "mmol/L",
              "system": "http://unitsofmeasure.org"
            }
          },
          {
            "high": {
              "value": 29,
              "code": "mmol/L",
              "system": "http://unitsofmeasure.org"
            }
          }
        ],
        "text": {
          "status": "generated",
          "div": "<div xmlns=\"http://www.w3.org/1999/xhtml\"><table class=\"hl7__eu__lab__report\"><tr><th>Test</th><th>29-Sep-2015</th><th>Reference&#xA0;Range</th><th>Unit</th></tr><tr><td>Carbon dioxide, total [Moles/volume] in Blood</td><td>25.3</td><td>22 - 29</td><td></td><td>mmol/L</td></tr></table></div>"
        },
        "status": "final",
        "subject": {
          "reference": "urn:uuid:b5f6f9b1-6ff7-456c-a73f-441f00eb7177",
          "display": "Meaghan Neary"
        },
        "effectiveDateTime": "2015-09-28T22:11:04Z",
        "specimen": {
          "reference": "urn:uuid:3b60cddc-f858-48a4-9b73-004a8022b107"
        }
      }
    },
    {
      "fullUrl": "urn:uuid:fbac14f7-7da0-4802-9d69-b1ee862b80b9",
      "resource": {
        "resourceType": "Device",
        "id": "fbac14f7-7da0-4802-9d69-b1ee862b80b9",
        "deviceName": [
          {
            "name": "SYNDERAI Synthetic Generator",
            "type": "manufacturer-name"
          }
        ],
        "version": [
          {
            "value": "5.0"
          }
        ],
        "text": {
          "status": "generated",
          "div": "<div xmlns=\"http://www.w3.org/1999/xhtml\">SYNDERAI Synthetic Generator v5.0</div>"
        },
        "status": "active\"",
        "distinctIdentifier": "synderai-generator-50",
        "manufacturer": "SYNDERAI Project"
      }
    },
    {
      "fullUrl": "urn:uuid:85be689d-5265-4ec7-808f-457cabc008bc",
      "resource": {
        "resourceType": "Provenance",
        "id": "85be689d-5265-4ec7-808f-457cabc008bc",
        "target": [
          {
            "reference": "Patient/b5f6f9b1-6ff7-456c-a73f-441f00eb7177"
          },
          {
            "reference": "Bundle/0fe95f29-1d4d-4f50-b80d-9437b3125fe1"
          },
          {
            "reference": "Composition/7631e7a2-aae2-4d9c-8303-1cba8305aec7"
          },
          {
            "reference": "PractitionerRole/fb662ec0-2176-42dc-9092-cce5fc93690a"
          },
          {
            "reference": "Practitioner/d9163e35-e8a4-40d5-aad3-b505fb3f58e0"
          },
          {
            "reference": "PractitionerRole/5cfe68a8-781f-4d3e-a934-ab6f0d03c24d"
          },
          {
            "reference": "Organization/ff3bbaf3-89c0-4882-bb9f-337012bd5165"
          }
        ],
        "activity": {
          "text": "Synthetic Example Data Generation"
        },
        "policy": [
          "https://synderai.net/synderai-synthetic-data-policy"
        ],
        "agent": [
          {
            "type": {
              "text": "author"
            },
            "who": {
              "reference": "Device/fbac14f7-7da0-4802-9d69-b1ee862b80b9"
            }
          }
        ],
        "reason": [
          {
            "text": "Interoperability Testing and Training (non-clinical use)"
          }
        ],
        "text": {
          "status": "generated",
          "div": "<div xmlns=\"http://www.w3.org/1999/xhtml\">Provenance for SYNDERAI Synthetic Example Data Resource</div>"
        },
        "recorded": "2015-09-29T00:11:04Z"
      }
    },
    {
      "fullUrl": "urn:uuid:fb662ec0-2176-42dc-9092-cce5fc93690a",
      "resource": {
        "resourceType": "PractitionerRole",
        "id": "fb662ec0-2176-42dc-9092-cce5fc93690a",
        "meta": {
          "profile": [
            "http://hl7.eu/fhir/base/StructureDefinition/practitionerRole-eu"
          ]
        },
        "text": {
          "status": "generated",
          "div": "<div xmlns=\"http://www.w3.org/1999/xhtml\">Laboratory Role Id: fb662ec0-2176-42dc-9092-cce5fc93690a</div>"
        },
        "practitioner": {
          "reference": "urn:uuid:d9163e35-e8a4-40d5-aad3-b505fb3f58e0"
        }
      }
    },
    {
      "fullUrl": "urn:uuid:d9163e35-e8a4-40d5-aad3-b505fb3f58e0",
      "resource": {
        "resourceType": "Practitioner",
        "id": "d9163e35-e8a4-40d5-aad3-b505fb3f58e0",
        "meta": {
          "profile": [
            "http://hl7.eu/fhir/base/StructureDefinition/practitioner-eu"
          ]
        },
        "identifier": [
          {
            "assigner": {
              "display": "HL7 Europe"
            },
            "system": "urn:oid:2.16.840.1.113883.2.51.999",
            "value": "d988c667-5666-4bd6-871f-b97959e033d3"
          }
        ],
        "name": [
          {
            "prefix": [
              "dr"
            ],
            "given": [
              "Ex"
            ],
            "family": "Ample"
          }
        ],
        "address": [
          {
            "line": [
              "Laboratoire Central Européenne",
              "Boulevard du Jardin Botanique 32"
            ],
            "postalCode": "1000",
            "city": "Brussels",
            "country": "Belgium"
          }
        ],
        "text": {
          "status": "generated",
          "div": "<div xmlns=\"http://www.w3.org/1999/xhtml\">Laboratory: Laboratoire Central Européenne, 1000 Brussels, Belgium</div>"
        }
      }
    }
  ],
  "type": "document",
  "timestamp": "2015-09-29T00:11:04Z"
}
