{
  "resourceType": "Bundle",
  "id": "b72e9c77-ee8d-40b7-8daa-83340634d0b8",
  "meta": {
    "profile": [
      "http://hl7.eu/fhir/laboratory/StructureDefinition/Bundle-eu-lab"
    ]
  },
  "identifier": {
    "assigner": {
      "display": "HL7 Europe"
    },
    "system": "urn:oid:2.16.840.1.113883.2.51.999",
    "value": "09b92841-0f13-4a13-bd84-9be6b46db728"
  },
  "entry": [
    {
      "fullUrl": "urn:uuid:002b791c-20f1-4436-81f5-f1f4faf84721",
      "resource": {
        "resourceType": "Composition",
        "id": "002b791c-20f1-4436-81f5-f1f4faf84721",
        "meta": {
          "profile": [
            "http://hl7.eu/fhir/laboratory/StructureDefinition/Composition-eu-lab"
          ]
        },
        "identifier": {
          "assigner": {
            "display": "HL7 Europe"
          },
          "system": "urn:oid:2.16.840.1.113883.2.51.999",
          "value": "1416cb03-d9ab-4d1b-80da-7cecf21f059c"
        },
        "author": [
          {
            "reference": "urn:uuid:a13ce66e-3878-4ecf-9770-041909c33709"
          }
        ],
        "category": [
          {
            "coding": [
              {
                "code": "26436-6",
                "system": "http://loinc.org",
                "display": "Laboratory studies (set)"
              }
            ]
          }
        ],
        "type": {
          "coding": [
            {
              "code": "11502-2",
              "system": "http://loinc.org",
              "display": "Laboratory report"
            }
          ],
          "text": "Laboratory Report"
        },
        "section": [
          {
            "code": {
              "coding": [
                {
                  "code": "26436-6",
                  "system": "http://loinc.org",
                  "display": "Laboratory studies (set)"
                }
              ],
              "text": "Laboratory studies"
            },
            "section": [
              {
                "code": {
                  "coding": [
                    {
                      "code": "$18719-5",
                      "system": "http://loinc.org",
                      "display": "Chemistry studies (set)"
                    }
                  ],
                  "text": "Chemistry"
                },
                "entry": [
                  {
                    "reference": "urn:uuid:4975ae4f-d2c6-47c6-9021-f741fb390fd9"
                  },
                  {
                    "reference": "urn:uuid:cadb4fab-9b94-4abf-8162-819485712bfe"
                  },
                  {
                    "reference": "urn:uuid:b04a0032-1f0d-4a75-bcd4-e174f28225bf"
                  },
                  {
                    "reference": "urn:uuid:a6ec8e39-4cf5-425a-b76b-e88dff0912cb"
                  },
                  {
                    "reference": "urn:uuid:625b7432-22fe-425f-98b1-5ea416dbe2bb"
                  },
                  {
                    "reference": "urn:uuid:c3a0f56d-23a2-4ecc-a4a2-e0e51084a0c0"
                  },
                  {
                    "reference": "urn:uuid:0861cb19-ec27-46ba-8660-217ae8e9ed93"
                  },
                  {
                    "reference": "urn:uuid:5da5b3aa-264f-41dd-8729-1de479668759"
                  },
                  {
                    "reference": "urn:uuid:3fd00b03-3408-4260-8253-decbd28485dc"
                  }
                ],
                "text": {
                  "status": "generated",
                  "div": "<div xmlns=\"http://www.w3.org/1999/xhtml\"><h3>Chemistry</h3><table class=\"hl7__eu__lab__report\"><thead><tr><th>Test</th><th>26-OCT-2023</th><th>Reference&#xA0;Range</th><th>Unit</th></tr></thead><tbody><tr><td>Hemoglobin A1c/Hemoglobin.total in Blood</td><td><strong>6.2 H</strong></td><td>4 - 6</td><td>%</td></tr><tr><td>Glucose [Mass/volume] in Blood</td><td><strong>65.8 L</strong></td><td>70 - 140</td><td>mg/dL</td></tr><tr><td>Urea nitrogen [Mass/volume] in Blood</td><td>9.3</td><td>7 - 25</td><td>mg/dL</td></tr><tr><td>Creatinine [Mass/volume] in Blood</td><td>0.7</td><td>0.6 - 1.1</td><td>mg/dL</td></tr><tr><td>Calcium [Mass/volume] in Blood</td><td>10.0</td><td>8.5 - 10.4</td><td>mg/dL</td></tr><tr><td>Sodium [Moles/volume] in Blood</td><td>136.3</td><td>135 - 145</td><td>mmol/L</td></tr><tr><td>Potassium [Moles/volume] in Blood</td><td>4.1</td><td>3.5 - 5.1</td><td>mmol/L</td></tr><tr><td>Chloride [Moles/volume] in Blood</td><td>105.3</td><td>98 - 108</td><td>mmol/L</td></tr><tr><td>Carbon dioxide, total [Moles/volume] in Blood</td><td>27.5</td><td>22 - 29</td><td>mmol/L</td></tr></tbody></table></div>"
                },
                "title": "Chemistry"
              }
            ],
            "title": "Laboratory Report"
          },
          {
            "text": {
              "status": "generated",
              "div": "<div xmlns=\"http://www.w3.org/1999/xhtml\"><h3>Annotation</h3><table class=\"hl7__eu__lab__report\"><tr><th>Conclusion and Recommendations based on this report and previous findings known to us</th></tr><tr><td>The patient shows mildly elevated HbA1c, indicating suboptimal long-term glycemic control, despite a low fasting glucose, which may suggest recent hypoglycemia or overtreatment. Renal function, electrolytes, and calcium are within normal limits. Recommend review of diabetes management and monitoring for hypoglycemic episodes.</td></tr></table></div>"
            },
            "code": {
              "coding": [
                {
                  "system": "http://loinc.org",
                  "code": "48767-8",
                  "display": "Annotation comment"
                }
              ]
            },
            "title": "Annotation comment"
          }
        ],
        "status": "final",
        "subject": {
          "reference": "urn:uuid:9e7d0c0b-e565-4cbc-a4c5-f826049506bf",
          "display": "Vincenza Porzio"
        },
        "date": "2023-10-26T20:51:27Z",
        "title": "Laboratory Report",
        "confidentiality": "N"
      }
    },
    {
      "fullUrl": "urn:uuid:74dca434-3217-49ad-bf7a-f02daa50cd9d",
      "resource": {
        "resourceType": "DiagnosticReport",
        "id": "74dca434-3217-49ad-bf7a-f02daa50cd9d",
        "meta": {
          "profile": [
            "http://hl7.eu/fhir/laboratory/StructureDefinition/DiagnosticReport-eu-lab"
          ]
        },
        "identifier": [
          {
            "assigner": {
              "display": "HL7 Europe"
            },
            "system": "urn:oid:2.16.840.1.113883.2.51.999",
            "value": "d0c15520-d431-436b-874e-38d134b002a3"
          }
        ],
        "extension": [
          {
            "url": "http://hl7.org/fhir/5.0/StructureDefinition/extension-DiagnosticReport.composition",
            "valueReference": {
              "reference": "urn:uuid:1416cb03-d9ab-4d1b-80da-7cecf21f059c"
            }
          }
        ],
        "category": [
          {
            "coding": [
              {
                "code": "26436-6",
                "system": "http://loinc.org",
                "display": "Laboratory studies (set)"
              }
            ]
          }
        ],
        "specimen": [
          {
            "reference": "urn:uuid:7db79516-fdc6-4e2a-98f6-bdf716f2c573"
          }
        ],
        "result": [
          {
            "reference": "urn:uuid:4975ae4f-d2c6-47c6-9021-f741fb390fd9"
          },
          {
            "reference": "urn:uuid:cadb4fab-9b94-4abf-8162-819485712bfe"
          },
          {
            "reference": "urn:uuid:b04a0032-1f0d-4a75-bcd4-e174f28225bf"
          },
          {
            "reference": "urn:uuid:a6ec8e39-4cf5-425a-b76b-e88dff0912cb"
          },
          {
            "reference": "urn:uuid:625b7432-22fe-425f-98b1-5ea416dbe2bb"
          },
          {
            "reference": "urn:uuid:c3a0f56d-23a2-4ecc-a4a2-e0e51084a0c0"
          },
          {
            "reference": "urn:uuid:0861cb19-ec27-46ba-8660-217ae8e9ed93"
          },
          {
            "reference": "urn:uuid:5da5b3aa-264f-41dd-8729-1de479668759"
          },
          {
            "reference": "urn:uuid:3fd00b03-3408-4260-8253-decbd28485dc"
          }
        ],
        "status": "registered",
        "code": {
          "coding": [
            {
              "code": "11502-2",
              "system": "http://loinc.org",
              "display": "Laboratory report"
            }
          ]
        },
        "subject": {
          "reference": "urn:uuid:9e7d0c0b-e565-4cbc-a4c5-f826049506bf",
          "display": "Vincenza Porzio"
        }
      }
    },
    {
      "fullUrl": "urn:uuid:9e7d0c0b-e565-4cbc-a4c5-f826049506bf",
      "resource": {
        "resourceType": "Patient",
        "id": "9e7d0c0b-e565-4cbc-a4c5-f826049506bf",
        "meta": {
          "security": [
            {
              "system": "http://terminology.hl7.org/CodeSystem/v3-ActReason",
              "code": "HTEST"
            },
            {
              "system": "http://terminology.hl7.org/CodeSystem/v3-ActReason",
              "code": "TRAIN"
            }
          ],
          "tag": [
            {
              "system": "https://synderai.net/fhir/CodeSystem/tags",
              "code": "synthetic",
              "display": "SYNDERAI Synthetic data"
            }
          ],
          "profile": [
            "http://hl7.eu/fhir/base/StructureDefinition/patient-eu-core"
          ]
        },
        "identifier": [
          {
            "type": {
              "coding": [
                {
                  "code": "PT",
                  "system": "http://terminology.hl7.org/CodeSystem/v2-0203"
                }
              ]
            },
            "system": "http://ec.europa.eu/identifier/eci",
            "value": "9988-341158-1"
          },
          {
            "type": {
              "coding": [
                {
                  "code": "MR",
                  "system": "http://terminology.hl7.org/CodeSystem/v2-0203"
                }
              ]
            },
            "system": "http://local.setting.eu/identifier",
            "value": "559a1acd-87c3-5b56-0345-4eaff6c5aa0a"
          }
        ],
        "name": [
          {
            "family": "Porzio"
          },
          {
            "given": [
              "Vincenza"
            ]
          },
          {
            "text": "Vincenza Porzio"
          }
        ],
        "address": [
          {
            "line": [
              "Piazza Allegra, 720"
            ],
            "use": "home",
            "type": "physical",
            "postalCode": "36040",
            "city": "Grumolo Pedemonte",
            "country": "Italy"
          }
        ],
        "telecom": [
          {
            "system": "phone",
            "value": "041007473"
          }
        ],
        "extension": [
          {
            "url": "http://hl7.org/fhir/StructureDefinition/patient-nationality",
            "valueCodeableConcept": {
              "coding": [
                {
                  "code": "IT",
                  "system": "http://hl7.org/fhir/ValueSet/country"
                }
              ]
            }
          }
        ],
        "text": {
          "status": "generated",
          "div": "<div xmlns=\"http://www.w3.org/1999/xhtml\"><table class=\"hl7__ips\"><tr><td>Vincenza Porzio</td><td>female</td><td>13-Sep-1965</td></tr></table></div>"
        },
        "gender": "female",
        "birthDate": "1965-09-13"
      }
    },
    {
      "fullUrl": "urn:uuid:3de00dbd-2fb0-42ed-8693-cc62917b9e34",
      "resource": {
        "resourceType": "ServiceRequest",
        "id": "3de00dbd-2fb0-42ed-8693-cc62917b9e34",
        "meta": {
          "profile": [
            "http://hl7.eu/fhir/laboratory/StructureDefinition/ServiceRequest-eu-lab"
          ]
        },
        "identifier": [
          {
            "system": "http://example.org",
            "value": "3d8838fc-a912-40ca-b8a6-1a916f9b1579"
          }
        ],
        "specimen": [
          {
            "reference": "urn:uuid:7db79516-fdc6-4e2a-98f6-bdf716f2c573"
          }
        ],
        "reasonCode": [
          {
            "coding": [
              {
                "code": "40055000",
                "system": "http://snomed.info/sct",
                "display": "Chronic sinusitis"
              }
            ]
          },
          {
            "coding": [
              {
                "code": "15777000",
                "system": "http://snomed.info/sct",
                "display": "Prediabetes"
              }
            ]
          },
          {
            "coding": [
              {
                "code": "239873007",
                "system": "http://snomed.info/sct",
                "display": "Osteoarthritis of knee"
              }
            ]
          },
          {
            "coding": [
              {
                "code": "6525002",
                "system": "http://snomed.info/sct",
                "display": "Dependent drug abuse"
              }
            ]
          },
          {
            "coding": [
              {
                "code": "196416002",
                "system": "http://snomed.info/sct",
                "display": "Impacted molars"
              }
            ]
          },
          {
            "coding": [
              {
                "code": "124171000119105",
                "system": "http://snomed.info/sct",
                "display": "Chronic intractable migraine without aura"
              }
            ]
          }
        ],
        "status": "active",
        "intent": "order",
        "code": {
          "coding": [
            {
              "code": "108252007",
              "system": "http://snomed.info/sct",
              "display": "Laboratory procedure"
            }
          ]
        },
        "subject": {
          "reference": "urn:uuid:9e7d0c0b-e565-4cbc-a4c5-f826049506bf",
          "display": "Vincenza Porzio"
        },
        "requester": {
          "reference": "urn:uuid:3f0efc5e-fe7f-48fd-acb4-e8504dec7831"
        }
      }
    },
    {
      "fullUrl": "urn:uuid:3f0efc5e-fe7f-48fd-acb4-e8504dec7831",
      "resource": {
        "resourceType": "PractitionerRole",
        "id": "3f0efc5e-fe7f-48fd-acb4-e8504dec7831",
        "meta": {
          "profile": [
            "http://hl7.eu/fhir/base/StructureDefinition/practitionerRole-eu"
          ]
        },
        "text": {
          "status": "generated",
          "div": "<div xmlns=\"http://www.w3.org/1999/xhtml\">Provider Role Id: 3f0efc5e-fe7f-48fd-acb4-e8504dec7831</div>"
        },
        "organization": {
          "reference": "urn:uuid:c1881cd6-7077-480d-91ac-36da30731b96"
        }
      }
    },
    {
      "fullUrl": "urn:uuid:c1881cd6-7077-480d-91ac-36da30731b96",
      "resource": {
        "resourceType": "Organization",
        "id": "c1881cd6-7077-480d-91ac-36da30731b96",
        "meta": {
          "profile": [
            "http://hl7.eu/fhir/base/StructureDefinition/organization-eu"
          ]
        },
        "identifier": [
          {
            "assigner": {
              "display": "HL7 Europe"
            },
            "system": "urn:oid:2.16.840.1.113883.2.51.999",
            "value": "eb91f991-4ca7-4b53-b62c-368c2f02c93d"
          }
        ],
        "address": [
          {
            "country": "Italy"
          }
        ],
        "text": {
          "status": "generated",
          "div": "<div xmlns=\"http://www.w3.org/1999/xhtml\">Provider Organization: Villa Margherita</div>"
        },
        "name": "Villa Margherita"
      }
    },
    {
      "fullUrl": "urn:uuid:7db79516-fdc6-4e2a-98f6-bdf716f2c573",
      "resource": {
        "resourceType": "Specimen",
        "id": "7db79516-fdc6-4e2a-98f6-bdf716f2c573",
        "meta": {
          "profile": [
            "http://hl7.eu/fhir/laboratory/StructureDefinition/Specimen-eu-lab"
          ]
        },
        "collection": {
          "collectedDateTime": "2023-10-26"
        },
        "text": {
          "status": "generated",
          "div": "<div xmlns=\"http://www.w3.org/1999/xhtml\"><table class=\"hl7__eu__lab__report\"><tr><th>Specimen</th><th>Collection Date</th></tr><tr><td>Whole blood specimen (specimen)</td><td><span class=\"nb\">26-Oct-2023</span></td></tr></table></div>"
        },
        "type": {
          "coding": [
            {
              "code": "258580003",
              "system": "http://snomed.info/sct",
              "display": "Whole blood specimen (specimen)"
            }
          ]
        }
      }
    },
    {
      "fullUrl": "urn:uuid:4975ae4f-d2c6-47c6-9021-f741fb390fd9",
      "resource": {
        "resourceType": "Observation",
        "id": "4975ae4f-d2c6-47c6-9021-f741fb390fd9",
        "meta": {
          "profile": [
            "http://hl7.eu/fhir/laboratory/StructureDefinition/Observation-resultslab-eu-lab"
          ]
        },
        "performer": [
          {
            "display": "The Central European Lab"
          }
        ],
        "category": [
          {
            "coding": [
              {
                "system": "http://terminology.hl7.org/CodeSystem/observation-category",
                "code": "laboratory"
              }
            ]
          }
        ],
        "code": {
          "coding": [
            {
              "code": "4548-4",
              "system": "http://loinc.org",
              "display": "Hemoglobin A1c/Hemoglobin.total in Blood"
            }
          ],
          "text": "Hemoglobin A1c/Hemoglobin.total in Blood"
        },
        "valueQuantity": {
          "system": "http://unitsofmeasure.org",
          "value": 6.2,
          "unit": "%",
          "code": "%"
        },
        "referenceRange": [
          {
            "low": {
              "value": 4,
              "code": "%",
              "system": "http://unitsofmeasure.org"
            }
          },
          {
            "high": {
              "value": 6,
              "code": "%",
              "system": "http://unitsofmeasure.org"
            }
          }
        ],
        "interpretation": [
          {
            "coding": [
              {
                "code": "H",
                "system": "http://terminology.hl7.org/CodeSystem/v3-ObservationInterpretation",
                "display": "High"
              }
            ]
          }
        ],
        "text": {
          "status": "generated",
          "div": "<div xmlns=\"http://www.w3.org/1999/xhtml\"><table class=\"hl7__eu__lab__report\"><tr><th>Test</th><th>26-Oct-2023</th><th>Reference&#xA0;Range</th><th>Unit</th></tr><tr><td>Hemoglobin A1c/Hemoglobin.total in Blood</td><td>6.2</td><td>4 - 6</td><td>H</td><td>%</td></tr></table></div>"
        },
        "status": "final",
        "subject": {
          "reference": "urn:uuid:9e7d0c0b-e565-4cbc-a4c5-f826049506bf",
          "display": "Vincenza Porzio"
        },
        "effectiveDateTime": "2023-10-26T18:51:27Z",
        "specimen": {
          "reference": "urn:uuid:7db79516-fdc6-4e2a-98f6-bdf716f2c573"
        }
      }
    },
    {
      "fullUrl": "urn:uuid:cadb4fab-9b94-4abf-8162-819485712bfe",
      "resource": {
        "resourceType": "Observation",
        "id": "cadb4fab-9b94-4abf-8162-819485712bfe",
        "meta": {
          "profile": [
            "http://hl7.eu/fhir/laboratory/StructureDefinition/Observation-resultslab-eu-lab"
          ]
        },
        "performer": [
          {
            "display": "The Central European Lab"
          }
        ],
        "category": [
          {
            "coding": [
              {
                "system": "http://terminology.hl7.org/CodeSystem/observation-category",
                "code": "laboratory"
              }
            ]
          }
        ],
        "code": {
          "coding": [
            {
              "code": "2339-0",
              "system": "http://loinc.org",
              "display": "Glucose [Mass/volume] in Blood"
            }
          ],
          "text": "Glucose [Mass/volume] in Blood"
        },
        "valueQuantity": {
          "system": "http://unitsofmeasure.org",
          "value": 65.8,
          "unit": "mg/dL",
          "code": "mg/dL"
        },
        "referenceRange": [
          {
            "low": {
              "value": 70,
              "code": "mg/dL",
              "system": "http://unitsofmeasure.org"
            }
          },
          {
            "high": {
              "value": 140,
              "code": "mg/dL",
              "system": "http://unitsofmeasure.org"
            }
          }
        ],
        "interpretation": [
          {
            "coding": [
              {
                "code": "L",
                "system": "http://terminology.hl7.org/CodeSystem/v3-ObservationInterpretation",
                "display": "Low"
              }
            ]
          }
        ],
        "text": {
          "status": "generated",
          "div": "<div xmlns=\"http://www.w3.org/1999/xhtml\"><table class=\"hl7__eu__lab__report\"><tr><th>Test</th><th>26-Oct-2023</th><th>Reference&#xA0;Range</th><th>Unit</th></tr><tr><td>Glucose [Mass/volume] in Blood</td><td>65.8</td><td>70 - 140</td><td>L</td><td>mg/dL</td></tr></table></div>"
        },
        "status": "final",
        "subject": {
          "reference": "urn:uuid:9e7d0c0b-e565-4cbc-a4c5-f826049506bf",
          "display": "Vincenza Porzio"
        },
        "effectiveDateTime": "2023-10-26T18:51:27Z",
        "specimen": {
          "reference": "urn:uuid:7db79516-fdc6-4e2a-98f6-bdf716f2c573"
        }
      }
    },
    {
      "fullUrl": "urn:uuid:b04a0032-1f0d-4a75-bcd4-e174f28225bf",
      "resource": {
        "resourceType": "Observation",
        "id": "b04a0032-1f0d-4a75-bcd4-e174f28225bf",
        "meta": {
          "profile": [
            "http://hl7.eu/fhir/laboratory/StructureDefinition/Observation-resultslab-eu-lab"
          ]
        },
        "performer": [
          {
            "display": "The Central European Lab"
          }
        ],
        "category": [
          {
            "coding": [
              {
                "system": "http://terminology.hl7.org/CodeSystem/observation-category",
                "code": "laboratory"
              }
            ]
          }
        ],
        "code": {
          "coding": [
            {
              "code": "6299-2",
              "system": "http://loinc.org",
              "display": "Urea nitrogen [Mass/volume] in Blood"
            }
          ],
          "text": "Urea nitrogen [Mass/volume] in Blood"
        },
        "valueQuantity": {
          "system": "http://unitsofmeasure.org",
          "value": 9.3,
          "unit": "mg/dL",
          "code": "mg/dL"
        },
        "referenceRange": [
          {
            "low": {
              "value": 7,
              "code": "mg/dL",
              "system": "http://unitsofmeasure.org"
            }
          },
          {
            "high": {
              "value": 25,
              "code": "mg/dL",
              "system": "http://unitsofmeasure.org"
            }
          }
        ],
        "text": {
          "status": "generated",
          "div": "<div xmlns=\"http://www.w3.org/1999/xhtml\"><table class=\"hl7__eu__lab__report\"><tr><th>Test</th><th>26-Oct-2023</th><th>Reference&#xA0;Range</th><th>Unit</th></tr><tr><td>Urea nitrogen [Mass/volume] in Blood</td><td>9.3</td><td>7 - 25</td><td></td><td>mg/dL</td></tr></table></div>"
        },
        "status": "final",
        "subject": {
          "reference": "urn:uuid:9e7d0c0b-e565-4cbc-a4c5-f826049506bf",
          "display": "Vincenza Porzio"
        },
        "effectiveDateTime": "2023-10-26T18:51:27Z",
        "specimen": {
          "reference": "urn:uuid:7db79516-fdc6-4e2a-98f6-bdf716f2c573"
        }
      }
    },
    {
      "fullUrl": "urn:uuid:a6ec8e39-4cf5-425a-b76b-e88dff0912cb",
      "resource": {
        "resourceType": "Observation",
        "id": "a6ec8e39-4cf5-425a-b76b-e88dff0912cb",
        "meta": {
          "profile": [
            "http://hl7.eu/fhir/laboratory/StructureDefinition/Observation-resultslab-eu-lab"
          ]
        },
        "performer": [
          {
            "display": "The Central European Lab"
          }
        ],
        "category": [
          {
            "coding": [
              {
                "system": "http://terminology.hl7.org/CodeSystem/observation-category",
                "code": "laboratory"
              }
            ]
          }
        ],
        "code": {
          "coding": [
            {
              "code": "38483-4",
              "system": "http://loinc.org",
              "display": "Creatinine [Mass/volume] in Blood"
            }
          ],
          "text": "Creatinine [Mass/volume] in Blood"
        },
        "valueQuantity": {
          "system": "http://unitsofmeasure.org",
          "value": 0.7,
          "unit": "mg/dL",
          "code": "mg/dL"
        },
        "referenceRange": [
          {
            "low": {
              "value": 0.6,
              "code": "mg/dL",
              "system": "http://unitsofmeasure.org"
            }
          },
          {
            "high": {
              "value": 1.1,
              "code": "mg/dL",
              "system": "http://unitsofmeasure.org"
            }
          }
        ],
        "text": {
          "status": "generated",
          "div": "<div xmlns=\"http://www.w3.org/1999/xhtml\"><table class=\"hl7__eu__lab__report\"><tr><th>Test</th><th>26-Oct-2023</th><th>Reference&#xA0;Range</th><th>Unit</th></tr><tr><td>Creatinine [Mass/volume] in Blood</td><td>0.7</td><td>0.6 - 1.1</td><td></td><td>mg/dL</td></tr></table></div>"
        },
        "status": "final",
        "subject": {
          "reference": "urn:uuid:9e7d0c0b-e565-4cbc-a4c5-f826049506bf",
          "display": "Vincenza Porzio"
        },
        "effectiveDateTime": "2023-10-26T18:51:27Z",
        "specimen": {
          "reference": "urn:uuid:7db79516-fdc6-4e2a-98f6-bdf716f2c573"
        }
      }
    },
    {
      "fullUrl": "urn:uuid:625b7432-22fe-425f-98b1-5ea416dbe2bb",
      "resource": {
        "resourceType": "Observation",
        "id": "625b7432-22fe-425f-98b1-5ea416dbe2bb",
        "meta": {
          "profile": [
            "http://hl7.eu/fhir/laboratory/StructureDefinition/Observation-resultslab-eu-lab"
          ]
        },
        "performer": [
          {
            "display": "The Central European Lab"
          }
        ],
        "category": [
          {
            "coding": [
              {
                "system": "http://terminology.hl7.org/CodeSystem/observation-category",
                "code": "laboratory"
              }
            ]
          }
        ],
        "code": {
          "coding": [
            {
              "code": "49765-1",
              "system": "http://loinc.org",
              "display": "Calcium [Mass/volume] in Blood"
            }
          ],
          "text": "Calcium [Mass/volume] in Blood"
        },
        "valueQuantity": {
          "system": "http://unitsofmeasure.org",
          "value": 10,
          "unit": "mg/dL",
          "code": "mg/dL"
        },
        "referenceRange": [
          {
            "low": {
              "value": 8.5,
              "code": "mg/dL",
              "system": "http://unitsofmeasure.org"
            }
          },
          {
            "high": {
              "value": 10.4,
              "code": "mg/dL",
              "system": "http://unitsofmeasure.org"
            }
          }
        ],
        "text": {
          "status": "generated",
          "div": "<div xmlns=\"http://www.w3.org/1999/xhtml\"><table class=\"hl7__eu__lab__report\"><tr><th>Test</th><th>26-Oct-2023</th><th>Reference&#xA0;Range</th><th>Unit</th></tr><tr><td>Calcium [Mass/volume] in Blood</td><td>10.0</td><td>8.5 - 10.4</td><td></td><td>mg/dL</td></tr></table></div>"
        },
        "status": "final",
        "subject": {
          "reference": "urn:uuid:9e7d0c0b-e565-4cbc-a4c5-f826049506bf",
          "display": "Vincenza Porzio"
        },
        "effectiveDateTime": "2023-10-26T18:51:27Z",
        "specimen": {
          "reference": "urn:uuid:7db79516-fdc6-4e2a-98f6-bdf716f2c573"
        }
      }
    },
    {
      "fullUrl": "urn:uuid:c3a0f56d-23a2-4ecc-a4a2-e0e51084a0c0",
      "resource": {
        "resourceType": "Observation",
        "id": "c3a0f56d-23a2-4ecc-a4a2-e0e51084a0c0",
        "meta": {
          "profile": [
            "http://hl7.eu/fhir/laboratory/StructureDefinition/Observation-resultslab-eu-lab"
          ]
        },
        "performer": [
          {
            "display": "The Central European Lab"
          }
        ],
        "category": [
          {
            "coding": [
              {
                "system": "http://terminology.hl7.org/CodeSystem/observation-category",
                "code": "laboratory"
              }
            ]
          }
        ],
        "code": {
          "coding": [
            {
              "code": "2947-0",
              "system": "http://loinc.org",
              "display": "Sodium [Moles/volume] in Blood"
            }
          ],
          "text": "Sodium [Moles/volume] in Blood"
        },
        "valueQuantity": {
          "system": "http://unitsofmeasure.org",
          "value": 136.3,
          "unit": "mmol/L",
          "code": "mmol/L"
        },
        "referenceRange": [
          {
            "low": {
              "value": 135,
              "code": "mmol/L",
              "system": "http://unitsofmeasure.org"
            }
          },
          {
            "high": {
              "value": 145,
              "code": "mmol/L",
              "system": "http://unitsofmeasure.org"
            }
          }
        ],
        "text": {
          "status": "generated",
          "div": "<div xmlns=\"http://www.w3.org/1999/xhtml\"><table class=\"hl7__eu__lab__report\"><tr><th>Test</th><th>26-Oct-2023</th><th>Reference&#xA0;Range</th><th>Unit</th></tr><tr><td>Sodium [Moles/volume] in Blood</td><td>136.3</td><td>135 - 145</td><td></td><td>mmol/L</td></tr></table></div>"
        },
        "status": "final",
        "subject": {
          "reference": "urn:uuid:9e7d0c0b-e565-4cbc-a4c5-f826049506bf",
          "display": "Vincenza Porzio"
        },
        "effectiveDateTime": "2023-10-26T18:51:27Z",
        "specimen": {
          "reference": "urn:uuid:7db79516-fdc6-4e2a-98f6-bdf716f2c573"
        }
      }
    },
    {
      "fullUrl": "urn:uuid:0861cb19-ec27-46ba-8660-217ae8e9ed93",
      "resource": {
        "resourceType": "Observation",
        "id": "0861cb19-ec27-46ba-8660-217ae8e9ed93",
        "meta": {
          "profile": [
            "http://hl7.eu/fhir/laboratory/StructureDefinition/Observation-resultslab-eu-lab"
          ]
        },
        "performer": [
          {
            "display": "The Central European Lab"
          }
        ],
        "category": [
          {
            "coding": [
              {
                "system": "http://terminology.hl7.org/CodeSystem/observation-category",
                "code": "laboratory"
              }
            ]
          }
        ],
        "code": {
          "coding": [
            {
              "code": "6298-4",
              "system": "http://loinc.org",
              "display": "Potassium [Moles/volume] in Blood"
            }
          ],
          "text": "Potassium [Moles/volume] in Blood"
        },
        "valueQuantity": {
          "system": "http://unitsofmeasure.org",
          "value": 4.1,
          "unit": "mmol/L",
          "code": "mmol/L"
        },
        "referenceRange": [
          {
            "low": {
              "value": 3.5,
              "code": "mmol/L",
              "system": "http://unitsofmeasure.org"
            }
          },
          {
            "high": {
              "value": 5.1,
              "code": "mmol/L",
              "system": "http://unitsofmeasure.org"
            }
          }
        ],
        "text": {
          "status": "generated",
          "div": "<div xmlns=\"http://www.w3.org/1999/xhtml\"><table class=\"hl7__eu__lab__report\"><tr><th>Test</th><th>26-Oct-2023</th><th>Reference&#xA0;Range</th><th>Unit</th></tr><tr><td>Potassium [Moles/volume] in Blood</td><td>4.1</td><td>3.5 - 5.1</td><td></td><td>mmol/L</td></tr></table></div>"
        },
        "status": "final",
        "subject": {
          "reference": "urn:uuid:9e7d0c0b-e565-4cbc-a4c5-f826049506bf",
          "display": "Vincenza Porzio"
        },
        "effectiveDateTime": "2023-10-26T18:51:27Z",
        "specimen": {
          "reference": "urn:uuid:7db79516-fdc6-4e2a-98f6-bdf716f2c573"
        }
      }
    },
    {
      "fullUrl": "urn:uuid:5da5b3aa-264f-41dd-8729-1de479668759",
      "resource": {
        "resourceType": "Observation",
        "id": "5da5b3aa-264f-41dd-8729-1de479668759",
        "meta": {
          "profile": [
            "http://hl7.eu/fhir/laboratory/StructureDefinition/Observation-resultslab-eu-lab"
          ]
        },
        "performer": [
          {
            "display": "The Central European Lab"
          }
        ],
        "category": [
          {
            "coding": [
              {
                "system": "http://terminology.hl7.org/CodeSystem/observation-category",
                "code": "laboratory"
              }
            ]
          }
        ],
        "code": {
          "coding": [
            {
              "code": "2069-3",
              "system": "http://loinc.org",
              "display": "Chloride [Moles/volume] in Blood"
            }
          ],
          "text": "Chloride [Moles/volume] in Blood"
        },
        "valueQuantity": {
          "system": "http://unitsofmeasure.org",
          "value": 105.3,
          "unit": "mmol/L",
          "code": "mmol/L"
        },
        "referenceRange": [
          {
            "low": {
              "value": 98,
              "code": "mmol/L",
              "system": "http://unitsofmeasure.org"
            }
          },
          {
            "high": {
              "value": 108,
              "code": "mmol/L",
              "system": "http://unitsofmeasure.org"
            }
          }
        ],
        "text": {
          "status": "generated",
          "div": "<div xmlns=\"http://www.w3.org/1999/xhtml\"><table class=\"hl7__eu__lab__report\"><tr><th>Test</th><th>26-Oct-2023</th><th>Reference&#xA0;Range</th><th>Unit</th></tr><tr><td>Chloride [Moles/volume] in Blood</td><td>105.3</td><td>98 - 108</td><td></td><td>mmol/L</td></tr></table></div>"
        },
        "status": "final",
        "subject": {
          "reference": "urn:uuid:9e7d0c0b-e565-4cbc-a4c5-f826049506bf",
          "display": "Vincenza Porzio"
        },
        "effectiveDateTime": "2023-10-26T18:51:27Z",
        "specimen": {
          "reference": "urn:uuid:7db79516-fdc6-4e2a-98f6-bdf716f2c573"
        }
      }
    },
    {
      "fullUrl": "urn:uuid:3fd00b03-3408-4260-8253-decbd28485dc",
      "resource": {
        "resourceType": "Observation",
        "id": "3fd00b03-3408-4260-8253-decbd28485dc",
        "meta": {
          "profile": [
            "http://hl7.eu/fhir/laboratory/StructureDefinition/Observation-resultslab-eu-lab"
          ]
        },
        "performer": [
          {
            "display": "The Central European Lab"
          }
        ],
        "category": [
          {
            "coding": [
              {
                "system": "http://terminology.hl7.org/CodeSystem/observation-category",
                "code": "laboratory"
              }
            ]
          }
        ],
        "code": {
          "coding": [
            {
              "code": "20565-8",
              "system": "http://loinc.org",
              "display": "Carbon dioxide, total [Moles/volume] in Blood"
            }
          ],
          "text": "Carbon dioxide, total [Moles/volume] in Blood"
        },
        "valueQuantity": {
          "system": "http://unitsofmeasure.org",
          "value": 27.5,
          "unit": "mmol/L",
          "code": "mmol/L"
        },
        "referenceRange": [
          {
            "low": {
              "value": 22,
              "code": "mmol/L",
              "system": "http://unitsofmeasure.org"
            }
          },
          {
            "high": {
              "value": 29,
              "code": "mmol/L",
              "system": "http://unitsofmeasure.org"
            }
          }
        ],
        "text": {
          "status": "generated",
          "div": "<div xmlns=\"http://www.w3.org/1999/xhtml\"><table class=\"hl7__eu__lab__report\"><tr><th>Test</th><th>26-Oct-2023</th><th>Reference&#xA0;Range</th><th>Unit</th></tr><tr><td>Carbon dioxide, total [Moles/volume] in Blood</td><td>27.5</td><td>22 - 29</td><td></td><td>mmol/L</td></tr></table></div>"
        },
        "status": "final",
        "subject": {
          "reference": "urn:uuid:9e7d0c0b-e565-4cbc-a4c5-f826049506bf",
          "display": "Vincenza Porzio"
        },
        "effectiveDateTime": "2023-10-26T18:51:27Z",
        "specimen": {
          "reference": "urn:uuid:7db79516-fdc6-4e2a-98f6-bdf716f2c573"
        }
      }
    },
    {
      "fullUrl": "urn:uuid:2efb1214-02ee-4ee0-958d-a3fb115c45b8",
      "resource": {
        "resourceType": "Device",
        "id": "2efb1214-02ee-4ee0-958d-a3fb115c45b8",
        "deviceName": [
          {
            "name": "SYNDERAI Synthetic Generator",
            "type": "manufacturer-name"
          }
        ],
        "version": [
          {
            "value": "5.0"
          }
        ],
        "text": {
          "status": "generated",
          "div": "<div xmlns=\"http://www.w3.org/1999/xhtml\">SYNDERAI Synthetic Generator v5.0</div>"
        },
        "status": "active\"",
        "distinctIdentifier": "synderai-generator-50",
        "manufacturer": "SYNDERAI Project"
      }
    },
    {
      "fullUrl": "urn:uuid:9784254e-4a8e-4c2f-8ca9-a7f211f22467",
      "resource": {
        "resourceType": "Provenance",
        "id": "9784254e-4a8e-4c2f-8ca9-a7f211f22467",
        "target": [
          {
            "reference": "Patient/9e7d0c0b-e565-4cbc-a4c5-f826049506bf"
          },
          {
            "reference": "Bundle/b72e9c77-ee8d-40b7-8daa-83340634d0b8"
          },
          {
            "reference": "Composition/002b791c-20f1-4436-81f5-f1f4faf84721"
          },
          {
            "reference": "PractitionerRole/a13ce66e-3878-4ecf-9770-041909c33709"
          },
          {
            "reference": "Practitioner/cff26ae1-20d6-41ba-89ed-2ea9891c195a"
          },
          {
            "reference": "PractitionerRole/3f0efc5e-fe7f-48fd-acb4-e8504dec7831"
          },
          {
            "reference": "Organization/c1881cd6-7077-480d-91ac-36da30731b96"
          }
        ],
        "activity": {
          "text": "Synthetic Example Data Generation"
        },
        "policy": [
          "https://synderai.net/synderai-synthetic-data-policy"
        ],
        "agent": [
          {
            "type": {
              "text": "author"
            },
            "who": {
              "reference": "Device/2efb1214-02ee-4ee0-958d-a3fb115c45b8"
            }
          }
        ],
        "reason": [
          {
            "text": "Interoperability Testing and Training (non-clinical use)"
          }
        ],
        "text": {
          "status": "generated",
          "div": "<div xmlns=\"http://www.w3.org/1999/xhtml\">Provenance for SYNDERAI Synthetic Example Data Resource</div>"
        },
        "recorded": "2023-10-26T20:51:27Z"
      }
    },
    {
      "fullUrl": "urn:uuid:a13ce66e-3878-4ecf-9770-041909c33709",
      "resource": {
        "resourceType": "PractitionerRole",
        "id": "a13ce66e-3878-4ecf-9770-041909c33709",
        "meta": {
          "profile": [
            "http://hl7.eu/fhir/base/StructureDefinition/practitionerRole-eu"
          ]
        },
        "text": {
          "status": "generated",
          "div": "<div xmlns=\"http://www.w3.org/1999/xhtml\">Laboratory Role Id: a13ce66e-3878-4ecf-9770-041909c33709</div>"
        },
        "practitioner": {
          "reference": "urn:uuid:cff26ae1-20d6-41ba-89ed-2ea9891c195a"
        }
      }
    },
    {
      "fullUrl": "urn:uuid:cff26ae1-20d6-41ba-89ed-2ea9891c195a",
      "resource": {
        "resourceType": "Practitioner",
        "id": "cff26ae1-20d6-41ba-89ed-2ea9891c195a",
        "meta": {
          "profile": [
            "http://hl7.eu/fhir/base/StructureDefinition/practitioner-eu"
          ]
        },
        "identifier": [
          {
            "assigner": {
              "display": "HL7 Europe"
            },
            "system": "urn:oid:2.16.840.1.113883.2.51.999",
            "value": "dd653c94-e11a-4942-ab23-401282bf1979"
          }
        ],
        "name": [
          {
            "prefix": [
              "dr"
            ],
            "given": [
              "Ex"
            ],
            "family": "Ample"
          }
        ],
        "address": [
          {
            "line": [
              "Laboratoire Central Européenne",
              "Boulevard du Jardin Botanique 32"
            ],
            "postalCode": "1000",
            "city": "Brussels",
            "country": "Belgium"
          }
        ],
        "text": {
          "status": "generated",
          "div": "<div xmlns=\"http://www.w3.org/1999/xhtml\">Laboratory: Laboratoire Central Européenne, 1000 Brussels, Belgium</div>"
        }
      }
    }
  ],
  "type": "document",
  "timestamp": "2023-10-26T20:51:27Z"
}
