{
  "resourceType": "Bundle",
  "id": "49a69904-0ccc-44aa-956b-8987f113e12b",
  "meta": {
    "profile": [
      "http://hl7.eu/fhir/laboratory/StructureDefinition/Bundle-eu-lab"
    ]
  },
  "identifier": {
    "assigner": {
      "display": "HL7 Europe"
    },
    "system": "urn:oid:2.16.840.1.113883.2.51.999",
    "value": "4bf5cc9b-36b2-4132-9034-7e81bd15ac2b"
  },
  "entry": [
    {
      "fullUrl": "urn:uuid:8594f259-892f-42f5-b4a1-8fceacc03e15",
      "resource": {
        "resourceType": "Composition",
        "id": "8594f259-892f-42f5-b4a1-8fceacc03e15",
        "meta": {
          "profile": [
            "http://hl7.eu/fhir/laboratory/StructureDefinition/Composition-eu-lab"
          ]
        },
        "identifier": {
          "assigner": {
            "display": "HL7 Europe"
          },
          "system": "urn:oid:2.16.840.1.113883.2.51.999",
          "value": "fc2c8dac-acc2-47e0-bae0-4d3f47bfa09c"
        },
        "author": [
          {
            "reference": "urn:uuid:78d7088d-0657-4d68-8053-01b68069348f"
          }
        ],
        "category": [
          {
            "coding": [
              {
                "code": "26436-6",
                "system": "http://loinc.org",
                "display": "Laboratory studies (set)"
              }
            ]
          }
        ],
        "type": {
          "coding": [
            {
              "code": "11502-2",
              "system": "http://loinc.org",
              "display": "Laboratory report"
            }
          ],
          "text": "Laboratory Report"
        },
        "section": [
          {
            "code": {
              "coding": [
                {
                  "code": "26436-6",
                  "system": "http://loinc.org",
                  "display": "Laboratory studies (set)"
                }
              ],
              "text": "Laboratory studies"
            },
            "section": [
              {
                "code": {
                  "coding": [
                    {
                      "code": "$18719-5",
                      "system": "http://loinc.org",
                      "display": "Chemistry studies (set)"
                    }
                  ],
                  "text": "Chemistry"
                },
                "entry": [
                  {
                    "reference": "urn:uuid:6ddd4cfe-c470-46a6-a9c8-1cbe14071f5b"
                  },
                  {
                    "reference": "urn:uuid:a9e64951-e822-4c71-8ff4-9e2b60dacc73"
                  },
                  {
                    "reference": "urn:uuid:8474672e-8149-4d2f-bc32-38aeb30f1c96"
                  },
                  {
                    "reference": "urn:uuid:13dfc5ac-c821-48be-b269-0f4d1a3fbcbf"
                  },
                  {
                    "reference": "urn:uuid:01b9725c-dcd0-45d5-b6f2-9600e1297162"
                  },
                  {
                    "reference": "urn:uuid:357f4305-df8d-4732-81c3-3241ff960b3b"
                  },
                  {
                    "reference": "urn:uuid:6fc1889f-07cb-41e7-9124-a98b41432f5a"
                  },
                  {
                    "reference": "urn:uuid:2d0aeda7-7bc0-46cf-9a39-0a67e11eb151"
                  },
                  {
                    "reference": "urn:uuid:8abfa0b3-5dd5-41ce-a2b9-a495eb543937"
                  },
                  {
                    "reference": "urn:uuid:486bc925-89a6-4e42-9a5e-56588974e640"
                  },
                  {
                    "reference": "urn:uuid:fcb4a028-36a5-436c-b2d7-75eefd2542f3"
                  },
                  {
                    "reference": "urn:uuid:38764f33-6e95-45a8-a2cd-562e05177b5a"
                  },
                  {
                    "reference": "urn:uuid:4690e010-671e-406a-9cdb-1ac8c4dee0a5"
                  },
                  {
                    "reference": "urn:uuid:c89ad80c-8b77-44db-831c-e49a11585676"
                  },
                  {
                    "reference": "urn:uuid:5de8bf5d-4d94-4bfb-9e8a-283669d89742"
                  },
                  {
                    "reference": "urn:uuid:1d85a216-5fa4-42a8-b332-30f335c0eb31"
                  },
                  {
                    "reference": "urn:uuid:cebd6796-1cb9-4423-a12d-9b1df943889c"
                  },
                  {
                    "reference": "urn:uuid:6d6091b0-4cab-4251-a857-d9330d66c18e"
                  },
                  {
                    "reference": "urn:uuid:f1b8c153-6f9a-4557-9c17-14de78f347d2"
                  }
                ],
                "text": {
                  "status": "generated",
                  "div": "<div xmlns=\"http://www.w3.org/1999/xhtml\"><h3>Chemistry</h3><table class=\"hl7__eu__lab__report\"><thead><tr><th>Test</th><th>07-NOV-2021</th><th>Reference&#xA0;Range</th><th>Unit</th></tr></thead><tbody><tr><td>Glucose [Mass/volume] in Blood</td><td>86.0</td><td>70 - 140</td><td>mg/dL</td></tr><tr><td>Urea nitrogen [Mass/volume] in Blood</td><td>10.4</td><td>7 - 25</td><td>mg/dL</td></tr><tr><td>Creatinine [Mass/volume] in Blood</td><td><strong>2.6 H</strong></td><td>0.6 - 1.1</td><td>mg/dL</td></tr><tr><td>Calcium [Mass/volume] in Blood</td><td>9.3</td><td>8.6 - 10.4</td><td>mg/dL</td></tr><tr><td>Sodium [Moles/volume] in Blood</td><td>138.3</td><td>135 - 145</td><td>mmol/L</td></tr><tr><td>Potassium [Moles/volume] in Blood</td><td>4.7</td><td>3.5 - 5.3</td><td>mmol/L</td></tr><tr><td>Chloride [Moles/volume] in Blood</td><td>107.0</td><td>98 - 108</td><td>mmol/L</td></tr><tr><td>Carbon dioxide, total [Moles/volume] in Blood</td><td>23.8</td><td>22 - 32</td><td>mmol/L</td></tr><tr><td>Protein [Mass/volume] in Serum or Plasma</td><td>7.5</td><td>6.6 - 8.3</td><td>g/dL</td></tr><tr><td>Albumin [Mass/volume] in Serum or Plasma</td><td>4.5</td><td>3.5 - 5.5</td><td>g/dL</td></tr><tr><td>Globulin [Mass/volume] in Serum by calculation</td><td>2.4</td><td>2.2 - 3.7</td><td>g/L</td></tr><tr><td>Bilirubin.total [Mass/volume] in Serum or Plasma</td><td>0.4</td><td>0.3 - 1.2</td><td>mg/dL</td></tr><tr><td>Alkaline phosphatase [Enzymatic activity/volume] in Serum or Plasma</td><td>62.7</td><td>40 - 130</td><td>U/L</td></tr><tr><td>Alanine aminotransferase [Enzymatic activity/volume] in Serum or Plasma</td><td>51.1</td><td>7 - 55</td><td>U/L</td></tr><tr><td>Aspartate aminotransferase [Enzymatic activity/volume] in Serum or Plasma</td><td>11.3</td><td>10 - 40</td><td>U/L</td></tr><tr><td>Cholesterol [Mass/volume] in Serum or Plasma</td><td>189.9</td><td>125 - 200</td><td>mg/dL</td></tr><tr><td>Triglyceride [Mass/volume] in Serum or Plasma</td><td>154.9</td><td>10 - 175</td><td>mg/dL</td></tr><tr><td>Cholesterol in LDL [Mass/volume] in Serum or Plasma by Direct assay</td><td>104.4</td><td>0 - 130</td><td>mg/dL</td></tr><tr><td>Cholesterol in HDL [Mass/volume] in Serum or Plasma</td><td>69.7</td><td>50 - 100</td><td>mg/dL</td></tr></tbody></table></div>"
                },
                "title": "Chemistry"
              }
            ],
            "title": "Laboratory Report"
          },
          {
            "text": {
              "status": "generated",
              "div": "<div xmlns=\"http://www.w3.org/1999/xhtml\"><h3>Annotation</h3><table class=\"hl7__eu__lab__report\"><tr><th>Conclusion and Recommendations based on this report and previous findings known to us</th></tr><tr><td>All parameters are within normal limits except for elevated creatinine (2.6 mg/dL), indicating impaired renal function. Liver enzymes, electrolytes, glucose, and lipid profile are unremarkable. Recommend clinical correlation for possible chronic kidney disease and assessment of renal function trend. No acute metabolic or hepatic abnormalities detected.</td></tr></table></div>"
            },
            "code": {
              "coding": [
                {
                  "system": "http://loinc.org",
                  "code": "48767-8",
                  "display": "Annotation comment"
                }
              ]
            },
            "title": "Annotation comment"
          }
        ],
        "status": "final",
        "subject": {
          "reference": "urn:uuid:6e22e576-4fd3-4fe8-a7f1-0a7613e83c6f",
          "display": "Helene Andresen"
        },
        "date": "2021-11-07T23:53:36Z",
        "title": "Laboratory Report",
        "confidentiality": "N"
      }
    },
    {
      "fullUrl": "urn:uuid:fd60b8f7-0a65-43fb-82d9-59030e2cfeb7",
      "resource": {
        "resourceType": "DiagnosticReport",
        "id": "fd60b8f7-0a65-43fb-82d9-59030e2cfeb7",
        "meta": {
          "profile": [
            "http://hl7.eu/fhir/laboratory/StructureDefinition/DiagnosticReport-eu-lab"
          ]
        },
        "identifier": [
          {
            "assigner": {
              "display": "HL7 Europe"
            },
            "system": "urn:oid:2.16.840.1.113883.2.51.999",
            "value": "3b6d7aa9-f469-411d-86e0-f70e01e62b11"
          }
        ],
        "extension": [
          {
            "url": "http://hl7.org/fhir/5.0/StructureDefinition/extension-DiagnosticReport.composition",
            "valueReference": {
              "reference": "urn:uuid:fc2c8dac-acc2-47e0-bae0-4d3f47bfa09c"
            }
          }
        ],
        "category": [
          {
            "coding": [
              {
                "code": "26436-6",
                "system": "http://loinc.org",
                "display": "Laboratory studies (set)"
              }
            ]
          }
        ],
        "specimen": [
          {
            "reference": "urn:uuid:ad57f3be-a0a7-49aa-b34d-e4548d79c10c"
          },
          {
            "reference": "urn:uuid:f39485d3-e17d-4a33-8d69-313eb361c528"
          },
          {
            "reference": "urn:uuid:4943e4d8-b8bc-4bab-b0f7-c2f2378aff60"
          }
        ],
        "result": [
          {
            "reference": "urn:uuid:6ddd4cfe-c470-46a6-a9c8-1cbe14071f5b"
          },
          {
            "reference": "urn:uuid:a9e64951-e822-4c71-8ff4-9e2b60dacc73"
          },
          {
            "reference": "urn:uuid:8474672e-8149-4d2f-bc32-38aeb30f1c96"
          },
          {
            "reference": "urn:uuid:13dfc5ac-c821-48be-b269-0f4d1a3fbcbf"
          },
          {
            "reference": "urn:uuid:01b9725c-dcd0-45d5-b6f2-9600e1297162"
          },
          {
            "reference": "urn:uuid:357f4305-df8d-4732-81c3-3241ff960b3b"
          },
          {
            "reference": "urn:uuid:6fc1889f-07cb-41e7-9124-a98b41432f5a"
          },
          {
            "reference": "urn:uuid:2d0aeda7-7bc0-46cf-9a39-0a67e11eb151"
          },
          {
            "reference": "urn:uuid:8abfa0b3-5dd5-41ce-a2b9-a495eb543937"
          },
          {
            "reference": "urn:uuid:486bc925-89a6-4e42-9a5e-56588974e640"
          },
          {
            "reference": "urn:uuid:fcb4a028-36a5-436c-b2d7-75eefd2542f3"
          },
          {
            "reference": "urn:uuid:38764f33-6e95-45a8-a2cd-562e05177b5a"
          },
          {
            "reference": "urn:uuid:4690e010-671e-406a-9cdb-1ac8c4dee0a5"
          },
          {
            "reference": "urn:uuid:c89ad80c-8b77-44db-831c-e49a11585676"
          },
          {
            "reference": "urn:uuid:5de8bf5d-4d94-4bfb-9e8a-283669d89742"
          },
          {
            "reference": "urn:uuid:1d85a216-5fa4-42a8-b332-30f335c0eb31"
          },
          {
            "reference": "urn:uuid:cebd6796-1cb9-4423-a12d-9b1df943889c"
          },
          {
            "reference": "urn:uuid:6d6091b0-4cab-4251-a857-d9330d66c18e"
          },
          {
            "reference": "urn:uuid:f1b8c153-6f9a-4557-9c17-14de78f347d2"
          }
        ],
        "status": "registered",
        "code": {
          "coding": [
            {
              "code": "11502-2",
              "system": "http://loinc.org",
              "display": "Laboratory report"
            }
          ]
        },
        "subject": {
          "reference": "urn:uuid:6e22e576-4fd3-4fe8-a7f1-0a7613e83c6f",
          "display": "Helene Andresen"
        }
      }
    },
    {
      "fullUrl": "urn:uuid:6e22e576-4fd3-4fe8-a7f1-0a7613e83c6f",
      "resource": {
        "resourceType": "Patient",
        "id": "6e22e576-4fd3-4fe8-a7f1-0a7613e83c6f",
        "meta": {
          "security": [
            {
              "system": "http://terminology.hl7.org/CodeSystem/v3-ActReason",
              "code": "HTEST"
            },
            {
              "system": "http://terminology.hl7.org/CodeSystem/v3-ActReason",
              "code": "TRAIN"
            }
          ],
          "tag": [
            {
              "system": "https://synderai.net/fhir/CodeSystem/tags",
              "code": "synthetic",
              "display": "SYNDERAI Synthetic data"
            }
          ],
          "profile": [
            "http://hl7.eu/fhir/base/StructureDefinition/patient-eu-core"
          ]
        },
        "identifier": [
          {
            "type": {
              "coding": [
                {
                  "code": "PT",
                  "system": "http://terminology.hl7.org/CodeSystem/v2-0203"
                }
              ]
            },
            "system": "http://ec.europa.eu/identifier/eci",
            "value": "3450-170343-2"
          },
          {
            "type": {
              "coding": [
                {
                  "code": "MR",
                  "system": "http://terminology.hl7.org/CodeSystem/v2-0203"
                }
              ]
            },
            "system": "http://local.setting.eu/identifier",
            "value": "72e91c9c-0b01-42b0-a6a0-6dcc70aeec49"
          }
        ],
        "name": [
          {
            "family": "Andresen"
          },
          {
            "given": [
              "Helene"
            ]
          },
          {
            "text": "Helene Andresen"
          }
        ],
        "address": [
          {
            "line": [
              "Kristiansenberget 2"
            ],
            "use": "home",
            "type": "physical",
            "postalCode": "0172",
            "city": "Sørensen",
            "country": "Norway"
          }
        ],
        "telecom": [
          {
            "system": "phone",
            "value": "53 98 86 24"
          }
        ],
        "extension": [
          {
            "url": "http://hl7.org/fhir/StructureDefinition/patient-nationality",
            "valueCodeableConcept": {
              "coding": [
                {
                  "code": "NO",
                  "system": "http://hl7.org/fhir/ValueSet/country"
                }
              ]
            }
          }
        ],
        "text": {
          "status": "generated",
          "div": "<div xmlns=\"http://www.w3.org/1999/xhtml\"><table class=\"hl7__ips\"><tr><td>Helene Andresen</td><td>female</td><td>17-Oct-1939</td></tr></table></div>"
        },
        "gender": "female",
        "birthDate": "1939-10-17"
      }
    },
    {
      "fullUrl": "urn:uuid:91f3da86-1859-47ee-81bf-118c5945f413",
      "resource": {
        "resourceType": "ServiceRequest",
        "id": "91f3da86-1859-47ee-81bf-118c5945f413",
        "meta": {
          "profile": [
            "http://hl7.eu/fhir/laboratory/StructureDefinition/ServiceRequest-eu-lab"
          ]
        },
        "identifier": [
          {
            "system": "http://example.org",
            "value": "e8e5b65f-252d-498c-8fb8-27135bf39e62"
          }
        ],
        "specimen": [
          {
            "reference": "urn:uuid:ad57f3be-a0a7-49aa-b34d-e4548d79c10c"
          },
          {
            "reference": "urn:uuid:f39485d3-e17d-4a33-8d69-313eb361c528"
          },
          {
            "reference": "urn:uuid:4943e4d8-b8bc-4bab-b0f7-c2f2378aff60"
          }
        ],
        "reasonCode": [
          {
            "coding": [
              {
                "code": "64859006",
                "system": "http://snomed.info/sct",
                "display": "Osteoporosis"
              }
            ]
          },
          {
            "coding": [
              {
                "code": "40055000",
                "system": "http://snomed.info/sct",
                "display": "Chronic sinusitis"
              }
            ]
          },
          {
            "coding": [
              {
                "code": "55822004",
                "system": "http://snomed.info/sct",
                "display": "Hyperlipidemia"
              }
            ]
          },
          {
            "coding": [
              {
                "code": "271737000",
                "system": "http://snomed.info/sct",
                "display": "Anemia"
              }
            ]
          },
          {
            "coding": [
              {
                "code": "15777000",
                "system": "http://snomed.info/sct",
                "display": "Prediabetes"
              }
            ]
          },
          {
            "coding": [
              {
                "code": "128613002",
                "system": "http://snomed.info/sct",
                "display": "Seizure disorder"
              }
            ]
          }
        ],
        "status": "active",
        "intent": "order",
        "code": {
          "coding": [
            {
              "code": "108252007",
              "system": "http://snomed.info/sct",
              "display": "Laboratory procedure"
            }
          ]
        },
        "subject": {
          "reference": "urn:uuid:6e22e576-4fd3-4fe8-a7f1-0a7613e83c6f",
          "display": "Helene Andresen"
        },
        "requester": {
          "reference": "urn:uuid:f6e451ca-dcf5-4e95-b8f2-c50d27acf9bb"
        }
      }
    },
    {
      "fullUrl": "urn:uuid:f6e451ca-dcf5-4e95-b8f2-c50d27acf9bb",
      "resource": {
        "resourceType": "PractitionerRole",
        "id": "f6e451ca-dcf5-4e95-b8f2-c50d27acf9bb",
        "meta": {
          "profile": [
            "http://hl7.eu/fhir/base/StructureDefinition/practitionerRole-eu"
          ]
        },
        "text": {
          "status": "generated",
          "div": "<div xmlns=\"http://www.w3.org/1999/xhtml\">Provider Role Id: f6e451ca-dcf5-4e95-b8f2-c50d27acf9bb</div>"
        },
        "organization": {
          "reference": "urn:uuid:41b33349-48d4-4106-8fc5-fbac8633e147"
        }
      }
    },
    {
      "fullUrl": "urn:uuid:41b33349-48d4-4106-8fc5-fbac8633e147",
      "resource": {
        "resourceType": "Organization",
        "id": "41b33349-48d4-4106-8fc5-fbac8633e147",
        "meta": {
          "profile": [
            "http://hl7.eu/fhir/base/StructureDefinition/organization-eu"
          ]
        },
        "identifier": [
          {
            "assigner": {
              "display": "HL7 Europe"
            },
            "system": "urn:oid:2.16.840.1.113883.2.51.999",
            "value": "14ec7539-d3eb-4213-9fa2-a79243148ce6"
          }
        ],
        "address": [
          {
            "city": "Oslo",
            "postalCode": "0155",
            "country": "Norway"
          }
        ],
        "text": {
          "status": "generated",
          "div": "<div xmlns=\"http://www.w3.org/1999/xhtml\">Provider Organization: Oslo universitetssykehus (Ullevål)</div>"
        },
        "name": "Oslo universitetssykehus (Ullevål)"
      }
    },
    {
      "fullUrl": "urn:uuid:ad57f3be-a0a7-49aa-b34d-e4548d79c10c",
      "resource": {
        "resourceType": "Specimen",
        "id": "ad57f3be-a0a7-49aa-b34d-e4548d79c10c",
        "meta": {
          "profile": [
            "http://hl7.eu/fhir/laboratory/StructureDefinition/Specimen-eu-lab"
          ]
        },
        "collection": {
          "collectedDateTime": "2021-11-07"
        },
        "text": {
          "status": "generated",
          "div": "<div xmlns=\"http://www.w3.org/1999/xhtml\"><table class=\"hl7__eu__lab__report\"><tr><th>Specimen</th><th>Collection Date</th></tr><tr><td>Whole blood specimen (specimen)</td><td><span class=\"nb\">07-Nov-2021</span></td></tr></table></div>"
        },
        "type": {
          "coding": [
            {
              "code": "258580003",
              "system": "http://snomed.info/sct",
              "display": "Whole blood specimen (specimen)"
            }
          ]
        }
      }
    },
    {
      "fullUrl": "urn:uuid:f39485d3-e17d-4a33-8d69-313eb361c528",
      "resource": {
        "resourceType": "Specimen",
        "id": "f39485d3-e17d-4a33-8d69-313eb361c528",
        "meta": {
          "profile": [
            "http://hl7.eu/fhir/laboratory/StructureDefinition/Specimen-eu-lab"
          ]
        },
        "collection": {
          "collectedDateTime": "2021-11-07"
        },
        "text": {
          "status": "generated",
          "div": "<div xmlns=\"http://www.w3.org/1999/xhtml\"><table class=\"hl7__eu__lab__report\"><tr><th>Specimen</th><th>Collection Date</th></tr><tr><td>Acellular blood (serum or plasma) specimen</td><td><span class=\"nb\">07-Nov-2021</span></td></tr></table></div>"
        },
        "type": {
          "coding": [
            {
              "code": "122592007",
              "system": "http://snomed.info/sct",
              "display": "Acellular blood (serum or plasma) specimen"
            }
          ]
        }
      }
    },
    {
      "fullUrl": "urn:uuid:4943e4d8-b8bc-4bab-b0f7-c2f2378aff60",
      "resource": {
        "resourceType": "Specimen",
        "id": "4943e4d8-b8bc-4bab-b0f7-c2f2378aff60",
        "meta": {
          "profile": [
            "http://hl7.eu/fhir/laboratory/StructureDefinition/Specimen-eu-lab"
          ]
        },
        "collection": {
          "collectedDateTime": "2021-11-07"
        },
        "text": {
          "status": "generated",
          "div": "<div xmlns=\"http://www.w3.org/1999/xhtml\"><table class=\"hl7__eu__lab__report\"><tr><th>Specimen</th><th>Collection Date</th></tr><tr><td>Serum specimen</td><td><span class=\"nb\">07-Nov-2021</span></td></tr></table></div>"
        },
        "type": {
          "coding": [
            {
              "code": "119364003",
              "system": "http://snomed.info/sct",
              "display": "Serum specimen"
            }
          ]
        }
      }
    },
    {
      "fullUrl": "urn:uuid:6ddd4cfe-c470-46a6-a9c8-1cbe14071f5b",
      "resource": {
        "resourceType": "Observation",
        "id": "6ddd4cfe-c470-46a6-a9c8-1cbe14071f5b",
        "meta": {
          "profile": [
            "http://hl7.eu/fhir/laboratory/StructureDefinition/Observation-resultslab-eu-lab"
          ]
        },
        "performer": [
          {
            "display": "The Central European Lab"
          }
        ],
        "category": [
          {
            "coding": [
              {
                "system": "http://terminology.hl7.org/CodeSystem/observation-category",
                "code": "laboratory"
              }
            ]
          }
        ],
        "code": {
          "coding": [
            {
              "code": "2339-0",
              "system": "http://loinc.org",
              "display": "Glucose [Mass/volume] in Blood"
            }
          ],
          "text": "Glucose [Mass/volume] in Blood"
        },
        "valueQuantity": {
          "system": "http://unitsofmeasure.org",
          "value": 86,
          "unit": "mg/dL",
          "code": "mg/dL"
        },
        "referenceRange": [
          {
            "low": {
              "value": 70,
              "code": "mg/dL",
              "system": "http://unitsofmeasure.org"
            }
          },
          {
            "high": {
              "value": 140,
              "code": "mg/dL",
              "system": "http://unitsofmeasure.org"
            }
          }
        ],
        "text": {
          "status": "generated",
          "div": "<div xmlns=\"http://www.w3.org/1999/xhtml\"><table class=\"hl7__eu__lab__report\"><tr><th>Test</th><th>07-Nov-2021</th><th>Reference&#xA0;Range</th><th>Unit</th></tr><tr><td>Glucose [Mass/volume] in Blood</td><td>86.0</td><td>70 - 140</td><td></td><td>mg/dL</td></tr></table></div>"
        },
        "status": "final",
        "subject": {
          "reference": "urn:uuid:6e22e576-4fd3-4fe8-a7f1-0a7613e83c6f",
          "display": "Helene Andresen"
        },
        "effectiveDateTime": "2021-11-07T22:53:36Z",
        "specimen": {
          "reference": "urn:uuid:ad57f3be-a0a7-49aa-b34d-e4548d79c10c"
        }
      }
    },
    {
      "fullUrl": "urn:uuid:a9e64951-e822-4c71-8ff4-9e2b60dacc73",
      "resource": {
        "resourceType": "Observation",
        "id": "a9e64951-e822-4c71-8ff4-9e2b60dacc73",
        "meta": {
          "profile": [
            "http://hl7.eu/fhir/laboratory/StructureDefinition/Observation-resultslab-eu-lab"
          ]
        },
        "performer": [
          {
            "display": "The Central European Lab"
          }
        ],
        "category": [
          {
            "coding": [
              {
                "system": "http://terminology.hl7.org/CodeSystem/observation-category",
                "code": "laboratory"
              }
            ]
          }
        ],
        "code": {
          "coding": [
            {
              "code": "6299-2",
              "system": "http://loinc.org",
              "display": "Urea nitrogen [Mass/volume] in Blood"
            }
          ],
          "text": "Urea nitrogen [Mass/volume] in Blood"
        },
        "valueQuantity": {
          "system": "http://unitsofmeasure.org",
          "value": 10.4,
          "unit": "mg/dL",
          "code": "mg/dL"
        },
        "referenceRange": [
          {
            "low": {
              "value": 7,
              "code": "mg/dL",
              "system": "http://unitsofmeasure.org"
            }
          },
          {
            "high": {
              "value": 25,
              "code": "mg/dL",
              "system": "http://unitsofmeasure.org"
            }
          }
        ],
        "text": {
          "status": "generated",
          "div": "<div xmlns=\"http://www.w3.org/1999/xhtml\"><table class=\"hl7__eu__lab__report\"><tr><th>Test</th><th>07-Nov-2021</th><th>Reference&#xA0;Range</th><th>Unit</th></tr><tr><td>Urea nitrogen [Mass/volume] in Blood</td><td>10.4</td><td>7 - 25</td><td></td><td>mg/dL</td></tr></table></div>"
        },
        "status": "final",
        "subject": {
          "reference": "urn:uuid:6e22e576-4fd3-4fe8-a7f1-0a7613e83c6f",
          "display": "Helene Andresen"
        },
        "effectiveDateTime": "2021-11-07T22:53:36Z",
        "specimen": {
          "reference": "urn:uuid:ad57f3be-a0a7-49aa-b34d-e4548d79c10c"
        }
      }
    },
    {
      "fullUrl": "urn:uuid:8474672e-8149-4d2f-bc32-38aeb30f1c96",
      "resource": {
        "resourceType": "Observation",
        "id": "8474672e-8149-4d2f-bc32-38aeb30f1c96",
        "meta": {
          "profile": [
            "http://hl7.eu/fhir/laboratory/StructureDefinition/Observation-resultslab-eu-lab"
          ]
        },
        "performer": [
          {
            "display": "The Central European Lab"
          }
        ],
        "category": [
          {
            "coding": [
              {
                "system": "http://terminology.hl7.org/CodeSystem/observation-category",
                "code": "laboratory"
              }
            ]
          }
        ],
        "code": {
          "coding": [
            {
              "code": "38483-4",
              "system": "http://loinc.org",
              "display": "Creatinine [Mass/volume] in Blood"
            }
          ],
          "text": "Creatinine [Mass/volume] in Blood"
        },
        "valueQuantity": {
          "system": "http://unitsofmeasure.org",
          "value": 2.6,
          "unit": "mg/dL",
          "code": "mg/dL"
        },
        "referenceRange": [
          {
            "low": {
              "value": 0.6,
              "code": "mg/dL",
              "system": "http://unitsofmeasure.org"
            }
          },
          {
            "high": {
              "value": 1.1,
              "code": "mg/dL",
              "system": "http://unitsofmeasure.org"
            }
          }
        ],
        "interpretation": [
          {
            "coding": [
              {
                "code": "H",
                "system": "http://terminology.hl7.org/CodeSystem/v3-ObservationInterpretation",
                "display": "High"
              }
            ]
          }
        ],
        "text": {
          "status": "generated",
          "div": "<div xmlns=\"http://www.w3.org/1999/xhtml\"><table class=\"hl7__eu__lab__report\"><tr><th>Test</th><th>07-Nov-2021</th><th>Reference&#xA0;Range</th><th>Unit</th></tr><tr><td>Creatinine [Mass/volume] in Blood</td><td>2.6</td><td>0.6 - 1.1</td><td>H</td><td>mg/dL</td></tr></table></div>"
        },
        "status": "final",
        "subject": {
          "reference": "urn:uuid:6e22e576-4fd3-4fe8-a7f1-0a7613e83c6f",
          "display": "Helene Andresen"
        },
        "effectiveDateTime": "2021-11-07T22:53:36Z",
        "specimen": {
          "reference": "urn:uuid:ad57f3be-a0a7-49aa-b34d-e4548d79c10c"
        }
      }
    },
    {
      "fullUrl": "urn:uuid:13dfc5ac-c821-48be-b269-0f4d1a3fbcbf",
      "resource": {
        "resourceType": "Observation",
        "id": "13dfc5ac-c821-48be-b269-0f4d1a3fbcbf",
        "meta": {
          "profile": [
            "http://hl7.eu/fhir/laboratory/StructureDefinition/Observation-resultslab-eu-lab"
          ]
        },
        "performer": [
          {
            "display": "The Central European Lab"
          }
        ],
        "category": [
          {
            "coding": [
              {
                "system": "http://terminology.hl7.org/CodeSystem/observation-category",
                "code": "laboratory"
              }
            ]
          }
        ],
        "code": {
          "coding": [
            {
              "code": "49765-1",
              "system": "http://loinc.org",
              "display": "Calcium [Mass/volume] in Blood"
            }
          ],
          "text": "Calcium [Mass/volume] in Blood"
        },
        "valueQuantity": {
          "system": "http://unitsofmeasure.org",
          "value": 9.3,
          "unit": "mg/dL",
          "code": "mg/dL"
        },
        "referenceRange": [
          {
            "low": {
              "value": 8.6,
              "code": "mg/dL",
              "system": "http://unitsofmeasure.org"
            }
          },
          {
            "high": {
              "value": 10.4,
              "code": "mg/dL",
              "system": "http://unitsofmeasure.org"
            }
          }
        ],
        "text": {
          "status": "generated",
          "div": "<div xmlns=\"http://www.w3.org/1999/xhtml\"><table class=\"hl7__eu__lab__report\"><tr><th>Test</th><th>07-Nov-2021</th><th>Reference&#xA0;Range</th><th>Unit</th></tr><tr><td>Calcium [Mass/volume] in Blood</td><td>9.3</td><td>8.6 - 10.4</td><td></td><td>mg/dL</td></tr></table></div>"
        },
        "status": "final",
        "subject": {
          "reference": "urn:uuid:6e22e576-4fd3-4fe8-a7f1-0a7613e83c6f",
          "display": "Helene Andresen"
        },
        "effectiveDateTime": "2021-11-07T22:53:36Z",
        "specimen": {
          "reference": "urn:uuid:ad57f3be-a0a7-49aa-b34d-e4548d79c10c"
        }
      }
    },
    {
      "fullUrl": "urn:uuid:01b9725c-dcd0-45d5-b6f2-9600e1297162",
      "resource": {
        "resourceType": "Observation",
        "id": "01b9725c-dcd0-45d5-b6f2-9600e1297162",
        "meta": {
          "profile": [
            "http://hl7.eu/fhir/laboratory/StructureDefinition/Observation-resultslab-eu-lab"
          ]
        },
        "performer": [
          {
            "display": "The Central European Lab"
          }
        ],
        "category": [
          {
            "coding": [
              {
                "system": "http://terminology.hl7.org/CodeSystem/observation-category",
                "code": "laboratory"
              }
            ]
          }
        ],
        "code": {
          "coding": [
            {
              "code": "2947-0",
              "system": "http://loinc.org",
              "display": "Sodium [Moles/volume] in Blood"
            }
          ],
          "text": "Sodium [Moles/volume] in Blood"
        },
        "valueQuantity": {
          "system": "http://unitsofmeasure.org",
          "value": 138.3,
          "unit": "mmol/L",
          "code": "mmol/L"
        },
        "referenceRange": [
          {
            "low": {
              "value": 135,
              "code": "mmol/L",
              "system": "http://unitsofmeasure.org"
            }
          },
          {
            "high": {
              "value": 145,
              "code": "mmol/L",
              "system": "http://unitsofmeasure.org"
            }
          }
        ],
        "text": {
          "status": "generated",
          "div": "<div xmlns=\"http://www.w3.org/1999/xhtml\"><table class=\"hl7__eu__lab__report\"><tr><th>Test</th><th>07-Nov-2021</th><th>Reference&#xA0;Range</th><th>Unit</th></tr><tr><td>Sodium [Moles/volume] in Blood</td><td>138.3</td><td>135 - 145</td><td></td><td>mmol/L</td></tr></table></div>"
        },
        "status": "final",
        "subject": {
          "reference": "urn:uuid:6e22e576-4fd3-4fe8-a7f1-0a7613e83c6f",
          "display": "Helene Andresen"
        },
        "effectiveDateTime": "2021-11-07T22:53:36Z",
        "specimen": {
          "reference": "urn:uuid:ad57f3be-a0a7-49aa-b34d-e4548d79c10c"
        }
      }
    },
    {
      "fullUrl": "urn:uuid:357f4305-df8d-4732-81c3-3241ff960b3b",
      "resource": {
        "resourceType": "Observation",
        "id": "357f4305-df8d-4732-81c3-3241ff960b3b",
        "meta": {
          "profile": [
            "http://hl7.eu/fhir/laboratory/StructureDefinition/Observation-resultslab-eu-lab"
          ]
        },
        "performer": [
          {
            "display": "The Central European Lab"
          }
        ],
        "category": [
          {
            "coding": [
              {
                "system": "http://terminology.hl7.org/CodeSystem/observation-category",
                "code": "laboratory"
              }
            ]
          }
        ],
        "code": {
          "coding": [
            {
              "code": "6298-4",
              "system": "http://loinc.org",
              "display": "Potassium [Moles/volume] in Blood"
            }
          ],
          "text": "Potassium [Moles/volume] in Blood"
        },
        "valueQuantity": {
          "system": "http://unitsofmeasure.org",
          "value": 4.7,
          "unit": "mmol/L",
          "code": "mmol/L"
        },
        "referenceRange": [
          {
            "low": {
              "value": 3.5,
              "code": "mmol/L",
              "system": "http://unitsofmeasure.org"
            }
          },
          {
            "high": {
              "value": 5.3,
              "code": "mmol/L",
              "system": "http://unitsofmeasure.org"
            }
          }
        ],
        "text": {
          "status": "generated",
          "div": "<div xmlns=\"http://www.w3.org/1999/xhtml\"><table class=\"hl7__eu__lab__report\"><tr><th>Test</th><th>07-Nov-2021</th><th>Reference&#xA0;Range</th><th>Unit</th></tr><tr><td>Potassium [Moles/volume] in Blood</td><td>4.7</td><td>3.5 - 5.3</td><td></td><td>mmol/L</td></tr></table></div>"
        },
        "status": "final",
        "subject": {
          "reference": "urn:uuid:6e22e576-4fd3-4fe8-a7f1-0a7613e83c6f",
          "display": "Helene Andresen"
        },
        "effectiveDateTime": "2021-11-07T22:53:36Z",
        "specimen": {
          "reference": "urn:uuid:ad57f3be-a0a7-49aa-b34d-e4548d79c10c"
        }
      }
    },
    {
      "fullUrl": "urn:uuid:6fc1889f-07cb-41e7-9124-a98b41432f5a",
      "resource": {
        "resourceType": "Observation",
        "id": "6fc1889f-07cb-41e7-9124-a98b41432f5a",
        "meta": {
          "profile": [
            "http://hl7.eu/fhir/laboratory/StructureDefinition/Observation-resultslab-eu-lab"
          ]
        },
        "performer": [
          {
            "display": "The Central European Lab"
          }
        ],
        "category": [
          {
            "coding": [
              {
                "system": "http://terminology.hl7.org/CodeSystem/observation-category",
                "code": "laboratory"
              }
            ]
          }
        ],
        "code": {
          "coding": [
            {
              "code": "2069-3",
              "system": "http://loinc.org",
              "display": "Chloride [Moles/volume] in Blood"
            }
          ],
          "text": "Chloride [Moles/volume] in Blood"
        },
        "valueQuantity": {
          "system": "http://unitsofmeasure.org",
          "value": 107,
          "unit": "mmol/L",
          "code": "mmol/L"
        },
        "referenceRange": [
          {
            "low": {
              "value": 98,
              "code": "mmol/L",
              "system": "http://unitsofmeasure.org"
            }
          },
          {
            "high": {
              "value": 108,
              "code": "mmol/L",
              "system": "http://unitsofmeasure.org"
            }
          }
        ],
        "text": {
          "status": "generated",
          "div": "<div xmlns=\"http://www.w3.org/1999/xhtml\"><table class=\"hl7__eu__lab__report\"><tr><th>Test</th><th>07-Nov-2021</th><th>Reference&#xA0;Range</th><th>Unit</th></tr><tr><td>Chloride [Moles/volume] in Blood</td><td>107.0</td><td>98 - 108</td><td></td><td>mmol/L</td></tr></table></div>"
        },
        "status": "final",
        "subject": {
          "reference": "urn:uuid:6e22e576-4fd3-4fe8-a7f1-0a7613e83c6f",
          "display": "Helene Andresen"
        },
        "effectiveDateTime": "2021-11-07T22:53:36Z",
        "specimen": {
          "reference": "urn:uuid:ad57f3be-a0a7-49aa-b34d-e4548d79c10c"
        }
      }
    },
    {
      "fullUrl": "urn:uuid:2d0aeda7-7bc0-46cf-9a39-0a67e11eb151",
      "resource": {
        "resourceType": "Observation",
        "id": "2d0aeda7-7bc0-46cf-9a39-0a67e11eb151",
        "meta": {
          "profile": [
            "http://hl7.eu/fhir/laboratory/StructureDefinition/Observation-resultslab-eu-lab"
          ]
        },
        "performer": [
          {
            "display": "The Central European Lab"
          }
        ],
        "category": [
          {
            "coding": [
              {
                "system": "http://terminology.hl7.org/CodeSystem/observation-category",
                "code": "laboratory"
              }
            ]
          }
        ],
        "code": {
          "coding": [
            {
              "code": "20565-8",
              "system": "http://loinc.org",
              "display": "Carbon dioxide, total [Moles/volume] in Blood"
            }
          ],
          "text": "Carbon dioxide, total [Moles/volume] in Blood"
        },
        "valueQuantity": {
          "system": "http://unitsofmeasure.org",
          "value": 23.8,
          "unit": "mmol/L",
          "code": "mmol/L"
        },
        "referenceRange": [
          {
            "low": {
              "value": 22,
              "code": "mmol/L",
              "system": "http://unitsofmeasure.org"
            }
          },
          {
            "high": {
              "value": 32,
              "code": "mmol/L",
              "system": "http://unitsofmeasure.org"
            }
          }
        ],
        "text": {
          "status": "generated",
          "div": "<div xmlns=\"http://www.w3.org/1999/xhtml\"><table class=\"hl7__eu__lab__report\"><tr><th>Test</th><th>07-Nov-2021</th><th>Reference&#xA0;Range</th><th>Unit</th></tr><tr><td>Carbon dioxide, total [Moles/volume] in Blood</td><td>23.8</td><td>22 - 32</td><td></td><td>mmol/L</td></tr></table></div>"
        },
        "status": "final",
        "subject": {
          "reference": "urn:uuid:6e22e576-4fd3-4fe8-a7f1-0a7613e83c6f",
          "display": "Helene Andresen"
        },
        "effectiveDateTime": "2021-11-07T22:53:36Z",
        "specimen": {
          "reference": "urn:uuid:ad57f3be-a0a7-49aa-b34d-e4548d79c10c"
        }
      }
    },
    {
      "fullUrl": "urn:uuid:8abfa0b3-5dd5-41ce-a2b9-a495eb543937",
      "resource": {
        "resourceType": "Observation",
        "id": "8abfa0b3-5dd5-41ce-a2b9-a495eb543937",
        "meta": {
          "profile": [
            "http://hl7.eu/fhir/laboratory/StructureDefinition/Observation-resultslab-eu-lab"
          ]
        },
        "performer": [
          {
            "display": "The Central European Lab"
          }
        ],
        "category": [
          {
            "coding": [
              {
                "system": "http://terminology.hl7.org/CodeSystem/observation-category",
                "code": "laboratory"
              }
            ]
          }
        ],
        "code": {
          "coding": [
            {
              "code": "2885-2",
              "system": "http://loinc.org",
              "display": "Protein [Mass/volume] in Serum or Plasma"
            }
          ],
          "text": "Protein [Mass/volume] in Serum or Plasma"
        },
        "valueQuantity": {
          "system": "http://unitsofmeasure.org",
          "value": 7.5,
          "unit": "g/dL",
          "code": "g/dL"
        },
        "referenceRange": [
          {
            "low": {
              "value": 6.6,
              "code": "g/dL",
              "system": "http://unitsofmeasure.org"
            }
          },
          {
            "high": {
              "value": 8.3,
              "code": "g/dL",
              "system": "http://unitsofmeasure.org"
            }
          }
        ],
        "text": {
          "status": "generated",
          "div": "<div xmlns=\"http://www.w3.org/1999/xhtml\"><table class=\"hl7__eu__lab__report\"><tr><th>Test</th><th>07-Nov-2021</th><th>Reference&#xA0;Range</th><th>Unit</th></tr><tr><td>Protein [Mass/volume] in Serum or Plasma</td><td>7.5</td><td>6.6 - 8.3</td><td></td><td>g/dL</td></tr></table></div>"
        },
        "status": "final",
        "subject": {
          "reference": "urn:uuid:6e22e576-4fd3-4fe8-a7f1-0a7613e83c6f",
          "display": "Helene Andresen"
        },
        "effectiveDateTime": "2021-11-07T22:53:36Z",
        "specimen": {
          "reference": "urn:uuid:f39485d3-e17d-4a33-8d69-313eb361c528"
        }
      }
    },
    {
      "fullUrl": "urn:uuid:486bc925-89a6-4e42-9a5e-56588974e640",
      "resource": {
        "resourceType": "Observation",
        "id": "486bc925-89a6-4e42-9a5e-56588974e640",
        "meta": {
          "profile": [
            "http://hl7.eu/fhir/laboratory/StructureDefinition/Observation-resultslab-eu-lab"
          ]
        },
        "performer": [
          {
            "display": "The Central European Lab"
          }
        ],
        "category": [
          {
            "coding": [
              {
                "system": "http://terminology.hl7.org/CodeSystem/observation-category",
                "code": "laboratory"
              }
            ]
          }
        ],
        "code": {
          "coding": [
            {
              "code": "1751-7",
              "system": "http://loinc.org",
              "display": "Albumin [Mass/volume] in Serum or Plasma"
            }
          ],
          "text": "Albumin [Mass/volume] in Serum or Plasma"
        },
        "valueQuantity": {
          "system": "http://unitsofmeasure.org",
          "value": 4.5,
          "unit": "g/dL",
          "code": "g/dL"
        },
        "referenceRange": [
          {
            "low": {
              "value": 3.5,
              "code": "g/dL",
              "system": "http://unitsofmeasure.org"
            }
          },
          {
            "high": {
              "value": 5.5,
              "code": "g/dL",
              "system": "http://unitsofmeasure.org"
            }
          }
        ],
        "text": {
          "status": "generated",
          "div": "<div xmlns=\"http://www.w3.org/1999/xhtml\"><table class=\"hl7__eu__lab__report\"><tr><th>Test</th><th>07-Nov-2021</th><th>Reference&#xA0;Range</th><th>Unit</th></tr><tr><td>Albumin [Mass/volume] in Serum or Plasma</td><td>4.5</td><td>3.5 - 5.5</td><td></td><td>g/dL</td></tr></table></div>"
        },
        "status": "final",
        "subject": {
          "reference": "urn:uuid:6e22e576-4fd3-4fe8-a7f1-0a7613e83c6f",
          "display": "Helene Andresen"
        },
        "effectiveDateTime": "2021-11-07T22:53:36Z",
        "specimen": {
          "reference": "urn:uuid:f39485d3-e17d-4a33-8d69-313eb361c528"
        }
      }
    },
    {
      "fullUrl": "urn:uuid:fcb4a028-36a5-436c-b2d7-75eefd2542f3",
      "resource": {
        "resourceType": "Observation",
        "id": "fcb4a028-36a5-436c-b2d7-75eefd2542f3",
        "meta": {
          "profile": [
            "http://hl7.eu/fhir/laboratory/StructureDefinition/Observation-resultslab-eu-lab"
          ]
        },
        "performer": [
          {
            "display": "The Central European Lab"
          }
        ],
        "category": [
          {
            "coding": [
              {
                "system": "http://terminology.hl7.org/CodeSystem/observation-category",
                "code": "laboratory"
              }
            ]
          }
        ],
        "code": {
          "coding": [
            {
              "code": "10834-0",
              "system": "http://loinc.org",
              "display": "Globulin [Mass/volume] in Serum by calculation"
            }
          ],
          "text": "Globulin [Mass/volume] in Serum by calculation"
        },
        "valueQuantity": {
          "system": "http://unitsofmeasure.org",
          "value": 2.4,
          "unit": "g/L",
          "code": "g/L"
        },
        "referenceRange": [
          {
            "low": {
              "value": 2.2,
              "code": "g/L",
              "system": "http://unitsofmeasure.org"
            }
          },
          {
            "high": {
              "value": 3.7,
              "code": "g/L",
              "system": "http://unitsofmeasure.org"
            }
          }
        ],
        "text": {
          "status": "generated",
          "div": "<div xmlns=\"http://www.w3.org/1999/xhtml\"><table class=\"hl7__eu__lab__report\"><tr><th>Test</th><th>07-Nov-2021</th><th>Reference&#xA0;Range</th><th>Unit</th></tr><tr><td>Globulin [Mass/volume] in Serum by calculation</td><td>2.4</td><td>2.2 - 3.7</td><td></td><td>g/L</td></tr></table></div>"
        },
        "status": "final",
        "subject": {
          "reference": "urn:uuid:6e22e576-4fd3-4fe8-a7f1-0a7613e83c6f",
          "display": "Helene Andresen"
        },
        "effectiveDateTime": "2021-11-07T22:53:36Z",
        "specimen": {
          "reference": "urn:uuid:4943e4d8-b8bc-4bab-b0f7-c2f2378aff60"
        }
      }
    },
    {
      "fullUrl": "urn:uuid:38764f33-6e95-45a8-a2cd-562e05177b5a",
      "resource": {
        "resourceType": "Observation",
        "id": "38764f33-6e95-45a8-a2cd-562e05177b5a",
        "meta": {
          "profile": [
            "http://hl7.eu/fhir/laboratory/StructureDefinition/Observation-resultslab-eu-lab"
          ]
        },
        "performer": [
          {
            "display": "The Central European Lab"
          }
        ],
        "category": [
          {
            "coding": [
              {
                "system": "http://terminology.hl7.org/CodeSystem/observation-category",
                "code": "laboratory"
              }
            ]
          }
        ],
        "code": {
          "coding": [
            {
              "code": "1975-2",
              "system": "http://loinc.org",
              "display": "Bilirubin.total [Mass/volume] in Serum or Plasma"
            }
          ],
          "text": "Bilirubin.total [Mass/volume] in Serum or Plasma"
        },
        "valueQuantity": {
          "system": "http://unitsofmeasure.org",
          "value": 0.4,
          "unit": "mg/dL",
          "code": "mg/dL"
        },
        "referenceRange": [
          {
            "low": {
              "value": 0.3,
              "code": "mg/dL",
              "system": "http://unitsofmeasure.org"
            }
          },
          {
            "high": {
              "value": 1.2,
              "code": "mg/dL",
              "system": "http://unitsofmeasure.org"
            }
          }
        ],
        "text": {
          "status": "generated",
          "div": "<div xmlns=\"http://www.w3.org/1999/xhtml\"><table class=\"hl7__eu__lab__report\"><tr><th>Test</th><th>07-Nov-2021</th><th>Reference&#xA0;Range</th><th>Unit</th></tr><tr><td>Bilirubin.total [Mass/volume] in Serum or Plasma</td><td>0.4</td><td>0.3 - 1.2</td><td></td><td>mg/dL</td></tr></table></div>"
        },
        "status": "final",
        "subject": {
          "reference": "urn:uuid:6e22e576-4fd3-4fe8-a7f1-0a7613e83c6f",
          "display": "Helene Andresen"
        },
        "effectiveDateTime": "2021-11-07T22:53:36Z",
        "specimen": {
          "reference": "urn:uuid:f39485d3-e17d-4a33-8d69-313eb361c528"
        }
      }
    },
    {
      "fullUrl": "urn:uuid:4690e010-671e-406a-9cdb-1ac8c4dee0a5",
      "resource": {
        "resourceType": "Observation",
        "id": "4690e010-671e-406a-9cdb-1ac8c4dee0a5",
        "meta": {
          "profile": [
            "http://hl7.eu/fhir/laboratory/StructureDefinition/Observation-resultslab-eu-lab"
          ]
        },
        "performer": [
          {
            "display": "The Central European Lab"
          }
        ],
        "category": [
          {
            "coding": [
              {
                "system": "http://terminology.hl7.org/CodeSystem/observation-category",
                "code": "laboratory"
              }
            ]
          }
        ],
        "code": {
          "coding": [
            {
              "code": "6768-6",
              "system": "http://loinc.org",
              "display": "Alkaline phosphatase [Enzymatic activity/volume] in Serum or Plasma"
            }
          ],
          "text": "Alkaline phosphatase [Enzymatic activity/volume] in Serum or Plasma"
        },
        "valueQuantity": {
          "system": "http://unitsofmeasure.org",
          "value": 62.7,
          "unit": "U/L",
          "code": "U/L"
        },
        "referenceRange": [
          {
            "low": {
              "value": 40,
              "code": "U/L",
              "system": "http://unitsofmeasure.org"
            }
          },
          {
            "high": {
              "value": 130,
              "code": "U/L",
              "system": "http://unitsofmeasure.org"
            }
          }
        ],
        "text": {
          "status": "generated",
          "div": "<div xmlns=\"http://www.w3.org/1999/xhtml\"><table class=\"hl7__eu__lab__report\"><tr><th>Test</th><th>07-Nov-2021</th><th>Reference&#xA0;Range</th><th>Unit</th></tr><tr><td>Alkaline phosphatase [Enzymatic activity/volume] in Serum or Plasma</td><td>62.7</td><td>40 - 130</td><td></td><td>U/L</td></tr></table></div>"
        },
        "status": "final",
        "subject": {
          "reference": "urn:uuid:6e22e576-4fd3-4fe8-a7f1-0a7613e83c6f",
          "display": "Helene Andresen"
        },
        "effectiveDateTime": "2021-11-07T22:53:36Z",
        "specimen": {
          "reference": "urn:uuid:f39485d3-e17d-4a33-8d69-313eb361c528"
        }
      }
    },
    {
      "fullUrl": "urn:uuid:c89ad80c-8b77-44db-831c-e49a11585676",
      "resource": {
        "resourceType": "Observation",
        "id": "c89ad80c-8b77-44db-831c-e49a11585676",
        "meta": {
          "profile": [
            "http://hl7.eu/fhir/laboratory/StructureDefinition/Observation-resultslab-eu-lab"
          ]
        },
        "performer": [
          {
            "display": "The Central European Lab"
          }
        ],
        "category": [
          {
            "coding": [
              {
                "system": "http://terminology.hl7.org/CodeSystem/observation-category",
                "code": "laboratory"
              }
            ]
          }
        ],
        "code": {
          "coding": [
            {
              "code": "1742-6",
              "system": "http://loinc.org",
              "display": "Alanine aminotransferase [Enzymatic activity/volume] in Serum or Plasma"
            }
          ],
          "text": "Alanine aminotransferase [Enzymatic activity/volume] in Serum or Plasma"
        },
        "valueQuantity": {
          "system": "http://unitsofmeasure.org",
          "value": 51.1,
          "unit": "U/L",
          "code": "U/L"
        },
        "referenceRange": [
          {
            "low": {
              "value": 7,
              "code": "U/L",
              "system": "http://unitsofmeasure.org"
            }
          },
          {
            "high": {
              "value": 55,
              "code": "U/L",
              "system": "http://unitsofmeasure.org"
            }
          }
        ],
        "text": {
          "status": "generated",
          "div": "<div xmlns=\"http://www.w3.org/1999/xhtml\"><table class=\"hl7__eu__lab__report\"><tr><th>Test</th><th>07-Nov-2021</th><th>Reference&#xA0;Range</th><th>Unit</th></tr><tr><td>Alanine aminotransferase [Enzymatic activity/volume] in Serum or Plasma</td><td>51.1</td><td>7 - 55</td><td></td><td>U/L</td></tr></table></div>"
        },
        "status": "final",
        "subject": {
          "reference": "urn:uuid:6e22e576-4fd3-4fe8-a7f1-0a7613e83c6f",
          "display": "Helene Andresen"
        },
        "effectiveDateTime": "2021-11-07T22:53:36Z",
        "specimen": {
          "reference": "urn:uuid:f39485d3-e17d-4a33-8d69-313eb361c528"
        }
      }
    },
    {
      "fullUrl": "urn:uuid:5de8bf5d-4d94-4bfb-9e8a-283669d89742",
      "resource": {
        "resourceType": "Observation",
        "id": "5de8bf5d-4d94-4bfb-9e8a-283669d89742",
        "meta": {
          "profile": [
            "http://hl7.eu/fhir/laboratory/StructureDefinition/Observation-resultslab-eu-lab"
          ]
        },
        "performer": [
          {
            "display": "The Central European Lab"
          }
        ],
        "category": [
          {
            "coding": [
              {
                "system": "http://terminology.hl7.org/CodeSystem/observation-category",
                "code": "laboratory"
              }
            ]
          }
        ],
        "code": {
          "coding": [
            {
              "code": "1920-8",
              "system": "http://loinc.org",
              "display": "Aspartate aminotransferase [Enzymatic activity/volume] in Serum or Plasma"
            }
          ],
          "text": "Aspartate aminotransferase [Enzymatic activity/volume] in Serum or Plasma"
        },
        "valueQuantity": {
          "system": "http://unitsofmeasure.org",
          "value": 11.3,
          "unit": "U/L",
          "code": "U/L"
        },
        "referenceRange": [
          {
            "low": {
              "value": 10,
              "code": "U/L",
              "system": "http://unitsofmeasure.org"
            }
          },
          {
            "high": {
              "value": 40,
              "code": "U/L",
              "system": "http://unitsofmeasure.org"
            }
          }
        ],
        "text": {
          "status": "generated",
          "div": "<div xmlns=\"http://www.w3.org/1999/xhtml\"><table class=\"hl7__eu__lab__report\"><tr><th>Test</th><th>07-Nov-2021</th><th>Reference&#xA0;Range</th><th>Unit</th></tr><tr><td>Aspartate aminotransferase [Enzymatic activity/volume] in Serum or Plasma</td><td>11.3</td><td>10 - 40</td><td></td><td>U/L</td></tr></table></div>"
        },
        "status": "final",
        "subject": {
          "reference": "urn:uuid:6e22e576-4fd3-4fe8-a7f1-0a7613e83c6f",
          "display": "Helene Andresen"
        },
        "effectiveDateTime": "2021-11-07T22:53:36Z",
        "specimen": {
          "reference": "urn:uuid:f39485d3-e17d-4a33-8d69-313eb361c528"
        }
      }
    },
    {
      "fullUrl": "urn:uuid:1d85a216-5fa4-42a8-b332-30f335c0eb31",
      "resource": {
        "resourceType": "Observation",
        "id": "1d85a216-5fa4-42a8-b332-30f335c0eb31",
        "meta": {
          "profile": [
            "http://hl7.eu/fhir/laboratory/StructureDefinition/Observation-resultslab-eu-lab"
          ]
        },
        "performer": [
          {
            "display": "The Central European Lab"
          }
        ],
        "category": [
          {
            "coding": [
              {
                "system": "http://terminology.hl7.org/CodeSystem/observation-category",
                "code": "laboratory"
              }
            ]
          }
        ],
        "code": {
          "coding": [
            {
              "code": "2093-3",
              "system": "http://loinc.org",
              "display": "Cholesterol [Mass/volume] in Serum or Plasma"
            }
          ],
          "text": "Cholesterol [Mass/volume] in Serum or Plasma"
        },
        "valueQuantity": {
          "system": "http://unitsofmeasure.org",
          "value": 189.9,
          "unit": "mg/dL",
          "code": "mg/dL"
        },
        "referenceRange": [
          {
            "low": {
              "value": 125,
              "code": "mg/dL",
              "system": "http://unitsofmeasure.org"
            }
          },
          {
            "high": {
              "value": 200,
              "code": "mg/dL",
              "system": "http://unitsofmeasure.org"
            }
          }
        ],
        "text": {
          "status": "generated",
          "div": "<div xmlns=\"http://www.w3.org/1999/xhtml\"><table class=\"hl7__eu__lab__report\"><tr><th>Test</th><th>07-Nov-2021</th><th>Reference&#xA0;Range</th><th>Unit</th></tr><tr><td>Cholesterol [Mass/volume] in Serum or Plasma</td><td>189.9</td><td>125 - 200</td><td></td><td>mg/dL</td></tr></table></div>"
        },
        "status": "final",
        "subject": {
          "reference": "urn:uuid:6e22e576-4fd3-4fe8-a7f1-0a7613e83c6f",
          "display": "Helene Andresen"
        },
        "effectiveDateTime": "2021-11-07T22:53:36Z",
        "specimen": {
          "reference": "urn:uuid:f39485d3-e17d-4a33-8d69-313eb361c528"
        }
      }
    },
    {
      "fullUrl": "urn:uuid:cebd6796-1cb9-4423-a12d-9b1df943889c",
      "resource": {
        "resourceType": "Observation",
        "id": "cebd6796-1cb9-4423-a12d-9b1df943889c",
        "meta": {
          "profile": [
            "http://hl7.eu/fhir/laboratory/StructureDefinition/Observation-resultslab-eu-lab"
          ]
        },
        "performer": [
          {
            "display": "The Central European Lab"
          }
        ],
        "category": [
          {
            "coding": [
              {
                "system": "http://terminology.hl7.org/CodeSystem/observation-category",
                "code": "laboratory"
              }
            ]
          }
        ],
        "code": {
          "coding": [
            {
              "code": "2571-8",
              "system": "http://loinc.org",
              "display": "Triglyceride [Mass/volume] in Serum or Plasma"
            }
          ],
          "text": "Triglyceride [Mass/volume] in Serum or Plasma"
        },
        "valueQuantity": {
          "system": "http://unitsofmeasure.org",
          "value": 154.9,
          "unit": "mg/dL",
          "code": "mg/dL"
        },
        "referenceRange": [
          {
            "low": {
              "value": 10,
              "code": "mg/dL",
              "system": "http://unitsofmeasure.org"
            }
          },
          {
            "high": {
              "value": 175,
              "code": "mg/dL",
              "system": "http://unitsofmeasure.org"
            }
          }
        ],
        "text": {
          "status": "generated",
          "div": "<div xmlns=\"http://www.w3.org/1999/xhtml\"><table class=\"hl7__eu__lab__report\"><tr><th>Test</th><th>07-Nov-2021</th><th>Reference&#xA0;Range</th><th>Unit</th></tr><tr><td>Triglyceride [Mass/volume] in Serum or Plasma</td><td>154.9</td><td>10 - 175</td><td></td><td>mg/dL</td></tr></table></div>"
        },
        "status": "final",
        "subject": {
          "reference": "urn:uuid:6e22e576-4fd3-4fe8-a7f1-0a7613e83c6f",
          "display": "Helene Andresen"
        },
        "effectiveDateTime": "2021-11-07T22:53:36Z",
        "specimen": {
          "reference": "urn:uuid:f39485d3-e17d-4a33-8d69-313eb361c528"
        }
      }
    },
    {
      "fullUrl": "urn:uuid:6d6091b0-4cab-4251-a857-d9330d66c18e",
      "resource": {
        "resourceType": "Observation",
        "id": "6d6091b0-4cab-4251-a857-d9330d66c18e",
        "meta": {
          "profile": [
            "http://hl7.eu/fhir/laboratory/StructureDefinition/Observation-resultslab-eu-lab"
          ]
        },
        "performer": [
          {
            "display": "The Central European Lab"
          }
        ],
        "category": [
          {
            "coding": [
              {
                "system": "http://terminology.hl7.org/CodeSystem/observation-category",
                "code": "laboratory"
              }
            ]
          }
        ],
        "code": {
          "coding": [
            {
              "code": "18262-6",
              "system": "http://loinc.org",
              "display": "Cholesterol in LDL [Mass/volume] in Serum or Plasma by Direct assay"
            }
          ],
          "text": "Cholesterol in LDL [Mass/volume] in Serum or Plasma by Direct assay"
        },
        "valueQuantity": {
          "system": "http://unitsofmeasure.org",
          "value": 104.4,
          "unit": "mg/dL",
          "code": "mg/dL"
        },
        "referenceRange": [
          {
            "low": {
              "value": 0,
              "code": "mg/dL",
              "system": "http://unitsofmeasure.org"
            }
          },
          {
            "high": {
              "value": 130,
              "code": "mg/dL",
              "system": "http://unitsofmeasure.org"
            }
          }
        ],
        "text": {
          "status": "generated",
          "div": "<div xmlns=\"http://www.w3.org/1999/xhtml\"><table class=\"hl7__eu__lab__report\"><tr><th>Test</th><th>07-Nov-2021</th><th>Reference&#xA0;Range</th><th>Unit</th></tr><tr><td>Cholesterol in LDL [Mass/volume] in Serum or Plasma by Direct assay</td><td>104.4</td><td>0 - 130</td><td></td><td>mg/dL</td></tr></table></div>"
        },
        "status": "final",
        "subject": {
          "reference": "urn:uuid:6e22e576-4fd3-4fe8-a7f1-0a7613e83c6f",
          "display": "Helene Andresen"
        },
        "effectiveDateTime": "2021-11-07T22:53:36Z",
        "specimen": {
          "reference": "urn:uuid:f39485d3-e17d-4a33-8d69-313eb361c528"
        }
      }
    },
    {
      "fullUrl": "urn:uuid:f1b8c153-6f9a-4557-9c17-14de78f347d2",
      "resource": {
        "resourceType": "Observation",
        "id": "f1b8c153-6f9a-4557-9c17-14de78f347d2",
        "meta": {
          "profile": [
            "http://hl7.eu/fhir/laboratory/StructureDefinition/Observation-resultslab-eu-lab"
          ]
        },
        "performer": [
          {
            "display": "The Central European Lab"
          }
        ],
        "category": [
          {
            "coding": [
              {
                "system": "http://terminology.hl7.org/CodeSystem/observation-category",
                "code": "laboratory"
              }
            ]
          }
        ],
        "code": {
          "coding": [
            {
              "code": "2085-9",
              "system": "http://loinc.org",
              "display": "Cholesterol in HDL [Mass/volume] in Serum or Plasma"
            }
          ],
          "text": "Cholesterol in HDL [Mass/volume] in Serum or Plasma"
        },
        "valueQuantity": {
          "system": "http://unitsofmeasure.org",
          "value": 69.7,
          "unit": "mg/dL",
          "code": "mg/dL"
        },
        "referenceRange": [
          {
            "low": {
              "value": 50,
              "code": "mg/dL",
              "system": "http://unitsofmeasure.org"
            }
          },
          {
            "high": {
              "value": 100,
              "code": "mg/dL",
              "system": "http://unitsofmeasure.org"
            }
          }
        ],
        "text": {
          "status": "generated",
          "div": "<div xmlns=\"http://www.w3.org/1999/xhtml\"><table class=\"hl7__eu__lab__report\"><tr><th>Test</th><th>07-Nov-2021</th><th>Reference&#xA0;Range</th><th>Unit</th></tr><tr><td>Cholesterol in HDL [Mass/volume] in Serum or Plasma</td><td>69.7</td><td>50 - 100</td><td></td><td>mg/dL</td></tr></table></div>"
        },
        "status": "final",
        "subject": {
          "reference": "urn:uuid:6e22e576-4fd3-4fe8-a7f1-0a7613e83c6f",
          "display": "Helene Andresen"
        },
        "effectiveDateTime": "2021-11-07T22:53:36Z",
        "specimen": {
          "reference": "urn:uuid:f39485d3-e17d-4a33-8d69-313eb361c528"
        }
      }
    },
    {
      "fullUrl": "urn:uuid:d16658c8-4010-4ae4-afda-66b31ff8f40c",
      "resource": {
        "resourceType": "Device",
        "id": "d16658c8-4010-4ae4-afda-66b31ff8f40c",
        "deviceName": [
          {
            "name": "SYNDERAI Synthetic Generator",
            "type": "manufacturer-name"
          }
        ],
        "version": [
          {
            "value": "5.0"
          }
        ],
        "text": {
          "status": "generated",
          "div": "<div xmlns=\"http://www.w3.org/1999/xhtml\">SYNDERAI Synthetic Generator v5.0</div>"
        },
        "status": "active\"",
        "distinctIdentifier": "synderai-generator-50",
        "manufacturer": "SYNDERAI Project"
      }
    },
    {
      "fullUrl": "urn:uuid:540d4970-1f9c-4191-8f43-d09267ab3f29",
      "resource": {
        "resourceType": "Provenance",
        "id": "540d4970-1f9c-4191-8f43-d09267ab3f29",
        "target": [
          {
            "reference": "Patient/6e22e576-4fd3-4fe8-a7f1-0a7613e83c6f"
          },
          {
            "reference": "Bundle/49a69904-0ccc-44aa-956b-8987f113e12b"
          },
          {
            "reference": "Composition/8594f259-892f-42f5-b4a1-8fceacc03e15"
          },
          {
            "reference": "PractitionerRole/78d7088d-0657-4d68-8053-01b68069348f"
          },
          {
            "reference": "Practitioner/4b4c690b-e4c9-4787-9cbc-4f5b8b286ce0"
          },
          {
            "reference": "PractitionerRole/f6e451ca-dcf5-4e95-b8f2-c50d27acf9bb"
          },
          {
            "reference": "Organization/41b33349-48d4-4106-8fc5-fbac8633e147"
          }
        ],
        "activity": {
          "text": "Synthetic Example Data Generation"
        },
        "policy": [
          "https://synderai.net/synderai-synthetic-data-policy"
        ],
        "agent": [
          {
            "type": {
              "text": "author"
            },
            "who": {
              "reference": "Device/d16658c8-4010-4ae4-afda-66b31ff8f40c"
            }
          }
        ],
        "reason": [
          {
            "text": "Interoperability Testing and Training (non-clinical use)"
          }
        ],
        "text": {
          "status": "generated",
          "div": "<div xmlns=\"http://www.w3.org/1999/xhtml\">Provenance for SYNDERAI Synthetic Example Data Resource</div>"
        },
        "recorded": "2021-11-07T23:53:36Z"
      }
    },
    {
      "fullUrl": "urn:uuid:78d7088d-0657-4d68-8053-01b68069348f",
      "resource": {
        "resourceType": "PractitionerRole",
        "id": "78d7088d-0657-4d68-8053-01b68069348f",
        "meta": {
          "profile": [
            "http://hl7.eu/fhir/base/StructureDefinition/practitionerRole-eu"
          ]
        },
        "text": {
          "status": "generated",
          "div": "<div xmlns=\"http://www.w3.org/1999/xhtml\">Laboratory Role Id: 78d7088d-0657-4d68-8053-01b68069348f</div>"
        },
        "practitioner": {
          "reference": "urn:uuid:4b4c690b-e4c9-4787-9cbc-4f5b8b286ce0"
        }
      }
    },
    {
      "fullUrl": "urn:uuid:4b4c690b-e4c9-4787-9cbc-4f5b8b286ce0",
      "resource": {
        "resourceType": "Practitioner",
        "id": "4b4c690b-e4c9-4787-9cbc-4f5b8b286ce0",
        "meta": {
          "profile": [
            "http://hl7.eu/fhir/base/StructureDefinition/practitioner-eu"
          ]
        },
        "identifier": [
          {
            "assigner": {
              "display": "HL7 Europe"
            },
            "system": "urn:oid:2.16.840.1.113883.2.51.999",
            "value": "e49730d3-c574-45b0-9054-5cb75d95eb2a"
          }
        ],
        "name": [
          {
            "prefix": [
              "dr"
            ],
            "given": [
              "Ex"
            ],
            "family": "Ample"
          }
        ],
        "address": [
          {
            "line": [
              "Laboratoire Central Européenne",
              "Boulevard du Jardin Botanique 32"
            ],
            "postalCode": "1000",
            "city": "Brussels",
            "country": "Belgium"
          }
        ],
        "text": {
          "status": "generated",
          "div": "<div xmlns=\"http://www.w3.org/1999/xhtml\">Laboratory: Laboratoire Central Européenne, 1000 Brussels, Belgium</div>"
        }
      }
    }
  ],
  "type": "document",
  "timestamp": "2021-11-07T23:53:36Z"
}
