{
  "resourceType": "Bundle",
  "id": "31e51539-2383-4869-a879-812fcf4f2d5f",
  "meta": {
    "profile": [
      "http://hl7.eu/fhir/laboratory/StructureDefinition/Bundle-eu-lab"
    ]
  },
  "identifier": {
    "assigner": {
      "display": "HL7 Europe"
    },
    "system": "urn:oid:2.16.840.1.113883.2.51.999",
    "value": "20a3d8a2-fcee-45ca-95bb-19a8e504f0f8"
  },
  "entry": [
    {
      "fullUrl": "urn:uuid:baf780bd-e8c1-49a9-9668-2a0596ecbba5",
      "resource": {
        "resourceType": "Composition",
        "id": "baf780bd-e8c1-49a9-9668-2a0596ecbba5",
        "meta": {
          "profile": [
            "http://hl7.eu/fhir/laboratory/StructureDefinition/Composition-eu-lab"
          ]
        },
        "identifier": {
          "assigner": {
            "display": "HL7 Europe"
          },
          "system": "urn:oid:2.16.840.1.113883.2.51.999",
          "value": "e7a638e7-61cb-46fc-8432-8d7fa87ed333"
        },
        "author": [
          {
            "reference": "urn:uuid:02333e67-f370-4b3b-8789-6baf8d0564c2"
          }
        ],
        "category": [
          {
            "coding": [
              {
                "code": "26436-6",
                "system": "http://loinc.org",
                "display": "Laboratory studies (set)"
              }
            ]
          }
        ],
        "type": {
          "coding": [
            {
              "code": "11502-2",
              "system": "http://loinc.org",
              "display": "Laboratory report"
            }
          ],
          "text": "Laboratory Report"
        },
        "section": [
          {
            "code": {
              "coding": [
                {
                  "code": "26436-6",
                  "system": "http://loinc.org",
                  "display": "Laboratory studies (set)"
                }
              ],
              "text": "Laboratory studies"
            },
            "section": [
              {
                "code": {
                  "coding": [
                    {
                      "code": "$18719-5",
                      "system": "http://loinc.org",
                      "display": "Chemistry studies (set)"
                    }
                  ],
                  "text": "Chemistry"
                },
                "entry": [
                  {
                    "reference": "urn:uuid:c153d055-a7d9-45d9-927f-9ad80163a27f"
                  },
                  {
                    "reference": "urn:uuid:f96a4491-56bd-43f6-821c-09ca87687ef5"
                  },
                  {
                    "reference": "urn:uuid:953e82a1-df99-4a45-91de-623780af536c"
                  },
                  {
                    "reference": "urn:uuid:b1a1f32b-230d-4146-b9ba-5f0ec9313f62"
                  },
                  {
                    "reference": "urn:uuid:61b5e420-dff0-47f0-b5b1-e58f1ce3c4af"
                  },
                  {
                    "reference": "urn:uuid:fc841fc6-52e2-4958-9aa0-4b82cc9be5d9"
                  },
                  {
                    "reference": "urn:uuid:2ab62567-94f6-40ee-b8c0-b92b57c905b0"
                  },
                  {
                    "reference": "urn:uuid:83092cdc-499c-46b8-9796-3f6b8539986e"
                  },
                  {
                    "reference": "urn:uuid:897a6595-b788-4719-aade-10198d39c5bc"
                  },
                  {
                    "reference": "urn:uuid:937dba86-7fa8-422e-a0bd-62ce8cc79ecf"
                  },
                  {
                    "reference": "urn:uuid:7315b0eb-06c0-4085-bcfc-3dc300858a91"
                  },
                  {
                    "reference": "urn:uuid:0a3d1329-4057-4d56-80e1-90af7ca0987d"
                  },
                  {
                    "reference": "urn:uuid:33c27001-dc21-4971-9f89-92746afb82a8"
                  },
                  {
                    "reference": "urn:uuid:e235b5d6-23e6-43c3-85b0-5bd7de9071f2"
                  },
                  {
                    "reference": "urn:uuid:57baef2d-7977-4d76-bbee-0c1db39efcc6"
                  },
                  {
                    "reference": "urn:uuid:ddc28a2f-1641-46a4-86b9-c34026082353"
                  },
                  {
                    "reference": "urn:uuid:bb135cc8-a815-4f75-bcad-a602ffcbf03a"
                  },
                  {
                    "reference": "urn:uuid:5d346776-ed48-48e4-a270-0860e4248523"
                  },
                  {
                    "reference": "urn:uuid:578efbcc-e0d9-4be4-b518-df7a2ae8cc6a"
                  }
                ],
                "text": {
                  "status": "generated",
                  "div": "<div xmlns=\"http://www.w3.org/1999/xhtml\"><h3>Chemistry</h3><table class=\"hl7__eu__lab__report\"><thead><tr><th>Test</th><th>20-MAR-2017</th><th>Reference&#xA0;Range</th><th>Unit</th></tr></thead><tbody><tr><td>Glucose [Mass/volume] in Blood</td><td>82.7</td><td>70 - 140</td><td>mg/dL</td></tr><tr><td>Urea nitrogen [Mass/volume] in Blood</td><td>18.8</td><td>7 - 20</td><td>mg/dL</td></tr><tr><td>Creatinine [Mass/volume] in Blood</td><td><strong>3.3 H</strong></td><td>0.6 - 1.1</td><td>mg/dL</td></tr><tr><td>Calcium [Mass/volume] in Blood</td><td>9.4</td><td>8.5 - 10.4</td><td>mg/dL</td></tr><tr><td>Sodium [Moles/volume] in Blood</td><td>141.8</td><td>135 - 145</td><td>mmol/L</td></tr><tr><td>Potassium [Moles/volume] in Blood</td><td>4.7</td><td>3.5 - 5.1</td><td>mmol/L</td></tr><tr><td>Chloride [Moles/volume] in Blood</td><td>106.5</td><td>98 - 108</td><td>mmol/L</td></tr><tr><td>Carbon dioxide, total [Moles/volume] in Blood</td><td>22.7</td><td>22 - 29</td><td>mmol/L</td></tr><tr><td>Protein [Mass/volume] in Serum or Plasma</td><td>6.2</td><td>6 - 8.3</td><td>g/dL</td></tr><tr><td>Albumin [Mass/volume] in Serum or Plasma</td><td>4.2</td><td>3.4 - 5</td><td>g/dL</td></tr><tr><td>Globulin [Mass/volume] in Serum by calculation</td><td>2.3</td><td>2 - 3.5</td><td>g/L</td></tr><tr><td>Bilirubin.total [Mass/volume] in Serum or Plasma</td><td>0.5</td><td>0.2 - 1.2</td><td>mg/dL</td></tr><tr><td>Alkaline phosphatase [Enzymatic activity/volume] in Serum or Plasma</td><td><strong>108.3 H</strong></td><td>44 - 104</td><td>U/L</td></tr><tr><td>Alanine aminotransferase [Enzymatic activity/volume] in Serum or Plasma</td><td>33.8</td><td>13 - 36</td><td>U/L</td></tr><tr><td>Aspartate aminotransferase [Enzymatic activity/volume] in Serum or Plasma</td><td>37.1</td><td>10 - 40</td><td>U/L</td></tr><tr><td>Cholesterol [Mass/volume] in Serum or Plasma</td><td>195.9</td><td>130 - 200</td><td>mg/dL</td></tr><tr><td>Triglyceride [Mass/volume] in Serum or Plasma</td><td><strong>194.3 H</strong></td><td>35 - 175</td><td>mg/dL</td></tr><tr><td>Cholesterol in LDL [Mass/volume] in Serum or Plasma by Direct assay</td><td>115.1</td><td>0 - 190</td><td>mg/dL</td></tr><tr><td>Cholesterol in HDL [Mass/volume] in Serum or Plasma</td><td><strong>48.5 L</strong></td><td>50 - 100</td><td>mg/dL</td></tr></tbody></table></div>"
                },
                "title": "Chemistry"
              }
            ],
            "title": "Laboratory Report"
          },
          {
            "text": {
              "status": "generated",
              "div": "<div xmlns=\"http://www.w3.org/1999/xhtml\"><h3>Annotation</h3><table class=\"hl7__eu__lab__report\"><tr><th>Conclusion and Recommendations based on this report and previous findings known to us</th></tr><tr><td>The patient shows significantly elevated creatinine, suggesting impaired renal function, and mildly elevated alkaline phosphatase, which may indicate hepatobiliary or bone involvement. Triglycerides are high and HDL is low, indicating increased cardiovascular risk. Other parameters are within normal limits. Recommend further evaluation of renal function and cardiovascular risk management.</td></tr></table></div>"
            },
            "code": {
              "coding": [
                {
                  "system": "http://loinc.org",
                  "code": "48767-8",
                  "display": "Annotation comment"
                }
              ]
            },
            "title": "Annotation comment"
          }
        ],
        "status": "final",
        "subject": {
          "reference": "urn:uuid:9f71b57d-b524-4252-9630-ad543139b165",
          "display": "Eileen Taylor"
        },
        "date": "2017-03-20T06:47:02Z",
        "title": "Laboratory Report",
        "confidentiality": "N"
      }
    },
    {
      "fullUrl": "urn:uuid:d93f1a98-e543-45b5-a087-f22c19c7daf6",
      "resource": {
        "resourceType": "DiagnosticReport",
        "id": "d93f1a98-e543-45b5-a087-f22c19c7daf6",
        "meta": {
          "profile": [
            "http://hl7.eu/fhir/laboratory/StructureDefinition/DiagnosticReport-eu-lab"
          ]
        },
        "identifier": [
          {
            "assigner": {
              "display": "HL7 Europe"
            },
            "system": "urn:oid:2.16.840.1.113883.2.51.999",
            "value": "9e1030e3-f3e5-4b5b-a635-cea070049c67"
          }
        ],
        "extension": [
          {
            "url": "http://hl7.org/fhir/5.0/StructureDefinition/extension-DiagnosticReport.composition",
            "valueReference": {
              "reference": "urn:uuid:e7a638e7-61cb-46fc-8432-8d7fa87ed333"
            }
          }
        ],
        "category": [
          {
            "coding": [
              {
                "code": "26436-6",
                "system": "http://loinc.org",
                "display": "Laboratory studies (set)"
              }
            ]
          }
        ],
        "specimen": [
          {
            "reference": "urn:uuid:d551b5b3-3282-4731-8ed5-0a9ad1ba539c"
          },
          {
            "reference": "urn:uuid:b29d6c22-09d3-4d77-8b05-01e246514832"
          },
          {
            "reference": "urn:uuid:e677b26d-ec7d-4c8a-8239-0f7f034a202d"
          }
        ],
        "result": [
          {
            "reference": "urn:uuid:c153d055-a7d9-45d9-927f-9ad80163a27f"
          },
          {
            "reference": "urn:uuid:f96a4491-56bd-43f6-821c-09ca87687ef5"
          },
          {
            "reference": "urn:uuid:953e82a1-df99-4a45-91de-623780af536c"
          },
          {
            "reference": "urn:uuid:b1a1f32b-230d-4146-b9ba-5f0ec9313f62"
          },
          {
            "reference": "urn:uuid:61b5e420-dff0-47f0-b5b1-e58f1ce3c4af"
          },
          {
            "reference": "urn:uuid:fc841fc6-52e2-4958-9aa0-4b82cc9be5d9"
          },
          {
            "reference": "urn:uuid:2ab62567-94f6-40ee-b8c0-b92b57c905b0"
          },
          {
            "reference": "urn:uuid:83092cdc-499c-46b8-9796-3f6b8539986e"
          },
          {
            "reference": "urn:uuid:897a6595-b788-4719-aade-10198d39c5bc"
          },
          {
            "reference": "urn:uuid:937dba86-7fa8-422e-a0bd-62ce8cc79ecf"
          },
          {
            "reference": "urn:uuid:7315b0eb-06c0-4085-bcfc-3dc300858a91"
          },
          {
            "reference": "urn:uuid:0a3d1329-4057-4d56-80e1-90af7ca0987d"
          },
          {
            "reference": "urn:uuid:33c27001-dc21-4971-9f89-92746afb82a8"
          },
          {
            "reference": "urn:uuid:e235b5d6-23e6-43c3-85b0-5bd7de9071f2"
          },
          {
            "reference": "urn:uuid:57baef2d-7977-4d76-bbee-0c1db39efcc6"
          },
          {
            "reference": "urn:uuid:ddc28a2f-1641-46a4-86b9-c34026082353"
          },
          {
            "reference": "urn:uuid:bb135cc8-a815-4f75-bcad-a602ffcbf03a"
          },
          {
            "reference": "urn:uuid:5d346776-ed48-48e4-a270-0860e4248523"
          },
          {
            "reference": "urn:uuid:578efbcc-e0d9-4be4-b518-df7a2ae8cc6a"
          }
        ],
        "status": "registered",
        "code": {
          "coding": [
            {
              "code": "11502-2",
              "system": "http://loinc.org",
              "display": "Laboratory report"
            }
          ]
        },
        "subject": {
          "reference": "urn:uuid:9f71b57d-b524-4252-9630-ad543139b165",
          "display": "Eileen Taylor"
        }
      }
    },
    {
      "fullUrl": "urn:uuid:9f71b57d-b524-4252-9630-ad543139b165",
      "resource": {
        "resourceType": "Patient",
        "id": "9f71b57d-b524-4252-9630-ad543139b165",
        "meta": {
          "security": [
            {
              "system": "http://terminology.hl7.org/CodeSystem/v3-ActReason",
              "code": "HTEST"
            },
            {
              "system": "http://terminology.hl7.org/CodeSystem/v3-ActReason",
              "code": "TRAIN"
            }
          ],
          "tag": [
            {
              "system": "https://synderai.net/fhir/CodeSystem/tags",
              "code": "synthetic",
              "display": "SYNDERAI Synthetic data"
            }
          ],
          "profile": [
            "http://hl7.eu/fhir/base/StructureDefinition/patient-eu-core"
          ]
        },
        "identifier": [
          {
            "type": {
              "coding": [
                {
                  "code": "PT",
                  "system": "http://terminology.hl7.org/CodeSystem/v2-0203"
                }
              ]
            },
            "system": "http://ec.europa.eu/identifier/eci",
            "value": "6172-576075-7"
          },
          {
            "type": {
              "coding": [
                {
                  "code": "MR",
                  "system": "http://terminology.hl7.org/CodeSystem/v2-0203"
                }
              ]
            },
            "system": "http://local.setting.eu/identifier",
            "value": "f7f175da-cf0d-5686-8800-840d9ab7b47b"
          }
        ],
        "name": [
          {
            "family": "Taylor"
          },
          {
            "given": [
              "Eileen"
            ]
          },
          {
            "text": "Eileen Taylor"
          }
        ],
        "address": [
          {
            "line": [
              "39 Slater harbors"
            ],
            "use": "home",
            "type": "physical",
            "postalCode": "LE17",
            "city": "Smithtown",
            "country": "United Kingdom"
          }
        ],
        "telecom": [
          {
            "system": "phone",
            "value": "+44(0)1614960460"
          }
        ],
        "extension": [
          {
            "url": "http://hl7.org/fhir/StructureDefinition/patient-nationality",
            "valueCodeableConcept": {
              "coding": [
                {
                  "code": "GB",
                  "system": "http://hl7.org/fhir/ValueSet/country"
                }
              ]
            }
          }
        ],
        "text": {
          "status": "generated",
          "div": "<div xmlns=\"http://www.w3.org/1999/xhtml\"><table class=\"hl7__ips\"><tr><td>Eileen Taylor</td><td>female</td><td>11-Dec-1951</td></tr></table></div>"
        },
        "gender": "female",
        "birthDate": "1951-12-11"
      }
    },
    {
      "fullUrl": "urn:uuid:16b9b9f7-d2f2-4c93-83d6-b44018dc6912",
      "resource": {
        "resourceType": "ServiceRequest",
        "id": "16b9b9f7-d2f2-4c93-83d6-b44018dc6912",
        "meta": {
          "profile": [
            "http://hl7.eu/fhir/laboratory/StructureDefinition/ServiceRequest-eu-lab"
          ]
        },
        "identifier": [
          {
            "system": "http://example.org",
            "value": "65393797-c172-4c2c-9afb-b945b98be37e"
          }
        ],
        "specimen": [
          {
            "reference": "urn:uuid:d551b5b3-3282-4731-8ed5-0a9ad1ba539c"
          },
          {
            "reference": "urn:uuid:b29d6c22-09d3-4d77-8b05-01e246514832"
          },
          {
            "reference": "urn:uuid:e677b26d-ec7d-4c8a-8239-0f7f034a202d"
          }
        ],
        "reasonCode": [
          {
            "coding": [
              {
                "code": "203082005",
                "system": "http://snomed.info/sct",
                "display": "Fibromyalgia"
              }
            ]
          },
          {
            "coding": [
              {
                "code": "239873007",
                "system": "http://snomed.info/sct",
                "display": "Osteoarthritis of knee"
              }
            ]
          },
          {
            "coding": [
              {
                "code": "55822004",
                "system": "http://snomed.info/sct",
                "display": "Hyperlipidemia"
              }
            ]
          },
          {
            "coding": [
              {
                "code": "254837009",
                "system": "http://snomed.info/sct",
                "display": "Malignant neoplasm of breast"
              }
            ]
          },
          {
            "coding": [
              {
                "code": "197927001",
                "system": "http://snomed.info/sct",
                "display": "Recurrent urinary tract infection"
              }
            ]
          }
        ],
        "status": "active",
        "intent": "order",
        "code": {
          "coding": [
            {
              "code": "108252007",
              "system": "http://snomed.info/sct",
              "display": "Laboratory procedure"
            }
          ]
        },
        "subject": {
          "reference": "urn:uuid:9f71b57d-b524-4252-9630-ad543139b165",
          "display": "Eileen Taylor"
        },
        "requester": {
          "reference": "urn:uuid:c81d6a89-b7b0-4803-bfe8-450a7d6c1fa3"
        }
      }
    },
    {
      "fullUrl": "urn:uuid:c81d6a89-b7b0-4803-bfe8-450a7d6c1fa3",
      "resource": {
        "resourceType": "PractitionerRole",
        "id": "c81d6a89-b7b0-4803-bfe8-450a7d6c1fa3",
        "meta": {
          "profile": [
            "http://hl7.eu/fhir/base/StructureDefinition/practitionerRole-eu"
          ]
        },
        "text": {
          "status": "generated",
          "div": "<div xmlns=\"http://www.w3.org/1999/xhtml\">Provider Role Id: c81d6a89-b7b0-4803-bfe8-450a7d6c1fa3</div>"
        },
        "organization": {
          "reference": "urn:uuid:337acc69-bea5-4427-9e9b-6e54a3eadca7"
        }
      }
    },
    {
      "fullUrl": "urn:uuid:337acc69-bea5-4427-9e9b-6e54a3eadca7",
      "resource": {
        "resourceType": "Organization",
        "id": "337acc69-bea5-4427-9e9b-6e54a3eadca7",
        "meta": {
          "profile": [
            "http://hl7.eu/fhir/base/StructureDefinition/organization-eu"
          ]
        },
        "identifier": [
          {
            "assigner": {
              "display": "HL7 Europe"
            },
            "system": "urn:oid:2.16.840.1.113883.2.51.999",
            "value": "ee43ab54-4ece-4c38-a76c-ca97d85828ca"
          }
        ],
        "address": [
          {
            "city": "Leicester",
            "postalCode": "LE2 7",
            "country": "United Kingdom"
          }
        ],
        "text": {
          "status": "generated",
          "div": "<div xmlns=\"http://www.w3.org/1999/xhtml\">Provider Organization: Leicester Royal Infirmary</div>"
        },
        "name": "Leicester Royal Infirmary"
      }
    },
    {
      "fullUrl": "urn:uuid:d551b5b3-3282-4731-8ed5-0a9ad1ba539c",
      "resource": {
        "resourceType": "Specimen",
        "id": "d551b5b3-3282-4731-8ed5-0a9ad1ba539c",
        "meta": {
          "profile": [
            "http://hl7.eu/fhir/laboratory/StructureDefinition/Specimen-eu-lab"
          ]
        },
        "collection": {
          "collectedDateTime": "2017-03-20"
        },
        "text": {
          "status": "generated",
          "div": "<div xmlns=\"http://www.w3.org/1999/xhtml\"><table class=\"hl7__eu__lab__report\"><tr><th>Specimen</th><th>Collection Date</th></tr><tr><td>Whole blood specimen (specimen)</td><td><span class=\"nb\">20-Mar-2017</span></td></tr></table></div>"
        },
        "type": {
          "coding": [
            {
              "code": "258580003",
              "system": "http://snomed.info/sct",
              "display": "Whole blood specimen (specimen)"
            }
          ]
        }
      }
    },
    {
      "fullUrl": "urn:uuid:b29d6c22-09d3-4d77-8b05-01e246514832",
      "resource": {
        "resourceType": "Specimen",
        "id": "b29d6c22-09d3-4d77-8b05-01e246514832",
        "meta": {
          "profile": [
            "http://hl7.eu/fhir/laboratory/StructureDefinition/Specimen-eu-lab"
          ]
        },
        "collection": {
          "collectedDateTime": "2017-03-20"
        },
        "text": {
          "status": "generated",
          "div": "<div xmlns=\"http://www.w3.org/1999/xhtml\"><table class=\"hl7__eu__lab__report\"><tr><th>Specimen</th><th>Collection Date</th></tr><tr><td>Acellular blood (serum or plasma) specimen</td><td><span class=\"nb\">20-Mar-2017</span></td></tr></table></div>"
        },
        "type": {
          "coding": [
            {
              "code": "122592007",
              "system": "http://snomed.info/sct",
              "display": "Acellular blood (serum or plasma) specimen"
            }
          ]
        }
      }
    },
    {
      "fullUrl": "urn:uuid:e677b26d-ec7d-4c8a-8239-0f7f034a202d",
      "resource": {
        "resourceType": "Specimen",
        "id": "e677b26d-ec7d-4c8a-8239-0f7f034a202d",
        "meta": {
          "profile": [
            "http://hl7.eu/fhir/laboratory/StructureDefinition/Specimen-eu-lab"
          ]
        },
        "collection": {
          "collectedDateTime": "2017-03-20"
        },
        "text": {
          "status": "generated",
          "div": "<div xmlns=\"http://www.w3.org/1999/xhtml\"><table class=\"hl7__eu__lab__report\"><tr><th>Specimen</th><th>Collection Date</th></tr><tr><td>Serum specimen</td><td><span class=\"nb\">20-Mar-2017</span></td></tr></table></div>"
        },
        "type": {
          "coding": [
            {
              "code": "119364003",
              "system": "http://snomed.info/sct",
              "display": "Serum specimen"
            }
          ]
        }
      }
    },
    {
      "fullUrl": "urn:uuid:c153d055-a7d9-45d9-927f-9ad80163a27f",
      "resource": {
        "resourceType": "Observation",
        "id": "c153d055-a7d9-45d9-927f-9ad80163a27f",
        "meta": {
          "profile": [
            "http://hl7.eu/fhir/laboratory/StructureDefinition/Observation-resultslab-eu-lab"
          ]
        },
        "performer": [
          {
            "display": "The Central European Lab"
          }
        ],
        "category": [
          {
            "coding": [
              {
                "system": "http://terminology.hl7.org/CodeSystem/observation-category",
                "code": "laboratory"
              }
            ]
          }
        ],
        "code": {
          "coding": [
            {
              "code": "2339-0",
              "system": "http://loinc.org",
              "display": "Glucose [Mass/volume] in Blood"
            }
          ],
          "text": "Glucose [Mass/volume] in Blood"
        },
        "valueQuantity": {
          "system": "http://unitsofmeasure.org",
          "value": 82.7,
          "unit": "mg/dL",
          "code": "mg/dL"
        },
        "referenceRange": [
          {
            "low": {
              "value": 70,
              "code": "mg/dL",
              "system": "http://unitsofmeasure.org"
            }
          },
          {
            "high": {
              "value": 140,
              "code": "mg/dL",
              "system": "http://unitsofmeasure.org"
            }
          }
        ],
        "text": {
          "status": "generated",
          "div": "<div xmlns=\"http://www.w3.org/1999/xhtml\"><table class=\"hl7__eu__lab__report\"><tr><th>Test</th><th>20-Mar-2017</th><th>Reference&#xA0;Range</th><th>Unit</th></tr><tr><td>Glucose [Mass/volume] in Blood</td><td>82.7</td><td>70 - 140</td><td></td><td>mg/dL</td></tr></table></div>"
        },
        "status": "final",
        "subject": {
          "reference": "urn:uuid:9f71b57d-b524-4252-9630-ad543139b165",
          "display": "Eileen Taylor"
        },
        "effectiveDateTime": "2017-03-20T05:47:02Z",
        "specimen": {
          "reference": "urn:uuid:d551b5b3-3282-4731-8ed5-0a9ad1ba539c"
        }
      }
    },
    {
      "fullUrl": "urn:uuid:f96a4491-56bd-43f6-821c-09ca87687ef5",
      "resource": {
        "resourceType": "Observation",
        "id": "f96a4491-56bd-43f6-821c-09ca87687ef5",
        "meta": {
          "profile": [
            "http://hl7.eu/fhir/laboratory/StructureDefinition/Observation-resultslab-eu-lab"
          ]
        },
        "performer": [
          {
            "display": "The Central European Lab"
          }
        ],
        "category": [
          {
            "coding": [
              {
                "system": "http://terminology.hl7.org/CodeSystem/observation-category",
                "code": "laboratory"
              }
            ]
          }
        ],
        "code": {
          "coding": [
            {
              "code": "6299-2",
              "system": "http://loinc.org",
              "display": "Urea nitrogen [Mass/volume] in Blood"
            }
          ],
          "text": "Urea nitrogen [Mass/volume] in Blood"
        },
        "valueQuantity": {
          "system": "http://unitsofmeasure.org",
          "value": 18.8,
          "unit": "mg/dL",
          "code": "mg/dL"
        },
        "referenceRange": [
          {
            "low": {
              "value": 7,
              "code": "mg/dL",
              "system": "http://unitsofmeasure.org"
            }
          },
          {
            "high": {
              "value": 20,
              "code": "mg/dL",
              "system": "http://unitsofmeasure.org"
            }
          }
        ],
        "text": {
          "status": "generated",
          "div": "<div xmlns=\"http://www.w3.org/1999/xhtml\"><table class=\"hl7__eu__lab__report\"><tr><th>Test</th><th>20-Mar-2017</th><th>Reference&#xA0;Range</th><th>Unit</th></tr><tr><td>Urea nitrogen [Mass/volume] in Blood</td><td>18.8</td><td>7 - 20</td><td></td><td>mg/dL</td></tr></table></div>"
        },
        "status": "final",
        "subject": {
          "reference": "urn:uuid:9f71b57d-b524-4252-9630-ad543139b165",
          "display": "Eileen Taylor"
        },
        "effectiveDateTime": "2017-03-20T05:47:02Z",
        "specimen": {
          "reference": "urn:uuid:d551b5b3-3282-4731-8ed5-0a9ad1ba539c"
        }
      }
    },
    {
      "fullUrl": "urn:uuid:953e82a1-df99-4a45-91de-623780af536c",
      "resource": {
        "resourceType": "Observation",
        "id": "953e82a1-df99-4a45-91de-623780af536c",
        "meta": {
          "profile": [
            "http://hl7.eu/fhir/laboratory/StructureDefinition/Observation-resultslab-eu-lab"
          ]
        },
        "performer": [
          {
            "display": "The Central European Lab"
          }
        ],
        "category": [
          {
            "coding": [
              {
                "system": "http://terminology.hl7.org/CodeSystem/observation-category",
                "code": "laboratory"
              }
            ]
          }
        ],
        "code": {
          "coding": [
            {
              "code": "38483-4",
              "system": "http://loinc.org",
              "display": "Creatinine [Mass/volume] in Blood"
            }
          ],
          "text": "Creatinine [Mass/volume] in Blood"
        },
        "valueQuantity": {
          "system": "http://unitsofmeasure.org",
          "value": 3.3,
          "unit": "mg/dL",
          "code": "mg/dL"
        },
        "referenceRange": [
          {
            "low": {
              "value": 0.6,
              "code": "mg/dL",
              "system": "http://unitsofmeasure.org"
            }
          },
          {
            "high": {
              "value": 1.1,
              "code": "mg/dL",
              "system": "http://unitsofmeasure.org"
            }
          }
        ],
        "interpretation": [
          {
            "coding": [
              {
                "code": "H",
                "system": "http://terminology.hl7.org/CodeSystem/v3-ObservationInterpretation",
                "display": "High"
              }
            ]
          }
        ],
        "text": {
          "status": "generated",
          "div": "<div xmlns=\"http://www.w3.org/1999/xhtml\"><table class=\"hl7__eu__lab__report\"><tr><th>Test</th><th>20-Mar-2017</th><th>Reference&#xA0;Range</th><th>Unit</th></tr><tr><td>Creatinine [Mass/volume] in Blood</td><td>3.3</td><td>0.6 - 1.1</td><td>H</td><td>mg/dL</td></tr></table></div>"
        },
        "status": "final",
        "subject": {
          "reference": "urn:uuid:9f71b57d-b524-4252-9630-ad543139b165",
          "display": "Eileen Taylor"
        },
        "effectiveDateTime": "2017-03-20T05:47:02Z",
        "specimen": {
          "reference": "urn:uuid:d551b5b3-3282-4731-8ed5-0a9ad1ba539c"
        }
      }
    },
    {
      "fullUrl": "urn:uuid:b1a1f32b-230d-4146-b9ba-5f0ec9313f62",
      "resource": {
        "resourceType": "Observation",
        "id": "b1a1f32b-230d-4146-b9ba-5f0ec9313f62",
        "meta": {
          "profile": [
            "http://hl7.eu/fhir/laboratory/StructureDefinition/Observation-resultslab-eu-lab"
          ]
        },
        "performer": [
          {
            "display": "The Central European Lab"
          }
        ],
        "category": [
          {
            "coding": [
              {
                "system": "http://terminology.hl7.org/CodeSystem/observation-category",
                "code": "laboratory"
              }
            ]
          }
        ],
        "code": {
          "coding": [
            {
              "code": "49765-1",
              "system": "http://loinc.org",
              "display": "Calcium [Mass/volume] in Blood"
            }
          ],
          "text": "Calcium [Mass/volume] in Blood"
        },
        "valueQuantity": {
          "system": "http://unitsofmeasure.org",
          "value": 9.4,
          "unit": "mg/dL",
          "code": "mg/dL"
        },
        "referenceRange": [
          {
            "low": {
              "value": 8.5,
              "code": "mg/dL",
              "system": "http://unitsofmeasure.org"
            }
          },
          {
            "high": {
              "value": 10.4,
              "code": "mg/dL",
              "system": "http://unitsofmeasure.org"
            }
          }
        ],
        "text": {
          "status": "generated",
          "div": "<div xmlns=\"http://www.w3.org/1999/xhtml\"><table class=\"hl7__eu__lab__report\"><tr><th>Test</th><th>20-Mar-2017</th><th>Reference&#xA0;Range</th><th>Unit</th></tr><tr><td>Calcium [Mass/volume] in Blood</td><td>9.4</td><td>8.5 - 10.4</td><td></td><td>mg/dL</td></tr></table></div>"
        },
        "status": "final",
        "subject": {
          "reference": "urn:uuid:9f71b57d-b524-4252-9630-ad543139b165",
          "display": "Eileen Taylor"
        },
        "effectiveDateTime": "2017-03-20T05:47:02Z",
        "specimen": {
          "reference": "urn:uuid:d551b5b3-3282-4731-8ed5-0a9ad1ba539c"
        }
      }
    },
    {
      "fullUrl": "urn:uuid:61b5e420-dff0-47f0-b5b1-e58f1ce3c4af",
      "resource": {
        "resourceType": "Observation",
        "id": "61b5e420-dff0-47f0-b5b1-e58f1ce3c4af",
        "meta": {
          "profile": [
            "http://hl7.eu/fhir/laboratory/StructureDefinition/Observation-resultslab-eu-lab"
          ]
        },
        "performer": [
          {
            "display": "The Central European Lab"
          }
        ],
        "category": [
          {
            "coding": [
              {
                "system": "http://terminology.hl7.org/CodeSystem/observation-category",
                "code": "laboratory"
              }
            ]
          }
        ],
        "code": {
          "coding": [
            {
              "code": "2947-0",
              "system": "http://loinc.org",
              "display": "Sodium [Moles/volume] in Blood"
            }
          ],
          "text": "Sodium [Moles/volume] in Blood"
        },
        "valueQuantity": {
          "system": "http://unitsofmeasure.org",
          "value": 141.8,
          "unit": "mmol/L",
          "code": "mmol/L"
        },
        "referenceRange": [
          {
            "low": {
              "value": 135,
              "code": "mmol/L",
              "system": "http://unitsofmeasure.org"
            }
          },
          {
            "high": {
              "value": 145,
              "code": "mmol/L",
              "system": "http://unitsofmeasure.org"
            }
          }
        ],
        "text": {
          "status": "generated",
          "div": "<div xmlns=\"http://www.w3.org/1999/xhtml\"><table class=\"hl7__eu__lab__report\"><tr><th>Test</th><th>20-Mar-2017</th><th>Reference&#xA0;Range</th><th>Unit</th></tr><tr><td>Sodium [Moles/volume] in Blood</td><td>141.8</td><td>135 - 145</td><td></td><td>mmol/L</td></tr></table></div>"
        },
        "status": "final",
        "subject": {
          "reference": "urn:uuid:9f71b57d-b524-4252-9630-ad543139b165",
          "display": "Eileen Taylor"
        },
        "effectiveDateTime": "2017-03-20T05:47:02Z",
        "specimen": {
          "reference": "urn:uuid:d551b5b3-3282-4731-8ed5-0a9ad1ba539c"
        }
      }
    },
    {
      "fullUrl": "urn:uuid:fc841fc6-52e2-4958-9aa0-4b82cc9be5d9",
      "resource": {
        "resourceType": "Observation",
        "id": "fc841fc6-52e2-4958-9aa0-4b82cc9be5d9",
        "meta": {
          "profile": [
            "http://hl7.eu/fhir/laboratory/StructureDefinition/Observation-resultslab-eu-lab"
          ]
        },
        "performer": [
          {
            "display": "The Central European Lab"
          }
        ],
        "category": [
          {
            "coding": [
              {
                "system": "http://terminology.hl7.org/CodeSystem/observation-category",
                "code": "laboratory"
              }
            ]
          }
        ],
        "code": {
          "coding": [
            {
              "code": "6298-4",
              "system": "http://loinc.org",
              "display": "Potassium [Moles/volume] in Blood"
            }
          ],
          "text": "Potassium [Moles/volume] in Blood"
        },
        "valueQuantity": {
          "system": "http://unitsofmeasure.org",
          "value": 4.7,
          "unit": "mmol/L",
          "code": "mmol/L"
        },
        "referenceRange": [
          {
            "low": {
              "value": 3.5,
              "code": "mmol/L",
              "system": "http://unitsofmeasure.org"
            }
          },
          {
            "high": {
              "value": 5.1,
              "code": "mmol/L",
              "system": "http://unitsofmeasure.org"
            }
          }
        ],
        "text": {
          "status": "generated",
          "div": "<div xmlns=\"http://www.w3.org/1999/xhtml\"><table class=\"hl7__eu__lab__report\"><tr><th>Test</th><th>20-Mar-2017</th><th>Reference&#xA0;Range</th><th>Unit</th></tr><tr><td>Potassium [Moles/volume] in Blood</td><td>4.7</td><td>3.5 - 5.1</td><td></td><td>mmol/L</td></tr></table></div>"
        },
        "status": "final",
        "subject": {
          "reference": "urn:uuid:9f71b57d-b524-4252-9630-ad543139b165",
          "display": "Eileen Taylor"
        },
        "effectiveDateTime": "2017-03-20T05:47:02Z",
        "specimen": {
          "reference": "urn:uuid:d551b5b3-3282-4731-8ed5-0a9ad1ba539c"
        }
      }
    },
    {
      "fullUrl": "urn:uuid:2ab62567-94f6-40ee-b8c0-b92b57c905b0",
      "resource": {
        "resourceType": "Observation",
        "id": "2ab62567-94f6-40ee-b8c0-b92b57c905b0",
        "meta": {
          "profile": [
            "http://hl7.eu/fhir/laboratory/StructureDefinition/Observation-resultslab-eu-lab"
          ]
        },
        "performer": [
          {
            "display": "The Central European Lab"
          }
        ],
        "category": [
          {
            "coding": [
              {
                "system": "http://terminology.hl7.org/CodeSystem/observation-category",
                "code": "laboratory"
              }
            ]
          }
        ],
        "code": {
          "coding": [
            {
              "code": "2069-3",
              "system": "http://loinc.org",
              "display": "Chloride [Moles/volume] in Blood"
            }
          ],
          "text": "Chloride [Moles/volume] in Blood"
        },
        "valueQuantity": {
          "system": "http://unitsofmeasure.org",
          "value": 106.5,
          "unit": "mmol/L",
          "code": "mmol/L"
        },
        "referenceRange": [
          {
            "low": {
              "value": 98,
              "code": "mmol/L",
              "system": "http://unitsofmeasure.org"
            }
          },
          {
            "high": {
              "value": 108,
              "code": "mmol/L",
              "system": "http://unitsofmeasure.org"
            }
          }
        ],
        "text": {
          "status": "generated",
          "div": "<div xmlns=\"http://www.w3.org/1999/xhtml\"><table class=\"hl7__eu__lab__report\"><tr><th>Test</th><th>20-Mar-2017</th><th>Reference&#xA0;Range</th><th>Unit</th></tr><tr><td>Chloride [Moles/volume] in Blood</td><td>106.5</td><td>98 - 108</td><td></td><td>mmol/L</td></tr></table></div>"
        },
        "status": "final",
        "subject": {
          "reference": "urn:uuid:9f71b57d-b524-4252-9630-ad543139b165",
          "display": "Eileen Taylor"
        },
        "effectiveDateTime": "2017-03-20T05:47:02Z",
        "specimen": {
          "reference": "urn:uuid:d551b5b3-3282-4731-8ed5-0a9ad1ba539c"
        }
      }
    },
    {
      "fullUrl": "urn:uuid:83092cdc-499c-46b8-9796-3f6b8539986e",
      "resource": {
        "resourceType": "Observation",
        "id": "83092cdc-499c-46b8-9796-3f6b8539986e",
        "meta": {
          "profile": [
            "http://hl7.eu/fhir/laboratory/StructureDefinition/Observation-resultslab-eu-lab"
          ]
        },
        "performer": [
          {
            "display": "The Central European Lab"
          }
        ],
        "category": [
          {
            "coding": [
              {
                "system": "http://terminology.hl7.org/CodeSystem/observation-category",
                "code": "laboratory"
              }
            ]
          }
        ],
        "code": {
          "coding": [
            {
              "code": "20565-8",
              "system": "http://loinc.org",
              "display": "Carbon dioxide, total [Moles/volume] in Blood"
            }
          ],
          "text": "Carbon dioxide, total [Moles/volume] in Blood"
        },
        "valueQuantity": {
          "system": "http://unitsofmeasure.org",
          "value": 22.7,
          "unit": "mmol/L",
          "code": "mmol/L"
        },
        "referenceRange": [
          {
            "low": {
              "value": 22,
              "code": "mmol/L",
              "system": "http://unitsofmeasure.org"
            }
          },
          {
            "high": {
              "value": 29,
              "code": "mmol/L",
              "system": "http://unitsofmeasure.org"
            }
          }
        ],
        "text": {
          "status": "generated",
          "div": "<div xmlns=\"http://www.w3.org/1999/xhtml\"><table class=\"hl7__eu__lab__report\"><tr><th>Test</th><th>20-Mar-2017</th><th>Reference&#xA0;Range</th><th>Unit</th></tr><tr><td>Carbon dioxide, total [Moles/volume] in Blood</td><td>22.7</td><td>22 - 29</td><td></td><td>mmol/L</td></tr></table></div>"
        },
        "status": "final",
        "subject": {
          "reference": "urn:uuid:9f71b57d-b524-4252-9630-ad543139b165",
          "display": "Eileen Taylor"
        },
        "effectiveDateTime": "2017-03-20T05:47:02Z",
        "specimen": {
          "reference": "urn:uuid:d551b5b3-3282-4731-8ed5-0a9ad1ba539c"
        }
      }
    },
    {
      "fullUrl": "urn:uuid:897a6595-b788-4719-aade-10198d39c5bc",
      "resource": {
        "resourceType": "Observation",
        "id": "897a6595-b788-4719-aade-10198d39c5bc",
        "meta": {
          "profile": [
            "http://hl7.eu/fhir/laboratory/StructureDefinition/Observation-resultslab-eu-lab"
          ]
        },
        "performer": [
          {
            "display": "The Central European Lab"
          }
        ],
        "category": [
          {
            "coding": [
              {
                "system": "http://terminology.hl7.org/CodeSystem/observation-category",
                "code": "laboratory"
              }
            ]
          }
        ],
        "code": {
          "coding": [
            {
              "code": "2885-2",
              "system": "http://loinc.org",
              "display": "Protein [Mass/volume] in Serum or Plasma"
            }
          ],
          "text": "Protein [Mass/volume] in Serum or Plasma"
        },
        "valueQuantity": {
          "system": "http://unitsofmeasure.org",
          "value": 6.2,
          "unit": "g/dL",
          "code": "g/dL"
        },
        "referenceRange": [
          {
            "low": {
              "value": 6,
              "code": "g/dL",
              "system": "http://unitsofmeasure.org"
            }
          },
          {
            "high": {
              "value": 8.3,
              "code": "g/dL",
              "system": "http://unitsofmeasure.org"
            }
          }
        ],
        "text": {
          "status": "generated",
          "div": "<div xmlns=\"http://www.w3.org/1999/xhtml\"><table class=\"hl7__eu__lab__report\"><tr><th>Test</th><th>20-Mar-2017</th><th>Reference&#xA0;Range</th><th>Unit</th></tr><tr><td>Protein [Mass/volume] in Serum or Plasma</td><td>6.2</td><td>6 - 8.3</td><td></td><td>g/dL</td></tr></table></div>"
        },
        "status": "final",
        "subject": {
          "reference": "urn:uuid:9f71b57d-b524-4252-9630-ad543139b165",
          "display": "Eileen Taylor"
        },
        "effectiveDateTime": "2017-03-20T05:47:02Z",
        "specimen": {
          "reference": "urn:uuid:b29d6c22-09d3-4d77-8b05-01e246514832"
        }
      }
    },
    {
      "fullUrl": "urn:uuid:937dba86-7fa8-422e-a0bd-62ce8cc79ecf",
      "resource": {
        "resourceType": "Observation",
        "id": "937dba86-7fa8-422e-a0bd-62ce8cc79ecf",
        "meta": {
          "profile": [
            "http://hl7.eu/fhir/laboratory/StructureDefinition/Observation-resultslab-eu-lab"
          ]
        },
        "performer": [
          {
            "display": "The Central European Lab"
          }
        ],
        "category": [
          {
            "coding": [
              {
                "system": "http://terminology.hl7.org/CodeSystem/observation-category",
                "code": "laboratory"
              }
            ]
          }
        ],
        "code": {
          "coding": [
            {
              "code": "1751-7",
              "system": "http://loinc.org",
              "display": "Albumin [Mass/volume] in Serum or Plasma"
            }
          ],
          "text": "Albumin [Mass/volume] in Serum or Plasma"
        },
        "valueQuantity": {
          "system": "http://unitsofmeasure.org",
          "value": 4.2,
          "unit": "g/dL",
          "code": "g/dL"
        },
        "referenceRange": [
          {
            "low": {
              "value": 3.4,
              "code": "g/dL",
              "system": "http://unitsofmeasure.org"
            }
          },
          {
            "high": {
              "value": 5,
              "code": "g/dL",
              "system": "http://unitsofmeasure.org"
            }
          }
        ],
        "text": {
          "status": "generated",
          "div": "<div xmlns=\"http://www.w3.org/1999/xhtml\"><table class=\"hl7__eu__lab__report\"><tr><th>Test</th><th>20-Mar-2017</th><th>Reference&#xA0;Range</th><th>Unit</th></tr><tr><td>Albumin [Mass/volume] in Serum or Plasma</td><td>4.2</td><td>3.4 - 5</td><td></td><td>g/dL</td></tr></table></div>"
        },
        "status": "final",
        "subject": {
          "reference": "urn:uuid:9f71b57d-b524-4252-9630-ad543139b165",
          "display": "Eileen Taylor"
        },
        "effectiveDateTime": "2017-03-20T05:47:02Z",
        "specimen": {
          "reference": "urn:uuid:b29d6c22-09d3-4d77-8b05-01e246514832"
        }
      }
    },
    {
      "fullUrl": "urn:uuid:7315b0eb-06c0-4085-bcfc-3dc300858a91",
      "resource": {
        "resourceType": "Observation",
        "id": "7315b0eb-06c0-4085-bcfc-3dc300858a91",
        "meta": {
          "profile": [
            "http://hl7.eu/fhir/laboratory/StructureDefinition/Observation-resultslab-eu-lab"
          ]
        },
        "performer": [
          {
            "display": "The Central European Lab"
          }
        ],
        "category": [
          {
            "coding": [
              {
                "system": "http://terminology.hl7.org/CodeSystem/observation-category",
                "code": "laboratory"
              }
            ]
          }
        ],
        "code": {
          "coding": [
            {
              "code": "10834-0",
              "system": "http://loinc.org",
              "display": "Globulin [Mass/volume] in Serum by calculation"
            }
          ],
          "text": "Globulin [Mass/volume] in Serum by calculation"
        },
        "valueQuantity": {
          "system": "http://unitsofmeasure.org",
          "value": 2.3,
          "unit": "g/L",
          "code": "g/L"
        },
        "referenceRange": [
          {
            "low": {
              "value": 2,
              "code": "g/L",
              "system": "http://unitsofmeasure.org"
            }
          },
          {
            "high": {
              "value": 3.5,
              "code": "g/L",
              "system": "http://unitsofmeasure.org"
            }
          }
        ],
        "text": {
          "status": "generated",
          "div": "<div xmlns=\"http://www.w3.org/1999/xhtml\"><table class=\"hl7__eu__lab__report\"><tr><th>Test</th><th>20-Mar-2017</th><th>Reference&#xA0;Range</th><th>Unit</th></tr><tr><td>Globulin [Mass/volume] in Serum by calculation</td><td>2.3</td><td>2 - 3.5</td><td></td><td>g/L</td></tr></table></div>"
        },
        "status": "final",
        "subject": {
          "reference": "urn:uuid:9f71b57d-b524-4252-9630-ad543139b165",
          "display": "Eileen Taylor"
        },
        "effectiveDateTime": "2017-03-20T05:47:02Z",
        "specimen": {
          "reference": "urn:uuid:e677b26d-ec7d-4c8a-8239-0f7f034a202d"
        }
      }
    },
    {
      "fullUrl": "urn:uuid:0a3d1329-4057-4d56-80e1-90af7ca0987d",
      "resource": {
        "resourceType": "Observation",
        "id": "0a3d1329-4057-4d56-80e1-90af7ca0987d",
        "meta": {
          "profile": [
            "http://hl7.eu/fhir/laboratory/StructureDefinition/Observation-resultslab-eu-lab"
          ]
        },
        "performer": [
          {
            "display": "The Central European Lab"
          }
        ],
        "category": [
          {
            "coding": [
              {
                "system": "http://terminology.hl7.org/CodeSystem/observation-category",
                "code": "laboratory"
              }
            ]
          }
        ],
        "code": {
          "coding": [
            {
              "code": "1975-2",
              "system": "http://loinc.org",
              "display": "Bilirubin.total [Mass/volume] in Serum or Plasma"
            }
          ],
          "text": "Bilirubin.total [Mass/volume] in Serum or Plasma"
        },
        "valueQuantity": {
          "system": "http://unitsofmeasure.org",
          "value": 0.5,
          "unit": "mg/dL",
          "code": "mg/dL"
        },
        "referenceRange": [
          {
            "low": {
              "value": 0.2,
              "code": "mg/dL",
              "system": "http://unitsofmeasure.org"
            }
          },
          {
            "high": {
              "value": 1.2,
              "code": "mg/dL",
              "system": "http://unitsofmeasure.org"
            }
          }
        ],
        "text": {
          "status": "generated",
          "div": "<div xmlns=\"http://www.w3.org/1999/xhtml\"><table class=\"hl7__eu__lab__report\"><tr><th>Test</th><th>20-Mar-2017</th><th>Reference&#xA0;Range</th><th>Unit</th></tr><tr><td>Bilirubin.total [Mass/volume] in Serum or Plasma</td><td>0.5</td><td>0.2 - 1.2</td><td></td><td>mg/dL</td></tr></table></div>"
        },
        "status": "final",
        "subject": {
          "reference": "urn:uuid:9f71b57d-b524-4252-9630-ad543139b165",
          "display": "Eileen Taylor"
        },
        "effectiveDateTime": "2017-03-20T05:47:02Z",
        "specimen": {
          "reference": "urn:uuid:b29d6c22-09d3-4d77-8b05-01e246514832"
        }
      }
    },
    {
      "fullUrl": "urn:uuid:33c27001-dc21-4971-9f89-92746afb82a8",
      "resource": {
        "resourceType": "Observation",
        "id": "33c27001-dc21-4971-9f89-92746afb82a8",
        "meta": {
          "profile": [
            "http://hl7.eu/fhir/laboratory/StructureDefinition/Observation-resultslab-eu-lab"
          ]
        },
        "performer": [
          {
            "display": "The Central European Lab"
          }
        ],
        "category": [
          {
            "coding": [
              {
                "system": "http://terminology.hl7.org/CodeSystem/observation-category",
                "code": "laboratory"
              }
            ]
          }
        ],
        "code": {
          "coding": [
            {
              "code": "6768-6",
              "system": "http://loinc.org",
              "display": "Alkaline phosphatase [Enzymatic activity/volume] in Serum or Plasma"
            }
          ],
          "text": "Alkaline phosphatase [Enzymatic activity/volume] in Serum or Plasma"
        },
        "valueQuantity": {
          "system": "http://unitsofmeasure.org",
          "value": 108.3,
          "unit": "U/L",
          "code": "U/L"
        },
        "referenceRange": [
          {
            "low": {
              "value": 44,
              "code": "U/L",
              "system": "http://unitsofmeasure.org"
            }
          },
          {
            "high": {
              "value": 104,
              "code": "U/L",
              "system": "http://unitsofmeasure.org"
            }
          }
        ],
        "interpretation": [
          {
            "coding": [
              {
                "code": "H",
                "system": "http://terminology.hl7.org/CodeSystem/v3-ObservationInterpretation",
                "display": "High"
              }
            ]
          }
        ],
        "text": {
          "status": "generated",
          "div": "<div xmlns=\"http://www.w3.org/1999/xhtml\"><table class=\"hl7__eu__lab__report\"><tr><th>Test</th><th>20-Mar-2017</th><th>Reference&#xA0;Range</th><th>Unit</th></tr><tr><td>Alkaline phosphatase [Enzymatic activity/volume] in Serum or Plasma</td><td>108.3</td><td>44 - 104</td><td>H</td><td>U/L</td></tr></table></div>"
        },
        "status": "final",
        "subject": {
          "reference": "urn:uuid:9f71b57d-b524-4252-9630-ad543139b165",
          "display": "Eileen Taylor"
        },
        "effectiveDateTime": "2017-03-20T05:47:02Z",
        "specimen": {
          "reference": "urn:uuid:b29d6c22-09d3-4d77-8b05-01e246514832"
        }
      }
    },
    {
      "fullUrl": "urn:uuid:e235b5d6-23e6-43c3-85b0-5bd7de9071f2",
      "resource": {
        "resourceType": "Observation",
        "id": "e235b5d6-23e6-43c3-85b0-5bd7de9071f2",
        "meta": {
          "profile": [
            "http://hl7.eu/fhir/laboratory/StructureDefinition/Observation-resultslab-eu-lab"
          ]
        },
        "performer": [
          {
            "display": "The Central European Lab"
          }
        ],
        "category": [
          {
            "coding": [
              {
                "system": "http://terminology.hl7.org/CodeSystem/observation-category",
                "code": "laboratory"
              }
            ]
          }
        ],
        "code": {
          "coding": [
            {
              "code": "1742-6",
              "system": "http://loinc.org",
              "display": "Alanine aminotransferase [Enzymatic activity/volume] in Serum or Plasma"
            }
          ],
          "text": "Alanine aminotransferase [Enzymatic activity/volume] in Serum or Plasma"
        },
        "valueQuantity": {
          "system": "http://unitsofmeasure.org",
          "value": 33.8,
          "unit": "U/L",
          "code": "U/L"
        },
        "referenceRange": [
          {
            "low": {
              "value": 13,
              "code": "U/L",
              "system": "http://unitsofmeasure.org"
            }
          },
          {
            "high": {
              "value": 36,
              "code": "U/L",
              "system": "http://unitsofmeasure.org"
            }
          }
        ],
        "text": {
          "status": "generated",
          "div": "<div xmlns=\"http://www.w3.org/1999/xhtml\"><table class=\"hl7__eu__lab__report\"><tr><th>Test</th><th>20-Mar-2017</th><th>Reference&#xA0;Range</th><th>Unit</th></tr><tr><td>Alanine aminotransferase [Enzymatic activity/volume] in Serum or Plasma</td><td>33.8</td><td>13 - 36</td><td></td><td>U/L</td></tr></table></div>"
        },
        "status": "final",
        "subject": {
          "reference": "urn:uuid:9f71b57d-b524-4252-9630-ad543139b165",
          "display": "Eileen Taylor"
        },
        "effectiveDateTime": "2017-03-20T05:47:02Z",
        "specimen": {
          "reference": "urn:uuid:b29d6c22-09d3-4d77-8b05-01e246514832"
        }
      }
    },
    {
      "fullUrl": "urn:uuid:57baef2d-7977-4d76-bbee-0c1db39efcc6",
      "resource": {
        "resourceType": "Observation",
        "id": "57baef2d-7977-4d76-bbee-0c1db39efcc6",
        "meta": {
          "profile": [
            "http://hl7.eu/fhir/laboratory/StructureDefinition/Observation-resultslab-eu-lab"
          ]
        },
        "performer": [
          {
            "display": "The Central European Lab"
          }
        ],
        "category": [
          {
            "coding": [
              {
                "system": "http://terminology.hl7.org/CodeSystem/observation-category",
                "code": "laboratory"
              }
            ]
          }
        ],
        "code": {
          "coding": [
            {
              "code": "1920-8",
              "system": "http://loinc.org",
              "display": "Aspartate aminotransferase [Enzymatic activity/volume] in Serum or Plasma"
            }
          ],
          "text": "Aspartate aminotransferase [Enzymatic activity/volume] in Serum or Plasma"
        },
        "valueQuantity": {
          "system": "http://unitsofmeasure.org",
          "value": 37.1,
          "unit": "U/L",
          "code": "U/L"
        },
        "referenceRange": [
          {
            "low": {
              "value": 10,
              "code": "U/L",
              "system": "http://unitsofmeasure.org"
            }
          },
          {
            "high": {
              "value": 40,
              "code": "U/L",
              "system": "http://unitsofmeasure.org"
            }
          }
        ],
        "text": {
          "status": "generated",
          "div": "<div xmlns=\"http://www.w3.org/1999/xhtml\"><table class=\"hl7__eu__lab__report\"><tr><th>Test</th><th>20-Mar-2017</th><th>Reference&#xA0;Range</th><th>Unit</th></tr><tr><td>Aspartate aminotransferase [Enzymatic activity/volume] in Serum or Plasma</td><td>37.1</td><td>10 - 40</td><td></td><td>U/L</td></tr></table></div>"
        },
        "status": "final",
        "subject": {
          "reference": "urn:uuid:9f71b57d-b524-4252-9630-ad543139b165",
          "display": "Eileen Taylor"
        },
        "effectiveDateTime": "2017-03-20T05:47:02Z",
        "specimen": {
          "reference": "urn:uuid:b29d6c22-09d3-4d77-8b05-01e246514832"
        }
      }
    },
    {
      "fullUrl": "urn:uuid:ddc28a2f-1641-46a4-86b9-c34026082353",
      "resource": {
        "resourceType": "Observation",
        "id": "ddc28a2f-1641-46a4-86b9-c34026082353",
        "meta": {
          "profile": [
            "http://hl7.eu/fhir/laboratory/StructureDefinition/Observation-resultslab-eu-lab"
          ]
        },
        "performer": [
          {
            "display": "The Central European Lab"
          }
        ],
        "category": [
          {
            "coding": [
              {
                "system": "http://terminology.hl7.org/CodeSystem/observation-category",
                "code": "laboratory"
              }
            ]
          }
        ],
        "code": {
          "coding": [
            {
              "code": "2093-3",
              "system": "http://loinc.org",
              "display": "Cholesterol [Mass/volume] in Serum or Plasma"
            }
          ],
          "text": "Cholesterol [Mass/volume] in Serum or Plasma"
        },
        "valueQuantity": {
          "system": "http://unitsofmeasure.org",
          "value": 195.9,
          "unit": "mg/dL",
          "code": "mg/dL"
        },
        "referenceRange": [
          {
            "low": {
              "value": 130,
              "code": "mg/dL",
              "system": "http://unitsofmeasure.org"
            }
          },
          {
            "high": {
              "value": 200,
              "code": "mg/dL",
              "system": "http://unitsofmeasure.org"
            }
          }
        ],
        "text": {
          "status": "generated",
          "div": "<div xmlns=\"http://www.w3.org/1999/xhtml\"><table class=\"hl7__eu__lab__report\"><tr><th>Test</th><th>20-Mar-2017</th><th>Reference&#xA0;Range</th><th>Unit</th></tr><tr><td>Cholesterol [Mass/volume] in Serum or Plasma</td><td>195.9</td><td>130 - 200</td><td></td><td>mg/dL</td></tr></table></div>"
        },
        "status": "final",
        "subject": {
          "reference": "urn:uuid:9f71b57d-b524-4252-9630-ad543139b165",
          "display": "Eileen Taylor"
        },
        "effectiveDateTime": "2017-03-20T05:47:02Z",
        "specimen": {
          "reference": "urn:uuid:b29d6c22-09d3-4d77-8b05-01e246514832"
        }
      }
    },
    {
      "fullUrl": "urn:uuid:bb135cc8-a815-4f75-bcad-a602ffcbf03a",
      "resource": {
        "resourceType": "Observation",
        "id": "bb135cc8-a815-4f75-bcad-a602ffcbf03a",
        "meta": {
          "profile": [
            "http://hl7.eu/fhir/laboratory/StructureDefinition/Observation-resultslab-eu-lab"
          ]
        },
        "performer": [
          {
            "display": "The Central European Lab"
          }
        ],
        "category": [
          {
            "coding": [
              {
                "system": "http://terminology.hl7.org/CodeSystem/observation-category",
                "code": "laboratory"
              }
            ]
          }
        ],
        "code": {
          "coding": [
            {
              "code": "2571-8",
              "system": "http://loinc.org",
              "display": "Triglyceride [Mass/volume] in Serum or Plasma"
            }
          ],
          "text": "Triglyceride [Mass/volume] in Serum or Plasma"
        },
        "valueQuantity": {
          "system": "http://unitsofmeasure.org",
          "value": 194.3,
          "unit": "mg/dL",
          "code": "mg/dL"
        },
        "referenceRange": [
          {
            "low": {
              "value": 35,
              "code": "mg/dL",
              "system": "http://unitsofmeasure.org"
            }
          },
          {
            "high": {
              "value": 175,
              "code": "mg/dL",
              "system": "http://unitsofmeasure.org"
            }
          }
        ],
        "interpretation": [
          {
            "coding": [
              {
                "code": "H",
                "system": "http://terminology.hl7.org/CodeSystem/v3-ObservationInterpretation",
                "display": "High"
              }
            ]
          }
        ],
        "text": {
          "status": "generated",
          "div": "<div xmlns=\"http://www.w3.org/1999/xhtml\"><table class=\"hl7__eu__lab__report\"><tr><th>Test</th><th>20-Mar-2017</th><th>Reference&#xA0;Range</th><th>Unit</th></tr><tr><td>Triglyceride [Mass/volume] in Serum or Plasma</td><td>194.3</td><td>35 - 175</td><td>H</td><td>mg/dL</td></tr></table></div>"
        },
        "status": "final",
        "subject": {
          "reference": "urn:uuid:9f71b57d-b524-4252-9630-ad543139b165",
          "display": "Eileen Taylor"
        },
        "effectiveDateTime": "2017-03-20T05:47:02Z",
        "specimen": {
          "reference": "urn:uuid:b29d6c22-09d3-4d77-8b05-01e246514832"
        }
      }
    },
    {
      "fullUrl": "urn:uuid:5d346776-ed48-48e4-a270-0860e4248523",
      "resource": {
        "resourceType": "Observation",
        "id": "5d346776-ed48-48e4-a270-0860e4248523",
        "meta": {
          "profile": [
            "http://hl7.eu/fhir/laboratory/StructureDefinition/Observation-resultslab-eu-lab"
          ]
        },
        "performer": [
          {
            "display": "The Central European Lab"
          }
        ],
        "category": [
          {
            "coding": [
              {
                "system": "http://terminology.hl7.org/CodeSystem/observation-category",
                "code": "laboratory"
              }
            ]
          }
        ],
        "code": {
          "coding": [
            {
              "code": "18262-6",
              "system": "http://loinc.org",
              "display": "Cholesterol in LDL [Mass/volume] in Serum or Plasma by Direct assay"
            }
          ],
          "text": "Cholesterol in LDL [Mass/volume] in Serum or Plasma by Direct assay"
        },
        "valueQuantity": {
          "system": "http://unitsofmeasure.org",
          "value": 115.1,
          "unit": "mg/dL",
          "code": "mg/dL"
        },
        "referenceRange": [
          {
            "low": {
              "value": 0,
              "code": "mg/dL",
              "system": "http://unitsofmeasure.org"
            }
          },
          {
            "high": {
              "value": 190,
              "code": "mg/dL",
              "system": "http://unitsofmeasure.org"
            }
          }
        ],
        "text": {
          "status": "generated",
          "div": "<div xmlns=\"http://www.w3.org/1999/xhtml\"><table class=\"hl7__eu__lab__report\"><tr><th>Test</th><th>20-Mar-2017</th><th>Reference&#xA0;Range</th><th>Unit</th></tr><tr><td>Cholesterol in LDL [Mass/volume] in Serum or Plasma by Direct assay</td><td>115.1</td><td>0 - 190</td><td></td><td>mg/dL</td></tr></table></div>"
        },
        "status": "final",
        "subject": {
          "reference": "urn:uuid:9f71b57d-b524-4252-9630-ad543139b165",
          "display": "Eileen Taylor"
        },
        "effectiveDateTime": "2017-03-20T05:47:02Z",
        "specimen": {
          "reference": "urn:uuid:b29d6c22-09d3-4d77-8b05-01e246514832"
        }
      }
    },
    {
      "fullUrl": "urn:uuid:578efbcc-e0d9-4be4-b518-df7a2ae8cc6a",
      "resource": {
        "resourceType": "Observation",
        "id": "578efbcc-e0d9-4be4-b518-df7a2ae8cc6a",
        "meta": {
          "profile": [
            "http://hl7.eu/fhir/laboratory/StructureDefinition/Observation-resultslab-eu-lab"
          ]
        },
        "performer": [
          {
            "display": "The Central European Lab"
          }
        ],
        "category": [
          {
            "coding": [
              {
                "system": "http://terminology.hl7.org/CodeSystem/observation-category",
                "code": "laboratory"
              }
            ]
          }
        ],
        "code": {
          "coding": [
            {
              "code": "2085-9",
              "system": "http://loinc.org",
              "display": "Cholesterol in HDL [Mass/volume] in Serum or Plasma"
            }
          ],
          "text": "Cholesterol in HDL [Mass/volume] in Serum or Plasma"
        },
        "valueQuantity": {
          "system": "http://unitsofmeasure.org",
          "value": 48.5,
          "unit": "mg/dL",
          "code": "mg/dL"
        },
        "referenceRange": [
          {
            "low": {
              "value": 50,
              "code": "mg/dL",
              "system": "http://unitsofmeasure.org"
            }
          },
          {
            "high": {
              "value": 100,
              "code": "mg/dL",
              "system": "http://unitsofmeasure.org"
            }
          }
        ],
        "interpretation": [
          {
            "coding": [
              {
                "code": "L",
                "system": "http://terminology.hl7.org/CodeSystem/v3-ObservationInterpretation",
                "display": "Low"
              }
            ]
          }
        ],
        "text": {
          "status": "generated",
          "div": "<div xmlns=\"http://www.w3.org/1999/xhtml\"><table class=\"hl7__eu__lab__report\"><tr><th>Test</th><th>20-Mar-2017</th><th>Reference&#xA0;Range</th><th>Unit</th></tr><tr><td>Cholesterol in HDL [Mass/volume] in Serum or Plasma</td><td>48.5</td><td>50 - 100</td><td>L</td><td>mg/dL</td></tr></table></div>"
        },
        "status": "final",
        "subject": {
          "reference": "urn:uuid:9f71b57d-b524-4252-9630-ad543139b165",
          "display": "Eileen Taylor"
        },
        "effectiveDateTime": "2017-03-20T05:47:02Z",
        "specimen": {
          "reference": "urn:uuid:b29d6c22-09d3-4d77-8b05-01e246514832"
        }
      }
    },
    {
      "fullUrl": "urn:uuid:dc51fd9d-3a8d-4061-b152-c01112246985",
      "resource": {
        "resourceType": "Device",
        "id": "dc51fd9d-3a8d-4061-b152-c01112246985",
        "deviceName": [
          {
            "name": "SYNDERAI Synthetic Generator",
            "type": "manufacturer-name"
          }
        ],
        "version": [
          {
            "value": "5.0"
          }
        ],
        "text": {
          "status": "generated",
          "div": "<div xmlns=\"http://www.w3.org/1999/xhtml\">SYNDERAI Synthetic Generator v5.0</div>"
        },
        "status": "active\"",
        "distinctIdentifier": "synderai-generator-50",
        "manufacturer": "SYNDERAI Project"
      }
    },
    {
      "fullUrl": "urn:uuid:740382bf-d9ff-4b18-9263-cc0fa338a67a",
      "resource": {
        "resourceType": "Provenance",
        "id": "740382bf-d9ff-4b18-9263-cc0fa338a67a",
        "target": [
          {
            "reference": "Patient/9f71b57d-b524-4252-9630-ad543139b165"
          },
          {
            "reference": "Bundle/31e51539-2383-4869-a879-812fcf4f2d5f"
          },
          {
            "reference": "Composition/baf780bd-e8c1-49a9-9668-2a0596ecbba5"
          },
          {
            "reference": "PractitionerRole/02333e67-f370-4b3b-8789-6baf8d0564c2"
          },
          {
            "reference": "Practitioner/0e27ca3a-2195-488e-8f12-5e02f39733dd"
          },
          {
            "reference": "PractitionerRole/c81d6a89-b7b0-4803-bfe8-450a7d6c1fa3"
          },
          {
            "reference": "Organization/337acc69-bea5-4427-9e9b-6e54a3eadca7"
          }
        ],
        "activity": {
          "text": "Synthetic Example Data Generation"
        },
        "policy": [
          "https://synderai.net/synderai-synthetic-data-policy"
        ],
        "agent": [
          {
            "type": {
              "text": "author"
            },
            "who": {
              "reference": "Device/dc51fd9d-3a8d-4061-b152-c01112246985"
            }
          }
        ],
        "reason": [
          {
            "text": "Interoperability Testing and Training (non-clinical use)"
          }
        ],
        "text": {
          "status": "generated",
          "div": "<div xmlns=\"http://www.w3.org/1999/xhtml\">Provenance for SYNDERAI Synthetic Example Data Resource</div>"
        },
        "recorded": "2017-03-20T06:47:02Z"
      }
    },
    {
      "fullUrl": "urn:uuid:02333e67-f370-4b3b-8789-6baf8d0564c2",
      "resource": {
        "resourceType": "PractitionerRole",
        "id": "02333e67-f370-4b3b-8789-6baf8d0564c2",
        "meta": {
          "profile": [
            "http://hl7.eu/fhir/base/StructureDefinition/practitionerRole-eu"
          ]
        },
        "text": {
          "status": "generated",
          "div": "<div xmlns=\"http://www.w3.org/1999/xhtml\">Laboratory Role Id: 02333e67-f370-4b3b-8789-6baf8d0564c2</div>"
        },
        "practitioner": {
          "reference": "urn:uuid:0e27ca3a-2195-488e-8f12-5e02f39733dd"
        }
      }
    },
    {
      "fullUrl": "urn:uuid:0e27ca3a-2195-488e-8f12-5e02f39733dd",
      "resource": {
        "resourceType": "Practitioner",
        "id": "0e27ca3a-2195-488e-8f12-5e02f39733dd",
        "meta": {
          "profile": [
            "http://hl7.eu/fhir/base/StructureDefinition/practitioner-eu"
          ]
        },
        "identifier": [
          {
            "assigner": {
              "display": "HL7 Europe"
            },
            "system": "urn:oid:2.16.840.1.113883.2.51.999",
            "value": "1b46fa6a-898b-4906-805a-5464cf5fc78c"
          }
        ],
        "name": [
          {
            "prefix": [
              "dr"
            ],
            "given": [
              "Ex"
            ],
            "family": "Ample"
          }
        ],
        "address": [
          {
            "line": [
              "Laboratoire Central Européenne",
              "Boulevard du Jardin Botanique 32"
            ],
            "postalCode": "1000",
            "city": "Brussels",
            "country": "Belgium"
          }
        ],
        "text": {
          "status": "generated",
          "div": "<div xmlns=\"http://www.w3.org/1999/xhtml\">Laboratory: Laboratoire Central Européenne, 1000 Brussels, Belgium</div>"
        }
      }
    }
  ],
  "type": "document",
  "timestamp": "2017-03-20T06:47:02Z"
}
