{
  "resourceType": "Bundle",
  "id": "64c69927-d4cf-4652-9f14-e77e58db921e",
  "meta": {
    "profile": [
      "http://hl7.eu/fhir/laboratory/StructureDefinition/Bundle-eu-lab"
    ]
  },
  "identifier": {
    "assigner": {
      "display": "HL7 Europe"
    },
    "system": "urn:oid:2.16.840.1.113883.2.51.999",
    "value": "31f11a90-5467-4f5b-9831-54d2769405fb"
  },
  "entry": [
    {
      "fullUrl": "urn:uuid:c651d0c4-1eb7-408a-9d6e-29646a404454",
      "resource": {
        "resourceType": "Composition",
        "id": "c651d0c4-1eb7-408a-9d6e-29646a404454",
        "meta": {
          "profile": [
            "http://hl7.eu/fhir/laboratory/StructureDefinition/Composition-eu-lab"
          ]
        },
        "identifier": {
          "assigner": {
            "display": "HL7 Europe"
          },
          "system": "urn:oid:2.16.840.1.113883.2.51.999",
          "value": "83a727a9-c019-48fa-98b0-46eb5d56755c"
        },
        "author": [
          {
            "reference": "urn:uuid:ff3da92b-7c50-44cc-9ec0-791166e1c3c3"
          }
        ],
        "category": [
          {
            "coding": [
              {
                "code": "26436-6",
                "system": "http://loinc.org",
                "display": "Laboratory studies (set)"
              }
            ]
          }
        ],
        "type": {
          "coding": [
            {
              "code": "11502-2",
              "system": "http://loinc.org",
              "display": "Laboratory report"
            }
          ],
          "text": "Laboratory Report"
        },
        "section": [
          {
            "code": {
              "coding": [
                {
                  "code": "26436-6",
                  "system": "http://loinc.org",
                  "display": "Laboratory studies (set)"
                }
              ],
              "text": "Laboratory studies"
            },
            "section": [
              {
                "code": {
                  "coding": [
                    {
                      "code": "$18719-5",
                      "system": "http://loinc.org",
                      "display": "Chemistry studies (set)"
                    }
                  ],
                  "text": "Chemistry"
                },
                "entry": [
                  {
                    "reference": "urn:uuid:ddf671e1-1611-4686-afab-8505f12e18d7"
                  },
                  {
                    "reference": "urn:uuid:f12f540f-141f-4452-97cc-50a45f442790"
                  },
                  {
                    "reference": "urn:uuid:d79a59f8-cb94-48a5-8e9a-ddbaa9cbc14e"
                  },
                  {
                    "reference": "urn:uuid:1ea9e938-54e5-4ff3-ad8d-650f383d5999"
                  },
                  {
                    "reference": "urn:uuid:3470709d-1377-4487-a8b8-c38e8aea1ef2"
                  },
                  {
                    "reference": "urn:uuid:1ede64d0-c995-4084-8597-b96e8d8d7c5b"
                  },
                  {
                    "reference": "urn:uuid:3ffe5163-b520-4e66-ac25-9293d8026dc7"
                  },
                  {
                    "reference": "urn:uuid:cd5b4d51-74a0-43f8-9132-586bdc285df6"
                  },
                  {
                    "reference": "urn:uuid:56a8030c-5069-4029-99e6-b300ad36e01d"
                  }
                ],
                "text": {
                  "status": "generated",
                  "div": "<div xmlns=\"http://www.w3.org/1999/xhtml\"><h3>Chemistry</h3><table class=\"hl7__eu__lab__report\"><thead><tr><th>Test</th><th>14-JUN-2023</th><th>Reference&#xA0;Range</th><th>Unit</th></tr></thead><tbody><tr><td>Hemoglobin A1c/Hemoglobin.total in Blood</td><td>6.0</td><td>4 - 6</td><td>%</td></tr><tr><td>Glucose [Mass/volume] in Blood</td><td>71.9</td><td>70 - 140</td><td>mg/dL</td></tr><tr><td>Urea nitrogen [Mass/volume] in Blood</td><td>14.2</td><td>7 - 50</td><td>mg/dL</td></tr><tr><td>Creatinine [Mass/volume] in Blood</td><td>0.6</td><td>0.5 - 1.3</td><td>mg/dL</td></tr><tr><td>Calcium [Mass/volume] in Blood</td><td>9.7</td><td>8.5 - 10.4</td><td>mg/dL</td></tr><tr><td>Sodium [Moles/volume] in Blood</td><td>142.8</td><td>135 - 145</td><td>mmol/L</td></tr><tr><td>Potassium [Moles/volume] in Blood</td><td>4.4</td><td>3.5 - 5.3</td><td>mmol/L</td></tr><tr><td>Chloride [Moles/volume] in Blood</td><td>108.5</td><td>98 - 110</td><td>mmol/L</td></tr><tr><td>Carbon dioxide, total [Moles/volume] in Blood</td><td>24.0</td><td>22 - 32</td><td>mmol/L</td></tr></tbody></table></div>"
                },
                "title": "Chemistry"
              }
            ],
            "title": "Laboratory Report"
          },
          {
            "text": {
              "status": "generated",
              "div": "<div xmlns=\"http://www.w3.org/1999/xhtml\"><h3>Annotation</h3><table class=\"hl7__eu__lab__report\"><tr><th>Conclusion and Recommendations based on this report and previous findings known to us</th></tr><tr><td>All measured parameters are within normal limits. HbA1c is at the upper limit of normal, suggesting good glycemic control but close monitoring is advised. Renal function, electrolytes, and metabolic parameters are unremarkable. No acute laboratory abnormalities detected.</td></tr></table></div>"
            },
            "code": {
              "coding": [
                {
                  "system": "http://loinc.org",
                  "code": "48767-8",
                  "display": "Annotation comment"
                }
              ]
            },
            "title": "Annotation comment"
          }
        ],
        "status": "final",
        "subject": {
          "reference": "urn:uuid:c13c2de2-ec15-4cf8-9629-e61794d998f1",
          "display": "Jele Jurković"
        },
        "date": "2023-06-14T20:07:38Z",
        "title": "Laboratory Report",
        "confidentiality": "N"
      }
    },
    {
      "fullUrl": "urn:uuid:38858ade-ddff-45d5-88bb-2ee4e0ec5f69",
      "resource": {
        "resourceType": "DiagnosticReport",
        "id": "38858ade-ddff-45d5-88bb-2ee4e0ec5f69",
        "meta": {
          "profile": [
            "http://hl7.eu/fhir/laboratory/StructureDefinition/DiagnosticReport-eu-lab"
          ]
        },
        "identifier": [
          {
            "assigner": {
              "display": "HL7 Europe"
            },
            "system": "urn:oid:2.16.840.1.113883.2.51.999",
            "value": "7fe87be0-93f2-404b-bc41-01aab9b013df"
          }
        ],
        "extension": [
          {
            "url": "http://hl7.org/fhir/5.0/StructureDefinition/extension-DiagnosticReport.composition",
            "valueReference": {
              "reference": "urn:uuid:83a727a9-c019-48fa-98b0-46eb5d56755c"
            }
          }
        ],
        "category": [
          {
            "coding": [
              {
                "code": "26436-6",
                "system": "http://loinc.org",
                "display": "Laboratory studies (set)"
              }
            ]
          }
        ],
        "specimen": [
          {
            "reference": "urn:uuid:487d2508-a60f-46d0-85d1-d1e5181b5ea4"
          }
        ],
        "result": [
          {
            "reference": "urn:uuid:ddf671e1-1611-4686-afab-8505f12e18d7"
          },
          {
            "reference": "urn:uuid:f12f540f-141f-4452-97cc-50a45f442790"
          },
          {
            "reference": "urn:uuid:d79a59f8-cb94-48a5-8e9a-ddbaa9cbc14e"
          },
          {
            "reference": "urn:uuid:1ea9e938-54e5-4ff3-ad8d-650f383d5999"
          },
          {
            "reference": "urn:uuid:3470709d-1377-4487-a8b8-c38e8aea1ef2"
          },
          {
            "reference": "urn:uuid:1ede64d0-c995-4084-8597-b96e8d8d7c5b"
          },
          {
            "reference": "urn:uuid:3ffe5163-b520-4e66-ac25-9293d8026dc7"
          },
          {
            "reference": "urn:uuid:cd5b4d51-74a0-43f8-9132-586bdc285df6"
          },
          {
            "reference": "urn:uuid:56a8030c-5069-4029-99e6-b300ad36e01d"
          }
        ],
        "status": "registered",
        "code": {
          "coding": [
            {
              "code": "11502-2",
              "system": "http://loinc.org",
              "display": "Laboratory report"
            }
          ]
        },
        "subject": {
          "reference": "urn:uuid:c13c2de2-ec15-4cf8-9629-e61794d998f1",
          "display": "Jele Jurković"
        }
      }
    },
    {
      "fullUrl": "urn:uuid:c13c2de2-ec15-4cf8-9629-e61794d998f1",
      "resource": {
        "resourceType": "Patient",
        "id": "c13c2de2-ec15-4cf8-9629-e61794d998f1",
        "meta": {
          "security": [
            {
              "system": "http://terminology.hl7.org/CodeSystem/v3-ActReason",
              "code": "HTEST"
            },
            {
              "system": "http://terminology.hl7.org/CodeSystem/v3-ActReason",
              "code": "TRAIN"
            }
          ],
          "tag": [
            {
              "system": "https://synderai.net/fhir/CodeSystem/tags",
              "code": "synthetic",
              "display": "SYNDERAI Synthetic data"
            }
          ],
          "profile": [
            "http://hl7.eu/fhir/base/StructureDefinition/patient-eu-core"
          ]
        },
        "identifier": [
          {
            "type": {
              "coding": [
                {
                  "code": "PT",
                  "system": "http://terminology.hl7.org/CodeSystem/v2-0203"
                }
              ]
            },
            "system": "http://ec.europa.eu/identifier/eci",
            "value": "3583-291434-1"
          },
          {
            "type": {
              "coding": [
                {
                  "code": "MR",
                  "system": "http://terminology.hl7.org/CodeSystem/v2-0203"
                }
              ]
            },
            "system": "http://local.setting.eu/identifier",
            "value": "9d4fea2d-eece-b99f-3e16-832f0f5813f5"
          }
        ],
        "name": [
          {
            "family": "Jurković"
          },
          {
            "given": [
              "Jele"
            ]
          },
          {
            "text": "Jele Jurković"
          }
        ],
        "address": [
          {
            "line": [
              "Klesarski put 7b/8"
            ],
            "use": "home",
            "type": "physical",
            "postalCode": "34310",
            "city": "Pleternica",
            "country": "Croatia"
          }
        ],
        "telecom": [
          {
            "system": "phone",
            "value": "021 083 354"
          }
        ],
        "extension": [
          {
            "url": "http://hl7.org/fhir/StructureDefinition/patient-nationality",
            "valueCodeableConcept": {
              "coding": [
                {
                  "code": "HR",
                  "system": "http://hl7.org/fhir/ValueSet/country"
                }
              ]
            }
          }
        ],
        "text": {
          "status": "generated",
          "div": "<div xmlns=\"http://www.w3.org/1999/xhtml\"><table class=\"hl7__ips\"><tr><td>Jele Jurković</td><td>female</td><td>07-Jan-1953</td></tr></table></div>"
        },
        "gender": "female",
        "birthDate": "1953-01-07"
      }
    },
    {
      "fullUrl": "urn:uuid:9506f569-5cc1-4b83-9623-3bd065517964",
      "resource": {
        "resourceType": "ServiceRequest",
        "id": "9506f569-5cc1-4b83-9623-3bd065517964",
        "meta": {
          "profile": [
            "http://hl7.eu/fhir/laboratory/StructureDefinition/ServiceRequest-eu-lab"
          ]
        },
        "identifier": [
          {
            "system": "http://example.org",
            "value": "2a490408-e9b8-4690-a744-b48cee25205a"
          }
        ],
        "specimen": [
          {
            "reference": "urn:uuid:487d2508-a60f-46d0-85d1-d1e5181b5ea4"
          }
        ],
        "reasonCode": [
          {
            "coding": [
              {
                "code": "64859006",
                "system": "http://snomed.info/sct",
                "display": "Osteoporosis"
              }
            ]
          },
          {
            "coding": [
              {
                "code": "6525002",
                "system": "http://snomed.info/sct",
                "display": "Dependent drug abuse"
              }
            ]
          },
          {
            "coding": [
              {
                "code": "15777000",
                "system": "http://snomed.info/sct",
                "display": "Prediabetes"
              }
            ]
          }
        ],
        "status": "active",
        "intent": "order",
        "code": {
          "coding": [
            {
              "code": "108252007",
              "system": "http://snomed.info/sct",
              "display": "Laboratory procedure"
            }
          ]
        },
        "subject": {
          "reference": "urn:uuid:c13c2de2-ec15-4cf8-9629-e61794d998f1",
          "display": "Jele Jurković"
        },
        "requester": {
          "reference": "urn:uuid:9c3e23df-dd3c-451e-a3a1-f538d50c3ef1"
        }
      }
    },
    {
      "fullUrl": "urn:uuid:9c3e23df-dd3c-451e-a3a1-f538d50c3ef1",
      "resource": {
        "resourceType": "PractitionerRole",
        "id": "9c3e23df-dd3c-451e-a3a1-f538d50c3ef1",
        "meta": {
          "profile": [
            "http://hl7.eu/fhir/base/StructureDefinition/practitionerRole-eu"
          ]
        },
        "text": {
          "status": "generated",
          "div": "<div xmlns=\"http://www.w3.org/1999/xhtml\">Provider Role Id: 9c3e23df-dd3c-451e-a3a1-f538d50c3ef1</div>"
        },
        "organization": {
          "reference": "urn:uuid:0e8e4241-e72c-4734-b6ac-c133902d866c"
        }
      }
    },
    {
      "fullUrl": "urn:uuid:0e8e4241-e72c-4734-b6ac-c133902d866c",
      "resource": {
        "resourceType": "Organization",
        "id": "0e8e4241-e72c-4734-b6ac-c133902d866c",
        "meta": {
          "profile": [
            "http://hl7.eu/fhir/base/StructureDefinition/organization-eu"
          ]
        },
        "identifier": [
          {
            "assigner": {
              "display": "HL7 Europe"
            },
            "system": "urn:oid:2.16.840.1.113883.2.51.999",
            "value": "87d0bea8-73b9-4cd9-9e05-ecdec03ec76e"
          }
        ],
        "address": [
          {
            "line": [
              "Osječka ulica 107"
            ],
            "city": "Požega",
            "postalCode": "34000",
            "country": "Croatia"
          }
        ],
        "text": {
          "status": "generated",
          "div": "<div xmlns=\"http://www.w3.org/1999/xhtml\">Provider Organization: Opća županijska bolnica Požega</div>"
        },
        "name": "Opća županijska bolnica Požega"
      }
    },
    {
      "fullUrl": "urn:uuid:487d2508-a60f-46d0-85d1-d1e5181b5ea4",
      "resource": {
        "resourceType": "Specimen",
        "id": "487d2508-a60f-46d0-85d1-d1e5181b5ea4",
        "meta": {
          "profile": [
            "http://hl7.eu/fhir/laboratory/StructureDefinition/Specimen-eu-lab"
          ]
        },
        "collection": {
          "collectedDateTime": "2023-06-14"
        },
        "text": {
          "status": "generated",
          "div": "<div xmlns=\"http://www.w3.org/1999/xhtml\"><table class=\"hl7__eu__lab__report\"><tr><th>Specimen</th><th>Collection Date</th></tr><tr><td>Whole blood specimen (specimen)</td><td><span class=\"nb\">14-Jun-2023</span></td></tr></table></div>"
        },
        "type": {
          "coding": [
            {
              "code": "258580003",
              "system": "http://snomed.info/sct",
              "display": "Whole blood specimen (specimen)"
            }
          ]
        }
      }
    },
    {
      "fullUrl": "urn:uuid:ddf671e1-1611-4686-afab-8505f12e18d7",
      "resource": {
        "resourceType": "Observation",
        "id": "ddf671e1-1611-4686-afab-8505f12e18d7",
        "meta": {
          "profile": [
            "http://hl7.eu/fhir/laboratory/StructureDefinition/Observation-resultslab-eu-lab"
          ]
        },
        "performer": [
          {
            "display": "The Central European Lab"
          }
        ],
        "category": [
          {
            "coding": [
              {
                "system": "http://terminology.hl7.org/CodeSystem/observation-category",
                "code": "laboratory"
              }
            ]
          }
        ],
        "code": {
          "coding": [
            {
              "code": "4548-4",
              "system": "http://loinc.org",
              "display": "Hemoglobin A1c/Hemoglobin.total in Blood"
            }
          ],
          "text": "Hemoglobin A1c/Hemoglobin.total in Blood"
        },
        "valueQuantity": {
          "system": "http://unitsofmeasure.org",
          "value": 6,
          "unit": "%",
          "code": "%"
        },
        "referenceRange": [
          {
            "low": {
              "value": 4,
              "code": "%",
              "system": "http://unitsofmeasure.org"
            }
          },
          {
            "high": {
              "value": 6,
              "code": "%",
              "system": "http://unitsofmeasure.org"
            }
          }
        ],
        "text": {
          "status": "generated",
          "div": "<div xmlns=\"http://www.w3.org/1999/xhtml\"><table class=\"hl7__eu__lab__report\"><tr><th>Test</th><th>14-Jun-2023</th><th>Reference&#xA0;Range</th><th>Unit</th></tr><tr><td>Hemoglobin A1c/Hemoglobin.total in Blood</td><td>6.0</td><td>4 - 6</td><td></td><td>%</td></tr></table></div>"
        },
        "status": "final",
        "subject": {
          "reference": "urn:uuid:c13c2de2-ec15-4cf8-9629-e61794d998f1",
          "display": "Jele Jurković"
        },
        "effectiveDateTime": "2023-06-14T18:07:38Z",
        "specimen": {
          "reference": "urn:uuid:487d2508-a60f-46d0-85d1-d1e5181b5ea4"
        }
      }
    },
    {
      "fullUrl": "urn:uuid:f12f540f-141f-4452-97cc-50a45f442790",
      "resource": {
        "resourceType": "Observation",
        "id": "f12f540f-141f-4452-97cc-50a45f442790",
        "meta": {
          "profile": [
            "http://hl7.eu/fhir/laboratory/StructureDefinition/Observation-resultslab-eu-lab"
          ]
        },
        "performer": [
          {
            "display": "The Central European Lab"
          }
        ],
        "category": [
          {
            "coding": [
              {
                "system": "http://terminology.hl7.org/CodeSystem/observation-category",
                "code": "laboratory"
              }
            ]
          }
        ],
        "code": {
          "coding": [
            {
              "code": "2339-0",
              "system": "http://loinc.org",
              "display": "Glucose [Mass/volume] in Blood"
            }
          ],
          "text": "Glucose [Mass/volume] in Blood"
        },
        "valueQuantity": {
          "system": "http://unitsofmeasure.org",
          "value": 71.9,
          "unit": "mg/dL",
          "code": "mg/dL"
        },
        "referenceRange": [
          {
            "low": {
              "value": 70,
              "code": "mg/dL",
              "system": "http://unitsofmeasure.org"
            }
          },
          {
            "high": {
              "value": 140,
              "code": "mg/dL",
              "system": "http://unitsofmeasure.org"
            }
          }
        ],
        "text": {
          "status": "generated",
          "div": "<div xmlns=\"http://www.w3.org/1999/xhtml\"><table class=\"hl7__eu__lab__report\"><tr><th>Test</th><th>14-Jun-2023</th><th>Reference&#xA0;Range</th><th>Unit</th></tr><tr><td>Glucose [Mass/volume] in Blood</td><td>71.9</td><td>70 - 140</td><td></td><td>mg/dL</td></tr></table></div>"
        },
        "status": "final",
        "subject": {
          "reference": "urn:uuid:c13c2de2-ec15-4cf8-9629-e61794d998f1",
          "display": "Jele Jurković"
        },
        "effectiveDateTime": "2023-06-14T18:07:38Z",
        "specimen": {
          "reference": "urn:uuid:487d2508-a60f-46d0-85d1-d1e5181b5ea4"
        }
      }
    },
    {
      "fullUrl": "urn:uuid:d79a59f8-cb94-48a5-8e9a-ddbaa9cbc14e",
      "resource": {
        "resourceType": "Observation",
        "id": "d79a59f8-cb94-48a5-8e9a-ddbaa9cbc14e",
        "meta": {
          "profile": [
            "http://hl7.eu/fhir/laboratory/StructureDefinition/Observation-resultslab-eu-lab"
          ]
        },
        "performer": [
          {
            "display": "The Central European Lab"
          }
        ],
        "category": [
          {
            "coding": [
              {
                "system": "http://terminology.hl7.org/CodeSystem/observation-category",
                "code": "laboratory"
              }
            ]
          }
        ],
        "code": {
          "coding": [
            {
              "code": "6299-2",
              "system": "http://loinc.org",
              "display": "Urea nitrogen [Mass/volume] in Blood"
            }
          ],
          "text": "Urea nitrogen [Mass/volume] in Blood"
        },
        "valueQuantity": {
          "system": "http://unitsofmeasure.org",
          "value": 14.2,
          "unit": "mg/dL",
          "code": "mg/dL"
        },
        "referenceRange": [
          {
            "low": {
              "value": 7,
              "code": "mg/dL",
              "system": "http://unitsofmeasure.org"
            }
          },
          {
            "high": {
              "value": 50,
              "code": "mg/dL",
              "system": "http://unitsofmeasure.org"
            }
          }
        ],
        "text": {
          "status": "generated",
          "div": "<div xmlns=\"http://www.w3.org/1999/xhtml\"><table class=\"hl7__eu__lab__report\"><tr><th>Test</th><th>14-Jun-2023</th><th>Reference&#xA0;Range</th><th>Unit</th></tr><tr><td>Urea nitrogen [Mass/volume] in Blood</td><td>14.2</td><td>7 - 50</td><td></td><td>mg/dL</td></tr></table></div>"
        },
        "status": "final",
        "subject": {
          "reference": "urn:uuid:c13c2de2-ec15-4cf8-9629-e61794d998f1",
          "display": "Jele Jurković"
        },
        "effectiveDateTime": "2023-06-14T18:07:38Z",
        "specimen": {
          "reference": "urn:uuid:487d2508-a60f-46d0-85d1-d1e5181b5ea4"
        }
      }
    },
    {
      "fullUrl": "urn:uuid:1ea9e938-54e5-4ff3-ad8d-650f383d5999",
      "resource": {
        "resourceType": "Observation",
        "id": "1ea9e938-54e5-4ff3-ad8d-650f383d5999",
        "meta": {
          "profile": [
            "http://hl7.eu/fhir/laboratory/StructureDefinition/Observation-resultslab-eu-lab"
          ]
        },
        "performer": [
          {
            "display": "The Central European Lab"
          }
        ],
        "category": [
          {
            "coding": [
              {
                "system": "http://terminology.hl7.org/CodeSystem/observation-category",
                "code": "laboratory"
              }
            ]
          }
        ],
        "code": {
          "coding": [
            {
              "code": "38483-4",
              "system": "http://loinc.org",
              "display": "Creatinine [Mass/volume] in Blood"
            }
          ],
          "text": "Creatinine [Mass/volume] in Blood"
        },
        "valueQuantity": {
          "system": "http://unitsofmeasure.org",
          "value": 0.6,
          "unit": "mg/dL",
          "code": "mg/dL"
        },
        "referenceRange": [
          {
            "low": {
              "value": 0.5,
              "code": "mg/dL",
              "system": "http://unitsofmeasure.org"
            }
          },
          {
            "high": {
              "value": 1.3,
              "code": "mg/dL",
              "system": "http://unitsofmeasure.org"
            }
          }
        ],
        "text": {
          "status": "generated",
          "div": "<div xmlns=\"http://www.w3.org/1999/xhtml\"><table class=\"hl7__eu__lab__report\"><tr><th>Test</th><th>14-Jun-2023</th><th>Reference&#xA0;Range</th><th>Unit</th></tr><tr><td>Creatinine [Mass/volume] in Blood</td><td>0.6</td><td>0.5 - 1.3</td><td></td><td>mg/dL</td></tr></table></div>"
        },
        "status": "final",
        "subject": {
          "reference": "urn:uuid:c13c2de2-ec15-4cf8-9629-e61794d998f1",
          "display": "Jele Jurković"
        },
        "effectiveDateTime": "2023-06-14T18:07:38Z",
        "specimen": {
          "reference": "urn:uuid:487d2508-a60f-46d0-85d1-d1e5181b5ea4"
        }
      }
    },
    {
      "fullUrl": "urn:uuid:3470709d-1377-4487-a8b8-c38e8aea1ef2",
      "resource": {
        "resourceType": "Observation",
        "id": "3470709d-1377-4487-a8b8-c38e8aea1ef2",
        "meta": {
          "profile": [
            "http://hl7.eu/fhir/laboratory/StructureDefinition/Observation-resultslab-eu-lab"
          ]
        },
        "performer": [
          {
            "display": "The Central European Lab"
          }
        ],
        "category": [
          {
            "coding": [
              {
                "system": "http://terminology.hl7.org/CodeSystem/observation-category",
                "code": "laboratory"
              }
            ]
          }
        ],
        "code": {
          "coding": [
            {
              "code": "49765-1",
              "system": "http://loinc.org",
              "display": "Calcium [Mass/volume] in Blood"
            }
          ],
          "text": "Calcium [Mass/volume] in Blood"
        },
        "valueQuantity": {
          "system": "http://unitsofmeasure.org",
          "value": 9.7,
          "unit": "mg/dL",
          "code": "mg/dL"
        },
        "referenceRange": [
          {
            "low": {
              "value": 8.5,
              "code": "mg/dL",
              "system": "http://unitsofmeasure.org"
            }
          },
          {
            "high": {
              "value": 10.4,
              "code": "mg/dL",
              "system": "http://unitsofmeasure.org"
            }
          }
        ],
        "text": {
          "status": "generated",
          "div": "<div xmlns=\"http://www.w3.org/1999/xhtml\"><table class=\"hl7__eu__lab__report\"><tr><th>Test</th><th>14-Jun-2023</th><th>Reference&#xA0;Range</th><th>Unit</th></tr><tr><td>Calcium [Mass/volume] in Blood</td><td>9.7</td><td>8.5 - 10.4</td><td></td><td>mg/dL</td></tr></table></div>"
        },
        "status": "final",
        "subject": {
          "reference": "urn:uuid:c13c2de2-ec15-4cf8-9629-e61794d998f1",
          "display": "Jele Jurković"
        },
        "effectiveDateTime": "2023-06-14T18:07:38Z",
        "specimen": {
          "reference": "urn:uuid:487d2508-a60f-46d0-85d1-d1e5181b5ea4"
        }
      }
    },
    {
      "fullUrl": "urn:uuid:1ede64d0-c995-4084-8597-b96e8d8d7c5b",
      "resource": {
        "resourceType": "Observation",
        "id": "1ede64d0-c995-4084-8597-b96e8d8d7c5b",
        "meta": {
          "profile": [
            "http://hl7.eu/fhir/laboratory/StructureDefinition/Observation-resultslab-eu-lab"
          ]
        },
        "performer": [
          {
            "display": "The Central European Lab"
          }
        ],
        "category": [
          {
            "coding": [
              {
                "system": "http://terminology.hl7.org/CodeSystem/observation-category",
                "code": "laboratory"
              }
            ]
          }
        ],
        "code": {
          "coding": [
            {
              "code": "2947-0",
              "system": "http://loinc.org",
              "display": "Sodium [Moles/volume] in Blood"
            }
          ],
          "text": "Sodium [Moles/volume] in Blood"
        },
        "valueQuantity": {
          "system": "http://unitsofmeasure.org",
          "value": 142.8,
          "unit": "mmol/L",
          "code": "mmol/L"
        },
        "referenceRange": [
          {
            "low": {
              "value": 135,
              "code": "mmol/L",
              "system": "http://unitsofmeasure.org"
            }
          },
          {
            "high": {
              "value": 145,
              "code": "mmol/L",
              "system": "http://unitsofmeasure.org"
            }
          }
        ],
        "text": {
          "status": "generated",
          "div": "<div xmlns=\"http://www.w3.org/1999/xhtml\"><table class=\"hl7__eu__lab__report\"><tr><th>Test</th><th>14-Jun-2023</th><th>Reference&#xA0;Range</th><th>Unit</th></tr><tr><td>Sodium [Moles/volume] in Blood</td><td>142.8</td><td>135 - 145</td><td></td><td>mmol/L</td></tr></table></div>"
        },
        "status": "final",
        "subject": {
          "reference": "urn:uuid:c13c2de2-ec15-4cf8-9629-e61794d998f1",
          "display": "Jele Jurković"
        },
        "effectiveDateTime": "2023-06-14T18:07:38Z",
        "specimen": {
          "reference": "urn:uuid:487d2508-a60f-46d0-85d1-d1e5181b5ea4"
        }
      }
    },
    {
      "fullUrl": "urn:uuid:3ffe5163-b520-4e66-ac25-9293d8026dc7",
      "resource": {
        "resourceType": "Observation",
        "id": "3ffe5163-b520-4e66-ac25-9293d8026dc7",
        "meta": {
          "profile": [
            "http://hl7.eu/fhir/laboratory/StructureDefinition/Observation-resultslab-eu-lab"
          ]
        },
        "performer": [
          {
            "display": "The Central European Lab"
          }
        ],
        "category": [
          {
            "coding": [
              {
                "system": "http://terminology.hl7.org/CodeSystem/observation-category",
                "code": "laboratory"
              }
            ]
          }
        ],
        "code": {
          "coding": [
            {
              "code": "6298-4",
              "system": "http://loinc.org",
              "display": "Potassium [Moles/volume] in Blood"
            }
          ],
          "text": "Potassium [Moles/volume] in Blood"
        },
        "valueQuantity": {
          "system": "http://unitsofmeasure.org",
          "value": 4.4,
          "unit": "mmol/L",
          "code": "mmol/L"
        },
        "referenceRange": [
          {
            "low": {
              "value": 3.5,
              "code": "mmol/L",
              "system": "http://unitsofmeasure.org"
            }
          },
          {
            "high": {
              "value": 5.3,
              "code": "mmol/L",
              "system": "http://unitsofmeasure.org"
            }
          }
        ],
        "text": {
          "status": "generated",
          "div": "<div xmlns=\"http://www.w3.org/1999/xhtml\"><table class=\"hl7__eu__lab__report\"><tr><th>Test</th><th>14-Jun-2023</th><th>Reference&#xA0;Range</th><th>Unit</th></tr><tr><td>Potassium [Moles/volume] in Blood</td><td>4.4</td><td>3.5 - 5.3</td><td></td><td>mmol/L</td></tr></table></div>"
        },
        "status": "final",
        "subject": {
          "reference": "urn:uuid:c13c2de2-ec15-4cf8-9629-e61794d998f1",
          "display": "Jele Jurković"
        },
        "effectiveDateTime": "2023-06-14T18:07:38Z",
        "specimen": {
          "reference": "urn:uuid:487d2508-a60f-46d0-85d1-d1e5181b5ea4"
        }
      }
    },
    {
      "fullUrl": "urn:uuid:cd5b4d51-74a0-43f8-9132-586bdc285df6",
      "resource": {
        "resourceType": "Observation",
        "id": "cd5b4d51-74a0-43f8-9132-586bdc285df6",
        "meta": {
          "profile": [
            "http://hl7.eu/fhir/laboratory/StructureDefinition/Observation-resultslab-eu-lab"
          ]
        },
        "performer": [
          {
            "display": "The Central European Lab"
          }
        ],
        "category": [
          {
            "coding": [
              {
                "system": "http://terminology.hl7.org/CodeSystem/observation-category",
                "code": "laboratory"
              }
            ]
          }
        ],
        "code": {
          "coding": [
            {
              "code": "2069-3",
              "system": "http://loinc.org",
              "display": "Chloride [Moles/volume] in Blood"
            }
          ],
          "text": "Chloride [Moles/volume] in Blood"
        },
        "valueQuantity": {
          "system": "http://unitsofmeasure.org",
          "value": 108.5,
          "unit": "mmol/L",
          "code": "mmol/L"
        },
        "referenceRange": [
          {
            "low": {
              "value": 98,
              "code": "mmol/L",
              "system": "http://unitsofmeasure.org"
            }
          },
          {
            "high": {
              "value": 110,
              "code": "mmol/L",
              "system": "http://unitsofmeasure.org"
            }
          }
        ],
        "text": {
          "status": "generated",
          "div": "<div xmlns=\"http://www.w3.org/1999/xhtml\"><table class=\"hl7__eu__lab__report\"><tr><th>Test</th><th>14-Jun-2023</th><th>Reference&#xA0;Range</th><th>Unit</th></tr><tr><td>Chloride [Moles/volume] in Blood</td><td>108.5</td><td>98 - 110</td><td></td><td>mmol/L</td></tr></table></div>"
        },
        "status": "final",
        "subject": {
          "reference": "urn:uuid:c13c2de2-ec15-4cf8-9629-e61794d998f1",
          "display": "Jele Jurković"
        },
        "effectiveDateTime": "2023-06-14T18:07:38Z",
        "specimen": {
          "reference": "urn:uuid:487d2508-a60f-46d0-85d1-d1e5181b5ea4"
        }
      }
    },
    {
      "fullUrl": "urn:uuid:56a8030c-5069-4029-99e6-b300ad36e01d",
      "resource": {
        "resourceType": "Observation",
        "id": "56a8030c-5069-4029-99e6-b300ad36e01d",
        "meta": {
          "profile": [
            "http://hl7.eu/fhir/laboratory/StructureDefinition/Observation-resultslab-eu-lab"
          ]
        },
        "performer": [
          {
            "display": "The Central European Lab"
          }
        ],
        "category": [
          {
            "coding": [
              {
                "system": "http://terminology.hl7.org/CodeSystem/observation-category",
                "code": "laboratory"
              }
            ]
          }
        ],
        "code": {
          "coding": [
            {
              "code": "20565-8",
              "system": "http://loinc.org",
              "display": "Carbon dioxide, total [Moles/volume] in Blood"
            }
          ],
          "text": "Carbon dioxide, total [Moles/volume] in Blood"
        },
        "valueQuantity": {
          "system": "http://unitsofmeasure.org",
          "value": 24,
          "unit": "mmol/L",
          "code": "mmol/L"
        },
        "referenceRange": [
          {
            "low": {
              "value": 22,
              "code": "mmol/L",
              "system": "http://unitsofmeasure.org"
            }
          },
          {
            "high": {
              "value": 32,
              "code": "mmol/L",
              "system": "http://unitsofmeasure.org"
            }
          }
        ],
        "text": {
          "status": "generated",
          "div": "<div xmlns=\"http://www.w3.org/1999/xhtml\"><table class=\"hl7__eu__lab__report\"><tr><th>Test</th><th>14-Jun-2023</th><th>Reference&#xA0;Range</th><th>Unit</th></tr><tr><td>Carbon dioxide, total [Moles/volume] in Blood</td><td>24.0</td><td>22 - 32</td><td></td><td>mmol/L</td></tr></table></div>"
        },
        "status": "final",
        "subject": {
          "reference": "urn:uuid:c13c2de2-ec15-4cf8-9629-e61794d998f1",
          "display": "Jele Jurković"
        },
        "effectiveDateTime": "2023-06-14T18:07:38Z",
        "specimen": {
          "reference": "urn:uuid:487d2508-a60f-46d0-85d1-d1e5181b5ea4"
        }
      }
    },
    {
      "fullUrl": "urn:uuid:d110ef6c-e9fe-4447-879e-9a150234cd18",
      "resource": {
        "resourceType": "Device",
        "id": "d110ef6c-e9fe-4447-879e-9a150234cd18",
        "deviceName": [
          {
            "name": "SYNDERAI Synthetic Generator",
            "type": "manufacturer-name"
          }
        ],
        "version": [
          {
            "value": "5.0"
          }
        ],
        "text": {
          "status": "generated",
          "div": "<div xmlns=\"http://www.w3.org/1999/xhtml\">SYNDERAI Synthetic Generator v5.0</div>"
        },
        "status": "active\"",
        "distinctIdentifier": "synderai-generator-50",
        "manufacturer": "SYNDERAI Project"
      }
    },
    {
      "fullUrl": "urn:uuid:cd883694-c4a7-40e6-b880-9b4125d68e2f",
      "resource": {
        "resourceType": "Provenance",
        "id": "cd883694-c4a7-40e6-b880-9b4125d68e2f",
        "target": [
          {
            "reference": "Patient/c13c2de2-ec15-4cf8-9629-e61794d998f1"
          },
          {
            "reference": "Bundle/64c69927-d4cf-4652-9f14-e77e58db921e"
          },
          {
            "reference": "Composition/c651d0c4-1eb7-408a-9d6e-29646a404454"
          },
          {
            "reference": "PractitionerRole/ff3da92b-7c50-44cc-9ec0-791166e1c3c3"
          },
          {
            "reference": "Practitioner/0cfaf396-a0b3-4269-9f65-fb12659ac83a"
          },
          {
            "reference": "PractitionerRole/9c3e23df-dd3c-451e-a3a1-f538d50c3ef1"
          },
          {
            "reference": "Organization/0e8e4241-e72c-4734-b6ac-c133902d866c"
          }
        ],
        "activity": {
          "text": "Synthetic Example Data Generation"
        },
        "policy": [
          "https://synderai.net/synderai-synthetic-data-policy"
        ],
        "agent": [
          {
            "type": {
              "text": "author"
            },
            "who": {
              "reference": "Device/d110ef6c-e9fe-4447-879e-9a150234cd18"
            }
          }
        ],
        "reason": [
          {
            "text": "Interoperability Testing and Training (non-clinical use)"
          }
        ],
        "text": {
          "status": "generated",
          "div": "<div xmlns=\"http://www.w3.org/1999/xhtml\">Provenance for SYNDERAI Synthetic Example Data Resource</div>"
        },
        "recorded": "2023-06-14T20:07:38Z"
      }
    },
    {
      "fullUrl": "urn:uuid:ff3da92b-7c50-44cc-9ec0-791166e1c3c3",
      "resource": {
        "resourceType": "PractitionerRole",
        "id": "ff3da92b-7c50-44cc-9ec0-791166e1c3c3",
        "meta": {
          "profile": [
            "http://hl7.eu/fhir/base/StructureDefinition/practitionerRole-eu"
          ]
        },
        "text": {
          "status": "generated",
          "div": "<div xmlns=\"http://www.w3.org/1999/xhtml\">Laboratory Role Id: ff3da92b-7c50-44cc-9ec0-791166e1c3c3</div>"
        },
        "practitioner": {
          "reference": "urn:uuid:0cfaf396-a0b3-4269-9f65-fb12659ac83a"
        }
      }
    },
    {
      "fullUrl": "urn:uuid:0cfaf396-a0b3-4269-9f65-fb12659ac83a",
      "resource": {
        "resourceType": "Practitioner",
        "id": "0cfaf396-a0b3-4269-9f65-fb12659ac83a",
        "meta": {
          "profile": [
            "http://hl7.eu/fhir/base/StructureDefinition/practitioner-eu"
          ]
        },
        "identifier": [
          {
            "assigner": {
              "display": "HL7 Europe"
            },
            "system": "urn:oid:2.16.840.1.113883.2.51.999",
            "value": "183931fa-55d1-4c90-99a3-a526ce6612ba"
          }
        ],
        "name": [
          {
            "prefix": [
              "dr"
            ],
            "given": [
              "Ex"
            ],
            "family": "Ample"
          }
        ],
        "address": [
          {
            "line": [
              "Laboratoire Central Européenne",
              "Boulevard du Jardin Botanique 32"
            ],
            "postalCode": "1000",
            "city": "Brussels",
            "country": "Belgium"
          }
        ],
        "text": {
          "status": "generated",
          "div": "<div xmlns=\"http://www.w3.org/1999/xhtml\">Laboratory: Laboratoire Central Européenne, 1000 Brussels, Belgium</div>"
        }
      }
    }
  ],
  "type": "document",
  "timestamp": "2023-06-14T20:07:38Z"
}
