{
  "resourceType": "Bundle",
  "id": "e72e0a64-6ce6-4f70-bdba-e5209370a412",
  "meta": {
    "profile": [
      "http://hl7.eu/fhir/laboratory/StructureDefinition/Bundle-eu-lab"
    ]
  },
  "identifier": {
    "assigner": {
      "display": "HL7 Europe"
    },
    "system": "urn:oid:2.16.840.1.113883.2.51.999",
    "value": "cdb275c1-31fe-4386-80f6-6797cca1f4bf"
  },
  "entry": [
    {
      "fullUrl": "urn:uuid:02fa47bb-0308-4ddc-a908-1813431ebe83",
      "resource": {
        "resourceType": "Composition",
        "id": "02fa47bb-0308-4ddc-a908-1813431ebe83",
        "meta": {
          "profile": [
            "http://hl7.eu/fhir/laboratory/StructureDefinition/Composition-eu-lab"
          ]
        },
        "identifier": {
          "assigner": {
            "display": "HL7 Europe"
          },
          "system": "urn:oid:2.16.840.1.113883.2.51.999",
          "value": "076335a7-d357-48cf-81af-3de88f30ebeb"
        },
        "author": [
          {
            "reference": "urn:uuid:d4aadc1d-14ac-4715-b50f-cbdc0c786928"
          }
        ],
        "category": [
          {
            "coding": [
              {
                "code": "26436-6",
                "system": "http://loinc.org",
                "display": "Laboratory studies (set)"
              }
            ]
          }
        ],
        "type": {
          "coding": [
            {
              "code": "11502-2",
              "system": "http://loinc.org",
              "display": "Laboratory report"
            }
          ],
          "text": "Laboratory Report"
        },
        "section": [
          {
            "code": {
              "coding": [
                {
                  "code": "26436-6",
                  "system": "http://loinc.org",
                  "display": "Laboratory studies (set)"
                }
              ],
              "text": "Laboratory studies"
            },
            "section": [
              {
                "code": {
                  "coding": [
                    {
                      "code": "$18719-5",
                      "system": "http://loinc.org",
                      "display": "Chemistry studies (set)"
                    }
                  ],
                  "text": "Chemistry"
                },
                "entry": [
                  {
                    "reference": "urn:uuid:5fbe4614-517b-402a-a34d-b1cbdb7bb6e7"
                  },
                  {
                    "reference": "urn:uuid:e5924aaa-085a-4371-935c-d14764098cb6"
                  },
                  {
                    "reference": "urn:uuid:ae2b0986-10b5-420e-8c32-e2063818021c"
                  },
                  {
                    "reference": "urn:uuid:5c0d5bf2-fe80-4ad8-b886-36e52fafcea9"
                  },
                  {
                    "reference": "urn:uuid:80b9eb6f-eca7-498a-8e9f-f56979cf3620"
                  },
                  {
                    "reference": "urn:uuid:5350eeeb-2339-455e-85cd-63703f82d5d4"
                  },
                  {
                    "reference": "urn:uuid:94d3b1a6-f306-465e-b27c-e814b84a389d"
                  },
                  {
                    "reference": "urn:uuid:d97c7a3a-3b8f-4f8a-b169-6ee598825569"
                  },
                  {
                    "reference": "urn:uuid:eb2ca70c-0508-4659-86d5-b9b505ba0497"
                  }
                ],
                "text": {
                  "status": "generated",
                  "div": "<div xmlns=\"http://www.w3.org/1999/xhtml\"><h3>Chemistry</h3><table class=\"hl7__eu__lab__report\"><thead><tr><th>Test</th><th>29-MAR-2022</th><th>Reference&#xA0;Range</th><th>Unit</th></tr></thead><tbody><tr><td>Glucose [Mass/volume] in Serum or Plasma</td><td>96.6</td><td>70 - 139</td><td>mg/dL</td></tr><tr><td>Urea nitrogen [Mass/volume] in Serum or Plasma</td><td>7.3</td><td>7 - 20</td><td>mg/dL</td></tr><tr><td>Creatinine [Mass/volume] in Serum or Plasma</td><td><strong>1.5 H</strong></td><td>0.6 - 1.1</td><td>mg/dL</td></tr><tr><td>Calcium [Mass/volume] in Serum or Plasma</td><td>9.1</td><td>8.5 - 10.4</td><td>mg/dL</td></tr><tr><td>Sodium [Moles/volume] in Serum or Plasma</td><td>140.2</td><td>135 - 145</td><td>mmol/L</td></tr><tr><td>Potassium [Moles/volume] in Serum or Plasma</td><td>5.1</td><td>3.5 - 5.1</td><td>mmol/L</td></tr><tr><td>Chloride [Moles/volume] in Serum or Plasma</td><td>108.4</td><td>98 - 110</td><td>mmol/L</td></tr><tr><td>Carbon dioxide, total [Moles/volume] in Serum or Plasma</td><td>25.6</td><td>22 - 32</td><td>mmol/L</td></tr><tr><td>Ketones [Presence] in Urine by Test strip</td><td>Urine ketone test = trace</td><td></td><td></td></tr></tbody></table></div>"
                },
                "title": "Chemistry"
              },
              {
                "code": {
                  "coding": [
                    {
                      "code": "$18729-4",
                      "system": "http://loinc.org",
                      "display": "Urinalysis studies (set)"
                    }
                  ],
                  "text": "Urinalysis"
                },
                "entry": [
                  {
                    "reference": "urn:uuid:59f7f214-c0ad-4eb1-8447-68439d56c4e8"
                  },
                  {
                    "reference": "urn:uuid:a2e16149-a03e-4426-996e-3dd7bce570ed"
                  },
                  {
                    "reference": "urn:uuid:88c7a6e1-da57-494a-9cf5-92d7a32b774d"
                  },
                  {
                    "reference": "urn:uuid:c4ec1962-b7f3-4695-9d91-c454e17ee5c8"
                  },
                  {
                    "reference": "urn:uuid:c1aa8732-873e-4cc4-a0e6-685028bd21d6"
                  },
                  {
                    "reference": "urn:uuid:500ac5e3-1270-442b-9538-5e8d3134f94a"
                  },
                  {
                    "reference": "urn:uuid:c38902a4-834b-45ab-beb2-93773d29e296"
                  },
                  {
                    "reference": "urn:uuid:bc4c3d5b-890b-472c-b441-d401bd527c9d"
                  },
                  {
                    "reference": "urn:uuid:1ae616a9-c3eb-44d1-93b6-ef37d5869a6b"
                  },
                  {
                    "reference": "urn:uuid:5eaabcb6-e46f-4248-9b7b-7de222be1dba"
                  },
                  {
                    "reference": "urn:uuid:8f7035f8-29fa-4f3a-bc76-f25d79a95495"
                  },
                  {
                    "reference": "urn:uuid:7829ac62-2105-4236-811b-1cefb5b40f89"
                  }
                ],
                "text": {
                  "status": "generated",
                  "div": "<div xmlns=\"http://www.w3.org/1999/xhtml\"><h3>Urinalysis</h3><table class=\"hl7__eu__lab__report\"><thead><tr><th>Test</th><th>29-MAR-2022</th><th>Reference&#xA0;Range</th><th>Unit</th></tr></thead><tbody><tr><td>Glucose [Mass/volume] in Urine by Test strip</td><td><strong>1.4 H</strong></td><td>0 - 0</td><td>mg/dL</td></tr><tr><td>Glucose [Presence] in Urine by Test strip</td><td>++</td><td></td><td></td></tr><tr><td>Bilirubin.total [Mass/volume] in Urine by Test strip</td><td>0.8</td><td>0 - 1.6</td><td>mg/dL</td></tr><tr><td>Bilirubin.total [Presence] in Urine by Test strip</td><td>Finding of bilirubin in urine</td><td></td><td></td></tr><tr><td>Ketones [Mass/volume] in Urine by Test strip</td><td><strong>19.7 H</strong></td><td>0 - 0.5</td><td>mg/dL</td></tr><tr><td>Specific gravity of Urine by Test strip</td><td><strong>1.0 L</strong></td><td>1.005 - 1.03</td><td>{nominal}</td></tr><tr><td>pH of Urine by Test strip</td><td>6.1</td><td>4.5 - 7.5</td><td>pH</td></tr><tr><td>Protein [Mass/volume] in Urine by Test strip</td><td><strong>123.5 H</strong></td><td>0 - 15</td><td>mg/dL</td></tr><tr><td>Protein [Presence] in Urine by Test strip</td><td>Urine protein test = +</td><td></td><td></td></tr><tr><td>Nitrite [Presence] in Urine by Test strip</td><td>Urine nitrite negative</td><td></td><td></td></tr><tr><td>Hemoglobin [Presence] in Urine by Test strip</td><td>Urine blood test = negative</td><td></td><td></td></tr><tr><td>Leukocyte esterase [Presence] in Urine by Test strip</td><td>Urine leukocyte test negative</td><td></td><td></td></tr></tbody></table></div>"
                },
                "title": "Urinalysis"
              },
              {
                "code": {
                  "coding": [
                    {
                      "code": "$LP7846-1",
                      "system": "http://loinc.org",
                      "display": "Specimen information"
                    }
                  ],
                  "text": "Specimen information"
                },
                "entry": [
                  {
                    "reference": "urn:uuid:282ecabe-171d-4afd-890e-cf720d5d407e"
                  },
                  {
                    "reference": "urn:uuid:45f61344-8165-4edf-90e1-95714b40d7cf"
                  },
                  {
                    "reference": "urn:uuid:5996a5c1-2575-4d53-b437-032612426c80"
                  },
                  {
                    "reference": "urn:uuid:305a25e9-0720-4a4a-886b-b5d271ef0253"
                  }
                ],
                "text": {
                  "status": "generated",
                  "div": "<div xmlns=\"http://www.w3.org/1999/xhtml\"><h3>Specimen information</h3><table class=\"hl7__eu__lab__report\"><thead><tr><th>Test</th><th>29-MAR-2022</th><th>Specimen</th><th></th></tr></thead><tbody><tr><td>Appearance of Urine</td><td>Cloudy urine</td><td>Urine</td><td></td></tr><tr><td>Odor of Urine</td><td>Urine smell ammoniacal</td><td>Urine</td><td></td></tr><tr><td>Clarity of Urine</td><td>Translucent</td><td>Urine</td><td></td></tr><tr><td>Color of Urine</td><td>Brown color</td><td>Urine</td><td></td></tr></tbody></table></div>"
                },
                "title": "Specimen information"
              }
            ],
            "title": "Laboratory Report"
          },
          {
            "text": {
              "status": "generated",
              "div": "<div xmlns=\"http://www.w3.org/1999/xhtml\"><h3>Annotation</h3><table class=\"hl7__eu__lab__report\"><tr><th>Conclusion and Recommendations based on this report and previous findings known to us</th></tr><tr><td>The patient shows elevated serum creatinine, suggesting possible renal impairment. Urinalysis reveals proteinuria, glucosuria, ketonuria, low specific gravity, and abnormal urine appearance (cloudy, brown, ammoniacal), but no hematuria, nitrites, or leukocytes. These findings are consistent with possible diabetic nephropathy or another renal pathology; further clinical correlation and nephrology evaluation are recommended.</td></tr></table></div>"
            },
            "code": {
              "coding": [
                {
                  "system": "http://loinc.org",
                  "code": "48767-8",
                  "display": "Annotation comment"
                }
              ]
            },
            "title": "Annotation comment"
          }
        ],
        "status": "final",
        "subject": {
          "reference": "urn:uuid:1e4670e8-1d34-40bc-8cf2-272b2371fb21",
          "display": "Hortense Gallet"
        },
        "date": "2022-03-29T22:16:45Z",
        "title": "Laboratory Report",
        "confidentiality": "N"
      }
    },
    {
      "fullUrl": "urn:uuid:5482376c-3ae9-4f12-92b8-b9f8e20ffc40",
      "resource": {
        "resourceType": "DiagnosticReport",
        "id": "5482376c-3ae9-4f12-92b8-b9f8e20ffc40",
        "meta": {
          "profile": [
            "http://hl7.eu/fhir/laboratory/StructureDefinition/DiagnosticReport-eu-lab"
          ]
        },
        "identifier": [
          {
            "assigner": {
              "display": "HL7 Europe"
            },
            "system": "urn:oid:2.16.840.1.113883.2.51.999",
            "value": "cd320b15-af8d-4e14-a12b-d0967da799f2"
          }
        ],
        "extension": [
          {
            "url": "http://hl7.org/fhir/5.0/StructureDefinition/extension-DiagnosticReport.composition",
            "valueReference": {
              "reference": "urn:uuid:076335a7-d357-48cf-81af-3de88f30ebeb"
            }
          }
        ],
        "category": [
          {
            "coding": [
              {
                "code": "26436-6",
                "system": "http://loinc.org",
                "display": "Laboratory studies (set)"
              }
            ]
          }
        ],
        "specimen": [
          {
            "reference": "urn:uuid:0fb44334-258a-42aa-bcf3-25d0ad53ca45"
          },
          {
            "reference": "urn:uuid:882acdb5-e8ac-44ae-b661-fd882fa9d631"
          }
        ],
        "result": [
          {
            "reference": "urn:uuid:5fbe4614-517b-402a-a34d-b1cbdb7bb6e7"
          },
          {
            "reference": "urn:uuid:e5924aaa-085a-4371-935c-d14764098cb6"
          },
          {
            "reference": "urn:uuid:ae2b0986-10b5-420e-8c32-e2063818021c"
          },
          {
            "reference": "urn:uuid:5c0d5bf2-fe80-4ad8-b886-36e52fafcea9"
          },
          {
            "reference": "urn:uuid:80b9eb6f-eca7-498a-8e9f-f56979cf3620"
          },
          {
            "reference": "urn:uuid:5350eeeb-2339-455e-85cd-63703f82d5d4"
          },
          {
            "reference": "urn:uuid:94d3b1a6-f306-465e-b27c-e814b84a389d"
          },
          {
            "reference": "urn:uuid:d97c7a3a-3b8f-4f8a-b169-6ee598825569"
          },
          {
            "reference": "urn:uuid:282ecabe-171d-4afd-890e-cf720d5d407e"
          },
          {
            "reference": "urn:uuid:45f61344-8165-4edf-90e1-95714b40d7cf"
          },
          {
            "reference": "urn:uuid:5996a5c1-2575-4d53-b437-032612426c80"
          },
          {
            "reference": "urn:uuid:305a25e9-0720-4a4a-886b-b5d271ef0253"
          },
          {
            "reference": "urn:uuid:59f7f214-c0ad-4eb1-8447-68439d56c4e8"
          },
          {
            "reference": "urn:uuid:a2e16149-a03e-4426-996e-3dd7bce570ed"
          },
          {
            "reference": "urn:uuid:88c7a6e1-da57-494a-9cf5-92d7a32b774d"
          },
          {
            "reference": "urn:uuid:c4ec1962-b7f3-4695-9d91-c454e17ee5c8"
          },
          {
            "reference": "urn:uuid:c1aa8732-873e-4cc4-a0e6-685028bd21d6"
          },
          {
            "reference": "urn:uuid:eb2ca70c-0508-4659-86d5-b9b505ba0497"
          },
          {
            "reference": "urn:uuid:500ac5e3-1270-442b-9538-5e8d3134f94a"
          },
          {
            "reference": "urn:uuid:c38902a4-834b-45ab-beb2-93773d29e296"
          },
          {
            "reference": "urn:uuid:bc4c3d5b-890b-472c-b441-d401bd527c9d"
          },
          {
            "reference": "urn:uuid:1ae616a9-c3eb-44d1-93b6-ef37d5869a6b"
          },
          {
            "reference": "urn:uuid:5eaabcb6-e46f-4248-9b7b-7de222be1dba"
          },
          {
            "reference": "urn:uuid:8f7035f8-29fa-4f3a-bc76-f25d79a95495"
          },
          {
            "reference": "urn:uuid:7829ac62-2105-4236-811b-1cefb5b40f89"
          }
        ],
        "status": "registered",
        "code": {
          "coding": [
            {
              "code": "11502-2",
              "system": "http://loinc.org",
              "display": "Laboratory report"
            }
          ]
        },
        "subject": {
          "reference": "urn:uuid:1e4670e8-1d34-40bc-8cf2-272b2371fb21",
          "display": "Hortense Gallet"
        }
      }
    },
    {
      "fullUrl": "urn:uuid:1e4670e8-1d34-40bc-8cf2-272b2371fb21",
      "resource": {
        "resourceType": "Patient",
        "id": "1e4670e8-1d34-40bc-8cf2-272b2371fb21",
        "meta": {
          "security": [
            {
              "system": "http://terminology.hl7.org/CodeSystem/v3-ActReason",
              "code": "HTEST"
            },
            {
              "system": "http://terminology.hl7.org/CodeSystem/v3-ActReason",
              "code": "TRAIN"
            }
          ],
          "tag": [
            {
              "system": "https://synderai.net/fhir/CodeSystem/tags",
              "code": "synthetic",
              "display": "SYNDERAI Synthetic data"
            }
          ],
          "profile": [
            "http://hl7.eu/fhir/base/StructureDefinition/patient-eu-core"
          ]
        },
        "identifier": [
          {
            "type": {
              "coding": [
                {
                  "code": "PT",
                  "system": "http://terminology.hl7.org/CodeSystem/v2-0203"
                }
              ]
            },
            "system": "http://ec.europa.eu/identifier/eci",
            "value": "7727-126450-7"
          },
          {
            "type": {
              "coding": [
                {
                  "code": "MR",
                  "system": "http://terminology.hl7.org/CodeSystem/v2-0203"
                }
              ]
            },
            "system": "http://local.setting.eu/identifier",
            "value": "7f40b956-404d-dd5b-92ca-442ee97c8277"
          }
        ],
        "name": [
          {
            "family": "Gallet"
          },
          {
            "given": [
              "Hortense"
            ]
          },
          {
            "text": "Hortense Gallet"
          }
        ],
        "address": [
          {
            "line": [
              "98, boulevard de Faure"
            ],
            "use": "home",
            "type": "physical",
            "postalCode": "03210",
            "city": "Besson",
            "country": "France"
          }
        ],
        "telecom": [
          {
            "system": "phone",
            "value": "03 26 87 89 04"
          }
        ],
        "extension": [
          {
            "url": "http://hl7.org/fhir/StructureDefinition/patient-nationality",
            "valueCodeableConcept": {
              "coding": [
                {
                  "code": "FR",
                  "system": "http://hl7.org/fhir/ValueSet/country"
                }
              ]
            }
          }
        ],
        "text": {
          "status": "generated",
          "div": "<div xmlns=\"http://www.w3.org/1999/xhtml\"><table class=\"hl7__ips\"><tr><td>Hortense Gallet</td><td>female</td><td>14-Feb-1967</td></tr></table></div>"
        },
        "gender": "female",
        "birthDate": "1967-02-14"
      }
    },
    {
      "fullUrl": "urn:uuid:fcebfc7c-24b2-4055-9921-ddec860e5094",
      "resource": {
        "resourceType": "ServiceRequest",
        "id": "fcebfc7c-24b2-4055-9921-ddec860e5094",
        "meta": {
          "profile": [
            "http://hl7.eu/fhir/laboratory/StructureDefinition/ServiceRequest-eu-lab"
          ]
        },
        "identifier": [
          {
            "system": "http://example.org",
            "value": "fc5c56b5-395b-4089-82ed-f7af475776e7"
          }
        ],
        "specimen": [
          {
            "reference": "urn:uuid:0fb44334-258a-42aa-bcf3-25d0ad53ca45"
          },
          {
            "reference": "urn:uuid:882acdb5-e8ac-44ae-b661-fd882fa9d631"
          }
        ],
        "reasonCode": [
          {
            "coding": [
              {
                "code": "431856006",
                "system": "http://snomed.info/sct",
                "display": "Chronic kidney disease stage 2"
              }
            ]
          },
          {
            "coding": [
              {
                "code": "90781000119102",
                "system": "http://snomed.info/sct",
                "display": "Microalbuminuria due to type 2 diabetes mellitus"
              }
            ]
          },
          {
            "coding": [
              {
                "code": "127013003",
                "system": "http://snomed.info/sct",
                "display": "Disorder of kidney due to diabetes mellitus"
              }
            ]
          },
          {
            "coding": [
              {
                "code": "431855005",
                "system": "http://snomed.info/sct",
                "display": "Chronic kidney disease stage 1"
              }
            ]
          },
          {
            "coding": [
              {
                "code": "59621000",
                "system": "http://snomed.info/sct",
                "display": "Essential hypertension"
              }
            ]
          }
        ],
        "status": "active",
        "intent": "order",
        "code": {
          "coding": [
            {
              "code": "108252007",
              "system": "http://snomed.info/sct",
              "display": "Laboratory procedure"
            }
          ]
        },
        "subject": {
          "reference": "urn:uuid:1e4670e8-1d34-40bc-8cf2-272b2371fb21",
          "display": "Hortense Gallet"
        },
        "requester": {
          "reference": "urn:uuid:d34b665f-f3ff-4224-96bc-1c11788051d5"
        }
      }
    },
    {
      "fullUrl": "urn:uuid:d34b665f-f3ff-4224-96bc-1c11788051d5",
      "resource": {
        "resourceType": "PractitionerRole",
        "id": "d34b665f-f3ff-4224-96bc-1c11788051d5",
        "meta": {
          "profile": [
            "http://hl7.eu/fhir/base/StructureDefinition/practitionerRole-eu"
          ]
        },
        "text": {
          "status": "generated",
          "div": "<div xmlns=\"http://www.w3.org/1999/xhtml\">Provider Role Id: d34b665f-f3ff-4224-96bc-1c11788051d5</div>"
        },
        "organization": {
          "reference": "urn:uuid:9e04c9ae-44b7-489e-841c-dec2b4558e2a"
        }
      }
    },
    {
      "fullUrl": "urn:uuid:9e04c9ae-44b7-489e-841c-dec2b4558e2a",
      "resource": {
        "resourceType": "Organization",
        "id": "9e04c9ae-44b7-489e-841c-dec2b4558e2a",
        "meta": {
          "profile": [
            "http://hl7.eu/fhir/base/StructureDefinition/organization-eu"
          ]
        },
        "identifier": [
          {
            "assigner": {
              "display": "HL7 Europe"
            },
            "system": "urn:oid:2.16.840.1.113883.2.51.999",
            "value": "5ea6a75e-a845-416f-a2da-edc911e59145"
          }
        ],
        "address": [
          {
            "line": [
              "Rue Jean Jaurès 140"
            ],
            "city": "Vichy",
            "postalCode": "03200",
            "country": "France"
          }
        ],
        "text": {
          "status": "generated",
          "div": "<div xmlns=\"http://www.w3.org/1999/xhtml\">Provider Organization: Centre La Chrysalide</div>"
        },
        "name": "Centre La Chrysalide"
      }
    },
    {
      "fullUrl": "urn:uuid:0fb44334-258a-42aa-bcf3-25d0ad53ca45",
      "resource": {
        "resourceType": "Specimen",
        "id": "0fb44334-258a-42aa-bcf3-25d0ad53ca45",
        "meta": {
          "profile": [
            "http://hl7.eu/fhir/laboratory/StructureDefinition/Specimen-eu-lab"
          ]
        },
        "collection": {
          "collectedDateTime": "2022-03-29"
        },
        "text": {
          "status": "generated",
          "div": "<div xmlns=\"http://www.w3.org/1999/xhtml\"><table class=\"hl7__eu__lab__report\"><tr><th>Specimen</th><th>Collection Date</th></tr><tr><td>Acellular blood (serum or plasma) specimen</td><td><span class=\"nb\">29-Mar-2022</span></td></tr></table></div>"
        },
        "type": {
          "coding": [
            {
              "code": "122592007",
              "system": "http://snomed.info/sct",
              "display": "Acellular blood (serum or plasma) specimen"
            }
          ]
        }
      }
    },
    {
      "fullUrl": "urn:uuid:882acdb5-e8ac-44ae-b661-fd882fa9d631",
      "resource": {
        "resourceType": "Specimen",
        "id": "882acdb5-e8ac-44ae-b661-fd882fa9d631",
        "meta": {
          "profile": [
            "http://hl7.eu/fhir/laboratory/StructureDefinition/Specimen-eu-lab"
          ]
        },
        "collection": {
          "collectedDateTime": "2022-03-29"
        },
        "text": {
          "status": "generated",
          "div": "<div xmlns=\"http://www.w3.org/1999/xhtml\"><table class=\"hl7__eu__lab__report\"><tr><th>Specimen</th><th>Collection Date</th></tr><tr><td>Urine specimen</td><td><span class=\"nb\">29-Mar-2022</span></td></tr></table></div>"
        },
        "type": {
          "coding": [
            {
              "code": "122575003",
              "system": "http://snomed.info/sct",
              "display": "Urine specimen"
            }
          ]
        }
      }
    },
    {
      "fullUrl": "urn:uuid:5fbe4614-517b-402a-a34d-b1cbdb7bb6e7",
      "resource": {
        "resourceType": "Observation",
        "id": "5fbe4614-517b-402a-a34d-b1cbdb7bb6e7",
        "meta": {
          "profile": [
            "http://hl7.eu/fhir/laboratory/StructureDefinition/Observation-resultslab-eu-lab"
          ]
        },
        "performer": [
          {
            "display": "The Central European Lab"
          }
        ],
        "category": [
          {
            "coding": [
              {
                "system": "http://terminology.hl7.org/CodeSystem/observation-category",
                "code": "laboratory"
              }
            ]
          }
        ],
        "code": {
          "coding": [
            {
              "code": "2345-7",
              "system": "http://loinc.org",
              "display": "Glucose [Mass/volume] in Serum or Plasma"
            }
          ],
          "text": "Glucose [Mass/volume] in Serum or Plasma"
        },
        "valueQuantity": {
          "system": "http://unitsofmeasure.org",
          "value": 96.6,
          "unit": "mg/dL",
          "code": "mg/dL"
        },
        "referenceRange": [
          {
            "low": {
              "value": 70,
              "code": "mg/dL",
              "system": "http://unitsofmeasure.org"
            }
          },
          {
            "high": {
              "value": 139,
              "code": "mg/dL",
              "system": "http://unitsofmeasure.org"
            }
          }
        ],
        "text": {
          "status": "generated",
          "div": "<div xmlns=\"http://www.w3.org/1999/xhtml\"><table class=\"hl7__eu__lab__report\"><tr><th>Test</th><th>29-Mar-2022</th><th>Reference&#xA0;Range</th><th>Unit</th></tr><tr><td>Glucose [Mass/volume] in Serum or Plasma</td><td>96.6</td><td>70 - 139</td><td></td><td>mg/dL</td></tr></table></div>"
        },
        "status": "final",
        "subject": {
          "reference": "urn:uuid:1e4670e8-1d34-40bc-8cf2-272b2371fb21",
          "display": "Hortense Gallet"
        },
        "effectiveDateTime": "2022-03-29T20:16:45Z",
        "specimen": {
          "reference": "urn:uuid:0fb44334-258a-42aa-bcf3-25d0ad53ca45"
        }
      }
    },
    {
      "fullUrl": "urn:uuid:e5924aaa-085a-4371-935c-d14764098cb6",
      "resource": {
        "resourceType": "Observation",
        "id": "e5924aaa-085a-4371-935c-d14764098cb6",
        "meta": {
          "profile": [
            "http://hl7.eu/fhir/laboratory/StructureDefinition/Observation-resultslab-eu-lab"
          ]
        },
        "performer": [
          {
            "display": "The Central European Lab"
          }
        ],
        "category": [
          {
            "coding": [
              {
                "system": "http://terminology.hl7.org/CodeSystem/observation-category",
                "code": "laboratory"
              }
            ]
          }
        ],
        "code": {
          "coding": [
            {
              "code": "3094-0",
              "system": "http://loinc.org",
              "display": "Urea nitrogen [Mass/volume] in Serum or Plasma"
            }
          ],
          "text": "Urea nitrogen [Mass/volume] in Serum or Plasma"
        },
        "valueQuantity": {
          "system": "http://unitsofmeasure.org",
          "value": 7.3,
          "unit": "mg/dL",
          "code": "mg/dL"
        },
        "referenceRange": [
          {
            "low": {
              "value": 7,
              "code": "mg/dL",
              "system": "http://unitsofmeasure.org"
            }
          },
          {
            "high": {
              "value": 20,
              "code": "mg/dL",
              "system": "http://unitsofmeasure.org"
            }
          }
        ],
        "text": {
          "status": "generated",
          "div": "<div xmlns=\"http://www.w3.org/1999/xhtml\"><table class=\"hl7__eu__lab__report\"><tr><th>Test</th><th>29-Mar-2022</th><th>Reference&#xA0;Range</th><th>Unit</th></tr><tr><td>Urea nitrogen [Mass/volume] in Serum or Plasma</td><td>7.3</td><td>7 - 20</td><td></td><td>mg/dL</td></tr></table></div>"
        },
        "status": "final",
        "subject": {
          "reference": "urn:uuid:1e4670e8-1d34-40bc-8cf2-272b2371fb21",
          "display": "Hortense Gallet"
        },
        "effectiveDateTime": "2022-03-29T20:16:45Z",
        "specimen": {
          "reference": "urn:uuid:0fb44334-258a-42aa-bcf3-25d0ad53ca45"
        }
      }
    },
    {
      "fullUrl": "urn:uuid:ae2b0986-10b5-420e-8c32-e2063818021c",
      "resource": {
        "resourceType": "Observation",
        "id": "ae2b0986-10b5-420e-8c32-e2063818021c",
        "meta": {
          "profile": [
            "http://hl7.eu/fhir/laboratory/StructureDefinition/Observation-resultslab-eu-lab"
          ]
        },
        "performer": [
          {
            "display": "The Central European Lab"
          }
        ],
        "category": [
          {
            "coding": [
              {
                "system": "http://terminology.hl7.org/CodeSystem/observation-category",
                "code": "laboratory"
              }
            ]
          }
        ],
        "code": {
          "coding": [
            {
              "code": "2160-0",
              "system": "http://loinc.org",
              "display": "Creatinine [Mass/volume] in Serum or Plasma"
            }
          ],
          "text": "Creatinine [Mass/volume] in Serum or Plasma"
        },
        "valueQuantity": {
          "system": "http://unitsofmeasure.org",
          "value": 1.5,
          "unit": "mg/dL",
          "code": "mg/dL"
        },
        "referenceRange": [
          {
            "low": {
              "value": 0.6,
              "code": "mg/dL",
              "system": "http://unitsofmeasure.org"
            }
          },
          {
            "high": {
              "value": 1.1,
              "code": "mg/dL",
              "system": "http://unitsofmeasure.org"
            }
          }
        ],
        "interpretation": [
          {
            "coding": [
              {
                "code": "H",
                "system": "http://terminology.hl7.org/CodeSystem/v3-ObservationInterpretation",
                "display": "High"
              }
            ]
          }
        ],
        "text": {
          "status": "generated",
          "div": "<div xmlns=\"http://www.w3.org/1999/xhtml\"><table class=\"hl7__eu__lab__report\"><tr><th>Test</th><th>29-Mar-2022</th><th>Reference&#xA0;Range</th><th>Unit</th></tr><tr><td>Creatinine [Mass/volume] in Serum or Plasma</td><td>1.5</td><td>0.6 - 1.1</td><td>H</td><td>mg/dL</td></tr></table></div>"
        },
        "status": "final",
        "subject": {
          "reference": "urn:uuid:1e4670e8-1d34-40bc-8cf2-272b2371fb21",
          "display": "Hortense Gallet"
        },
        "effectiveDateTime": "2022-03-29T20:16:45Z",
        "specimen": {
          "reference": "urn:uuid:0fb44334-258a-42aa-bcf3-25d0ad53ca45"
        }
      }
    },
    {
      "fullUrl": "urn:uuid:5c0d5bf2-fe80-4ad8-b886-36e52fafcea9",
      "resource": {
        "resourceType": "Observation",
        "id": "5c0d5bf2-fe80-4ad8-b886-36e52fafcea9",
        "meta": {
          "profile": [
            "http://hl7.eu/fhir/laboratory/StructureDefinition/Observation-resultslab-eu-lab"
          ]
        },
        "performer": [
          {
            "display": "The Central European Lab"
          }
        ],
        "category": [
          {
            "coding": [
              {
                "system": "http://terminology.hl7.org/CodeSystem/observation-category",
                "code": "laboratory"
              }
            ]
          }
        ],
        "code": {
          "coding": [
            {
              "code": "17861-6",
              "system": "http://loinc.org",
              "display": "Calcium [Mass/volume] in Serum or Plasma"
            }
          ],
          "text": "Calcium [Mass/volume] in Serum or Plasma"
        },
        "valueQuantity": {
          "system": "http://unitsofmeasure.org",
          "value": 9.1,
          "unit": "mg/dL",
          "code": "mg/dL"
        },
        "referenceRange": [
          {
            "low": {
              "value": 8.5,
              "code": "mg/dL",
              "system": "http://unitsofmeasure.org"
            }
          },
          {
            "high": {
              "value": 10.4,
              "code": "mg/dL",
              "system": "http://unitsofmeasure.org"
            }
          }
        ],
        "text": {
          "status": "generated",
          "div": "<div xmlns=\"http://www.w3.org/1999/xhtml\"><table class=\"hl7__eu__lab__report\"><tr><th>Test</th><th>29-Mar-2022</th><th>Reference&#xA0;Range</th><th>Unit</th></tr><tr><td>Calcium [Mass/volume] in Serum or Plasma</td><td>9.1</td><td>8.5 - 10.4</td><td></td><td>mg/dL</td></tr></table></div>"
        },
        "status": "final",
        "subject": {
          "reference": "urn:uuid:1e4670e8-1d34-40bc-8cf2-272b2371fb21",
          "display": "Hortense Gallet"
        },
        "effectiveDateTime": "2022-03-29T20:16:45Z",
        "specimen": {
          "reference": "urn:uuid:0fb44334-258a-42aa-bcf3-25d0ad53ca45"
        }
      }
    },
    {
      "fullUrl": "urn:uuid:80b9eb6f-eca7-498a-8e9f-f56979cf3620",
      "resource": {
        "resourceType": "Observation",
        "id": "80b9eb6f-eca7-498a-8e9f-f56979cf3620",
        "meta": {
          "profile": [
            "http://hl7.eu/fhir/laboratory/StructureDefinition/Observation-resultslab-eu-lab"
          ]
        },
        "performer": [
          {
            "display": "The Central European Lab"
          }
        ],
        "category": [
          {
            "coding": [
              {
                "system": "http://terminology.hl7.org/CodeSystem/observation-category",
                "code": "laboratory"
              }
            ]
          }
        ],
        "code": {
          "coding": [
            {
              "code": "2951-2",
              "system": "http://loinc.org",
              "display": "Sodium [Moles/volume] in Serum or Plasma"
            }
          ],
          "text": "Sodium [Moles/volume] in Serum or Plasma"
        },
        "valueQuantity": {
          "system": "http://unitsofmeasure.org",
          "value": 140.2,
          "unit": "mmol/L",
          "code": "mmol/L"
        },
        "referenceRange": [
          {
            "low": {
              "value": 135,
              "code": "mmol/L",
              "system": "http://unitsofmeasure.org"
            }
          },
          {
            "high": {
              "value": 145,
              "code": "mmol/L",
              "system": "http://unitsofmeasure.org"
            }
          }
        ],
        "text": {
          "status": "generated",
          "div": "<div xmlns=\"http://www.w3.org/1999/xhtml\"><table class=\"hl7__eu__lab__report\"><tr><th>Test</th><th>29-Mar-2022</th><th>Reference&#xA0;Range</th><th>Unit</th></tr><tr><td>Sodium [Moles/volume] in Serum or Plasma</td><td>140.2</td><td>135 - 145</td><td></td><td>mmol/L</td></tr></table></div>"
        },
        "status": "final",
        "subject": {
          "reference": "urn:uuid:1e4670e8-1d34-40bc-8cf2-272b2371fb21",
          "display": "Hortense Gallet"
        },
        "effectiveDateTime": "2022-03-29T20:16:45Z",
        "specimen": {
          "reference": "urn:uuid:0fb44334-258a-42aa-bcf3-25d0ad53ca45"
        }
      }
    },
    {
      "fullUrl": "urn:uuid:5350eeeb-2339-455e-85cd-63703f82d5d4",
      "resource": {
        "resourceType": "Observation",
        "id": "5350eeeb-2339-455e-85cd-63703f82d5d4",
        "meta": {
          "profile": [
            "http://hl7.eu/fhir/laboratory/StructureDefinition/Observation-resultslab-eu-lab"
          ]
        },
        "performer": [
          {
            "display": "The Central European Lab"
          }
        ],
        "category": [
          {
            "coding": [
              {
                "system": "http://terminology.hl7.org/CodeSystem/observation-category",
                "code": "laboratory"
              }
            ]
          }
        ],
        "code": {
          "coding": [
            {
              "code": "2823-3",
              "system": "http://loinc.org",
              "display": "Potassium [Moles/volume] in Serum or Plasma"
            }
          ],
          "text": "Potassium [Moles/volume] in Serum or Plasma"
        },
        "valueQuantity": {
          "system": "http://unitsofmeasure.org",
          "value": 5.1,
          "unit": "mmol/L",
          "code": "mmol/L"
        },
        "referenceRange": [
          {
            "low": {
              "value": 3.5,
              "code": "mmol/L",
              "system": "http://unitsofmeasure.org"
            }
          },
          {
            "high": {
              "value": 5.1,
              "code": "mmol/L",
              "system": "http://unitsofmeasure.org"
            }
          }
        ],
        "text": {
          "status": "generated",
          "div": "<div xmlns=\"http://www.w3.org/1999/xhtml\"><table class=\"hl7__eu__lab__report\"><tr><th>Test</th><th>29-Mar-2022</th><th>Reference&#xA0;Range</th><th>Unit</th></tr><tr><td>Potassium [Moles/volume] in Serum or Plasma</td><td>5.1</td><td>3.5 - 5.1</td><td></td><td>mmol/L</td></tr></table></div>"
        },
        "status": "final",
        "subject": {
          "reference": "urn:uuid:1e4670e8-1d34-40bc-8cf2-272b2371fb21",
          "display": "Hortense Gallet"
        },
        "effectiveDateTime": "2022-03-29T20:16:45Z",
        "specimen": {
          "reference": "urn:uuid:0fb44334-258a-42aa-bcf3-25d0ad53ca45"
        }
      }
    },
    {
      "fullUrl": "urn:uuid:94d3b1a6-f306-465e-b27c-e814b84a389d",
      "resource": {
        "resourceType": "Observation",
        "id": "94d3b1a6-f306-465e-b27c-e814b84a389d",
        "meta": {
          "profile": [
            "http://hl7.eu/fhir/laboratory/StructureDefinition/Observation-resultslab-eu-lab"
          ]
        },
        "performer": [
          {
            "display": "The Central European Lab"
          }
        ],
        "category": [
          {
            "coding": [
              {
                "system": "http://terminology.hl7.org/CodeSystem/observation-category",
                "code": "laboratory"
              }
            ]
          }
        ],
        "code": {
          "coding": [
            {
              "code": "2075-0",
              "system": "http://loinc.org",
              "display": "Chloride [Moles/volume] in Serum or Plasma"
            }
          ],
          "text": "Chloride [Moles/volume] in Serum or Plasma"
        },
        "valueQuantity": {
          "system": "http://unitsofmeasure.org",
          "value": 108.4,
          "unit": "mmol/L",
          "code": "mmol/L"
        },
        "referenceRange": [
          {
            "low": {
              "value": 98,
              "code": "mmol/L",
              "system": "http://unitsofmeasure.org"
            }
          },
          {
            "high": {
              "value": 110,
              "code": "mmol/L",
              "system": "http://unitsofmeasure.org"
            }
          }
        ],
        "text": {
          "status": "generated",
          "div": "<div xmlns=\"http://www.w3.org/1999/xhtml\"><table class=\"hl7__eu__lab__report\"><tr><th>Test</th><th>29-Mar-2022</th><th>Reference&#xA0;Range</th><th>Unit</th></tr><tr><td>Chloride [Moles/volume] in Serum or Plasma</td><td>108.4</td><td>98 - 110</td><td></td><td>mmol/L</td></tr></table></div>"
        },
        "status": "final",
        "subject": {
          "reference": "urn:uuid:1e4670e8-1d34-40bc-8cf2-272b2371fb21",
          "display": "Hortense Gallet"
        },
        "effectiveDateTime": "2022-03-29T20:16:45Z",
        "specimen": {
          "reference": "urn:uuid:0fb44334-258a-42aa-bcf3-25d0ad53ca45"
        }
      }
    },
    {
      "fullUrl": "urn:uuid:d97c7a3a-3b8f-4f8a-b169-6ee598825569",
      "resource": {
        "resourceType": "Observation",
        "id": "d97c7a3a-3b8f-4f8a-b169-6ee598825569",
        "meta": {
          "profile": [
            "http://hl7.eu/fhir/laboratory/StructureDefinition/Observation-resultslab-eu-lab"
          ]
        },
        "performer": [
          {
            "display": "The Central European Lab"
          }
        ],
        "category": [
          {
            "coding": [
              {
                "system": "http://terminology.hl7.org/CodeSystem/observation-category",
                "code": "laboratory"
              }
            ]
          }
        ],
        "code": {
          "coding": [
            {
              "code": "2028-9",
              "system": "http://loinc.org",
              "display": "Carbon dioxide, total [Moles/volume] in Serum or Plasma"
            }
          ],
          "text": "Carbon dioxide, total [Moles/volume] in Serum or Plasma"
        },
        "valueQuantity": {
          "system": "http://unitsofmeasure.org",
          "value": 25.6,
          "unit": "mmol/L",
          "code": "mmol/L"
        },
        "referenceRange": [
          {
            "low": {
              "value": 22,
              "code": "mmol/L",
              "system": "http://unitsofmeasure.org"
            }
          },
          {
            "high": {
              "value": 32,
              "code": "mmol/L",
              "system": "http://unitsofmeasure.org"
            }
          }
        ],
        "text": {
          "status": "generated",
          "div": "<div xmlns=\"http://www.w3.org/1999/xhtml\"><table class=\"hl7__eu__lab__report\"><tr><th>Test</th><th>29-Mar-2022</th><th>Reference&#xA0;Range</th><th>Unit</th></tr><tr><td>Carbon dioxide, total [Moles/volume] in Serum or Plasma</td><td>25.6</td><td>22 - 32</td><td></td><td>mmol/L</td></tr></table></div>"
        },
        "status": "final",
        "subject": {
          "reference": "urn:uuid:1e4670e8-1d34-40bc-8cf2-272b2371fb21",
          "display": "Hortense Gallet"
        },
        "effectiveDateTime": "2022-03-29T20:16:45Z",
        "specimen": {
          "reference": "urn:uuid:0fb44334-258a-42aa-bcf3-25d0ad53ca45"
        }
      }
    },
    {
      "fullUrl": "urn:uuid:282ecabe-171d-4afd-890e-cf720d5d407e",
      "resource": {
        "resourceType": "Observation",
        "id": "282ecabe-171d-4afd-890e-cf720d5d407e",
        "meta": {
          "profile": [
            "http://hl7.eu/fhir/laboratory/StructureDefinition/Observation-resultslab-eu-lab"
          ]
        },
        "performer": [
          {
            "display": "The Central European Lab"
          }
        ],
        "category": [
          {
            "coding": [
              {
                "system": "http://terminology.hl7.org/CodeSystem/observation-category",
                "code": "laboratory"
              }
            ]
          }
        ],
        "code": {
          "coding": [
            {
              "code": "5767-9",
              "system": "http://loinc.org",
              "display": "Appearance of Urine"
            }
          ],
          "text": "Appearance of Urine"
        },
        "text": {
          "status": "generated",
          "div": "<div xmlns=\"http://www.w3.org/1999/xhtml\"><table class=\"hl7__eu__lab__report\"><tr><th>Test</th><th>29-Mar-2022</th><th>Reference&#xA0;Range</th><th>Unit</th></tr><tr><td>Appearance of Urine</td></tr></table></div>"
        },
        "status": "final",
        "subject": {
          "reference": "urn:uuid:1e4670e8-1d34-40bc-8cf2-272b2371fb21",
          "display": "Hortense Gallet"
        },
        "effectiveDateTime": "2022-03-29T20:16:45Z",
        "specimen": {
          "reference": "urn:uuid:882acdb5-e8ac-44ae-b661-fd882fa9d631"
        }
      }
    },
    {
      "fullUrl": "urn:uuid:45f61344-8165-4edf-90e1-95714b40d7cf",
      "resource": {
        "resourceType": "Observation",
        "id": "45f61344-8165-4edf-90e1-95714b40d7cf",
        "meta": {
          "profile": [
            "http://hl7.eu/fhir/laboratory/StructureDefinition/Observation-resultslab-eu-lab"
          ]
        },
        "performer": [
          {
            "display": "The Central European Lab"
          }
        ],
        "category": [
          {
            "coding": [
              {
                "system": "http://terminology.hl7.org/CodeSystem/observation-category",
                "code": "laboratory"
              }
            ]
          }
        ],
        "code": {
          "coding": [
            {
              "code": "34533-0",
              "system": "http://loinc.org",
              "display": "Odor of Urine"
            }
          ],
          "text": "Odor of Urine"
        },
        "text": {
          "status": "generated",
          "div": "<div xmlns=\"http://www.w3.org/1999/xhtml\"><table class=\"hl7__eu__lab__report\"><tr><th>Test</th><th>29-Mar-2022</th><th>Reference&#xA0;Range</th><th>Unit</th></tr><tr><td>Odor of Urine</td></tr></table></div>"
        },
        "status": "final",
        "subject": {
          "reference": "urn:uuid:1e4670e8-1d34-40bc-8cf2-272b2371fb21",
          "display": "Hortense Gallet"
        },
        "effectiveDateTime": "2022-03-29T20:16:45Z",
        "specimen": {
          "reference": "urn:uuid:882acdb5-e8ac-44ae-b661-fd882fa9d631"
        }
      }
    },
    {
      "fullUrl": "urn:uuid:5996a5c1-2575-4d53-b437-032612426c80",
      "resource": {
        "resourceType": "Observation",
        "id": "5996a5c1-2575-4d53-b437-032612426c80",
        "meta": {
          "profile": [
            "http://hl7.eu/fhir/laboratory/StructureDefinition/Observation-resultslab-eu-lab"
          ]
        },
        "performer": [
          {
            "display": "The Central European Lab"
          }
        ],
        "category": [
          {
            "coding": [
              {
                "system": "http://terminology.hl7.org/CodeSystem/observation-category",
                "code": "laboratory"
              }
            ]
          }
        ],
        "code": {
          "coding": [
            {
              "code": "32167-9",
              "system": "http://loinc.org",
              "display": "Clarity of Urine"
            }
          ],
          "text": "Clarity of Urine"
        },
        "text": {
          "status": "generated",
          "div": "<div xmlns=\"http://www.w3.org/1999/xhtml\"><table class=\"hl7__eu__lab__report\"><tr><th>Test</th><th>29-Mar-2022</th><th>Reference&#xA0;Range</th><th>Unit</th></tr><tr><td>Clarity of Urine</td></tr></table></div>"
        },
        "status": "final",
        "subject": {
          "reference": "urn:uuid:1e4670e8-1d34-40bc-8cf2-272b2371fb21",
          "display": "Hortense Gallet"
        },
        "effectiveDateTime": "2022-03-29T20:16:45Z",
        "specimen": {
          "reference": "urn:uuid:882acdb5-e8ac-44ae-b661-fd882fa9d631"
        }
      }
    },
    {
      "fullUrl": "urn:uuid:305a25e9-0720-4a4a-886b-b5d271ef0253",
      "resource": {
        "resourceType": "Observation",
        "id": "305a25e9-0720-4a4a-886b-b5d271ef0253",
        "meta": {
          "profile": [
            "http://hl7.eu/fhir/laboratory/StructureDefinition/Observation-resultslab-eu-lab"
          ]
        },
        "performer": [
          {
            "display": "The Central European Lab"
          }
        ],
        "category": [
          {
            "coding": [
              {
                "system": "http://terminology.hl7.org/CodeSystem/observation-category",
                "code": "laboratory"
              }
            ]
          }
        ],
        "code": {
          "coding": [
            {
              "code": "5778-6",
              "system": "http://loinc.org",
              "display": "Color of Urine"
            }
          ],
          "text": "Color of Urine"
        },
        "text": {
          "status": "generated",
          "div": "<div xmlns=\"http://www.w3.org/1999/xhtml\"><table class=\"hl7__eu__lab__report\"><tr><th>Test</th><th>29-Mar-2022</th><th>Reference&#xA0;Range</th><th>Unit</th></tr><tr><td>Color of Urine</td></tr></table></div>"
        },
        "status": "final",
        "subject": {
          "reference": "urn:uuid:1e4670e8-1d34-40bc-8cf2-272b2371fb21",
          "display": "Hortense Gallet"
        },
        "effectiveDateTime": "2022-03-29T20:16:45Z",
        "specimen": {
          "reference": "urn:uuid:882acdb5-e8ac-44ae-b661-fd882fa9d631"
        }
      }
    },
    {
      "fullUrl": "urn:uuid:59f7f214-c0ad-4eb1-8447-68439d56c4e8",
      "resource": {
        "resourceType": "Observation",
        "id": "59f7f214-c0ad-4eb1-8447-68439d56c4e8",
        "meta": {
          "profile": [
            "http://hl7.eu/fhir/laboratory/StructureDefinition/Observation-resultslab-eu-lab"
          ]
        },
        "performer": [
          {
            "display": "The Central European Lab"
          }
        ],
        "category": [
          {
            "coding": [
              {
                "system": "http://terminology.hl7.org/CodeSystem/observation-category",
                "code": "laboratory"
              }
            ]
          }
        ],
        "code": {
          "coding": [
            {
              "code": "5792-7",
              "system": "http://loinc.org",
              "display": "Glucose [Mass/volume] in Urine by Test strip"
            }
          ],
          "text": "Glucose [Mass/volume] in Urine by Test strip"
        },
        "valueQuantity": {
          "system": "http://unitsofmeasure.org",
          "value": 1.4,
          "unit": "mg/dL",
          "code": "mg/dL"
        },
        "referenceRange": [
          {
            "low": {
              "value": 0,
              "code": "mg/dL",
              "system": "http://unitsofmeasure.org"
            }
          },
          {
            "high": {
              "value": 0,
              "code": "mg/dL",
              "system": "http://unitsofmeasure.org"
            }
          }
        ],
        "interpretation": [
          {
            "coding": [
              {
                "code": "H",
                "system": "http://terminology.hl7.org/CodeSystem/v3-ObservationInterpretation",
                "display": "High"
              }
            ]
          }
        ],
        "text": {
          "status": "generated",
          "div": "<div xmlns=\"http://www.w3.org/1999/xhtml\"><table class=\"hl7__eu__lab__report\"><tr><th>Test</th><th>29-Mar-2022</th><th>Reference&#xA0;Range</th><th>Unit</th></tr><tr><td>Glucose [Mass/volume] in Urine by Test strip</td><td>1.4</td><td>0 - 0</td><td>H</td><td>mg/dL</td></tr></table></div>"
        },
        "status": "final",
        "subject": {
          "reference": "urn:uuid:1e4670e8-1d34-40bc-8cf2-272b2371fb21",
          "display": "Hortense Gallet"
        },
        "effectiveDateTime": "2022-03-29T20:16:45Z",
        "specimen": {
          "reference": "urn:uuid:882acdb5-e8ac-44ae-b661-fd882fa9d631"
        }
      }
    },
    {
      "fullUrl": "urn:uuid:a2e16149-a03e-4426-996e-3dd7bce570ed",
      "resource": {
        "resourceType": "Observation",
        "id": "a2e16149-a03e-4426-996e-3dd7bce570ed",
        "meta": {
          "profile": [
            "http://hl7.eu/fhir/laboratory/StructureDefinition/Observation-resultslab-eu-lab"
          ]
        },
        "performer": [
          {
            "display": "The Central European Lab"
          }
        ],
        "category": [
          {
            "coding": [
              {
                "system": "http://terminology.hl7.org/CodeSystem/observation-category",
                "code": "laboratory"
              }
            ]
          }
        ],
        "code": {
          "coding": [
            {
              "code": "25428-4",
              "system": "http://loinc.org",
              "display": "Glucose [Presence] in Urine by Test strip"
            }
          ],
          "text": "Glucose [Presence] in Urine by Test strip"
        },
        "text": {
          "status": "generated",
          "div": "<div xmlns=\"http://www.w3.org/1999/xhtml\"><table class=\"hl7__eu__lab__report\"><tr><th>Test</th><th>29-Mar-2022</th><th>Reference&#xA0;Range</th><th>Unit</th></tr><tr><td>Glucose [Presence] in Urine by Test strip</td></tr></table></div>"
        },
        "status": "final",
        "subject": {
          "reference": "urn:uuid:1e4670e8-1d34-40bc-8cf2-272b2371fb21",
          "display": "Hortense Gallet"
        },
        "effectiveDateTime": "2022-03-29T20:16:45Z",
        "specimen": {
          "reference": "urn:uuid:882acdb5-e8ac-44ae-b661-fd882fa9d631"
        }
      }
    },
    {
      "fullUrl": "urn:uuid:88c7a6e1-da57-494a-9cf5-92d7a32b774d",
      "resource": {
        "resourceType": "Observation",
        "id": "88c7a6e1-da57-494a-9cf5-92d7a32b774d",
        "meta": {
          "profile": [
            "http://hl7.eu/fhir/laboratory/StructureDefinition/Observation-resultslab-eu-lab"
          ]
        },
        "performer": [
          {
            "display": "The Central European Lab"
          }
        ],
        "category": [
          {
            "coding": [
              {
                "system": "http://terminology.hl7.org/CodeSystem/observation-category",
                "code": "laboratory"
              }
            ]
          }
        ],
        "code": {
          "coding": [
            {
              "code": "20505-4",
              "system": "http://loinc.org",
              "display": "Bilirubin.total [Mass/volume] in Urine by Test strip"
            }
          ],
          "text": "Bilirubin.total [Mass/volume] in Urine by Test strip"
        },
        "valueQuantity": {
          "system": "http://unitsofmeasure.org",
          "value": 0.8,
          "unit": "mg/dL",
          "code": "mg/dL"
        },
        "referenceRange": [
          {
            "low": {
              "value": 0,
              "code": "mg/dL",
              "system": "http://unitsofmeasure.org"
            }
          },
          {
            "high": {
              "value": 1.6,
              "code": "mg/dL",
              "system": "http://unitsofmeasure.org"
            }
          }
        ],
        "text": {
          "status": "generated",
          "div": "<div xmlns=\"http://www.w3.org/1999/xhtml\"><table class=\"hl7__eu__lab__report\"><tr><th>Test</th><th>29-Mar-2022</th><th>Reference&#xA0;Range</th><th>Unit</th></tr><tr><td>Bilirubin.total [Mass/volume] in Urine by Test strip</td><td>0.8</td><td>0 - 1.6</td><td></td><td>mg/dL</td></tr></table></div>"
        },
        "status": "final",
        "subject": {
          "reference": "urn:uuid:1e4670e8-1d34-40bc-8cf2-272b2371fb21",
          "display": "Hortense Gallet"
        },
        "effectiveDateTime": "2022-03-29T20:16:45Z",
        "specimen": {
          "reference": "urn:uuid:882acdb5-e8ac-44ae-b661-fd882fa9d631"
        }
      }
    },
    {
      "fullUrl": "urn:uuid:c4ec1962-b7f3-4695-9d91-c454e17ee5c8",
      "resource": {
        "resourceType": "Observation",
        "id": "c4ec1962-b7f3-4695-9d91-c454e17ee5c8",
        "meta": {
          "profile": [
            "http://hl7.eu/fhir/laboratory/StructureDefinition/Observation-resultslab-eu-lab"
          ]
        },
        "performer": [
          {
            "display": "The Central European Lab"
          }
        ],
        "category": [
          {
            "coding": [
              {
                "system": "http://terminology.hl7.org/CodeSystem/observation-category",
                "code": "laboratory"
              }
            ]
          }
        ],
        "code": {
          "coding": [
            {
              "code": "5770-3",
              "system": "http://loinc.org",
              "display": "Bilirubin.total [Presence] in Urine by Test strip"
            }
          ],
          "text": "Bilirubin.total [Presence] in Urine by Test strip"
        },
        "text": {
          "status": "generated",
          "div": "<div xmlns=\"http://www.w3.org/1999/xhtml\"><table class=\"hl7__eu__lab__report\"><tr><th>Test</th><th>29-Mar-2022</th><th>Reference&#xA0;Range</th><th>Unit</th></tr><tr><td>Bilirubin.total [Presence] in Urine by Test strip</td></tr></table></div>"
        },
        "status": "final",
        "subject": {
          "reference": "urn:uuid:1e4670e8-1d34-40bc-8cf2-272b2371fb21",
          "display": "Hortense Gallet"
        },
        "effectiveDateTime": "2022-03-29T20:16:45Z",
        "specimen": {
          "reference": "urn:uuid:882acdb5-e8ac-44ae-b661-fd882fa9d631"
        }
      }
    },
    {
      "fullUrl": "urn:uuid:c1aa8732-873e-4cc4-a0e6-685028bd21d6",
      "resource": {
        "resourceType": "Observation",
        "id": "c1aa8732-873e-4cc4-a0e6-685028bd21d6",
        "meta": {
          "profile": [
            "http://hl7.eu/fhir/laboratory/StructureDefinition/Observation-resultslab-eu-lab"
          ]
        },
        "performer": [
          {
            "display": "The Central European Lab"
          }
        ],
        "category": [
          {
            "coding": [
              {
                "system": "http://terminology.hl7.org/CodeSystem/observation-category",
                "code": "laboratory"
              }
            ]
          }
        ],
        "code": {
          "coding": [
            {
              "code": "5797-6",
              "system": "http://loinc.org",
              "display": "Ketones [Mass/volume] in Urine by Test strip"
            }
          ],
          "text": "Ketones [Mass/volume] in Urine by Test strip"
        },
        "valueQuantity": {
          "system": "http://unitsofmeasure.org",
          "value": 19.7,
          "unit": "mg/dL",
          "code": "mg/dL"
        },
        "referenceRange": [
          {
            "low": {
              "value": 0,
              "code": "mg/dL",
              "system": "http://unitsofmeasure.org"
            }
          },
          {
            "high": {
              "value": 0.5,
              "code": "mg/dL",
              "system": "http://unitsofmeasure.org"
            }
          }
        ],
        "interpretation": [
          {
            "coding": [
              {
                "code": "H",
                "system": "http://terminology.hl7.org/CodeSystem/v3-ObservationInterpretation",
                "display": "High"
              }
            ]
          }
        ],
        "text": {
          "status": "generated",
          "div": "<div xmlns=\"http://www.w3.org/1999/xhtml\"><table class=\"hl7__eu__lab__report\"><tr><th>Test</th><th>29-Mar-2022</th><th>Reference&#xA0;Range</th><th>Unit</th></tr><tr><td>Ketones [Mass/volume] in Urine by Test strip</td><td>19.7</td><td>0 - 0.5</td><td>H</td><td>mg/dL</td></tr></table></div>"
        },
        "status": "final",
        "subject": {
          "reference": "urn:uuid:1e4670e8-1d34-40bc-8cf2-272b2371fb21",
          "display": "Hortense Gallet"
        },
        "effectiveDateTime": "2022-03-29T20:16:45Z",
        "specimen": {
          "reference": "urn:uuid:882acdb5-e8ac-44ae-b661-fd882fa9d631"
        }
      }
    },
    {
      "fullUrl": "urn:uuid:eb2ca70c-0508-4659-86d5-b9b505ba0497",
      "resource": {
        "resourceType": "Observation",
        "id": "eb2ca70c-0508-4659-86d5-b9b505ba0497",
        "meta": {
          "profile": [
            "http://hl7.eu/fhir/laboratory/StructureDefinition/Observation-resultslab-eu-lab"
          ]
        },
        "performer": [
          {
            "display": "The Central European Lab"
          }
        ],
        "category": [
          {
            "coding": [
              {
                "system": "http://terminology.hl7.org/CodeSystem/observation-category",
                "code": "laboratory"
              }
            ]
          }
        ],
        "code": {
          "coding": [
            {
              "code": "2514-8",
              "system": "http://loinc.org",
              "display": "Ketones [Presence] in Urine by Test strip"
            }
          ],
          "text": "Ketones [Presence] in Urine by Test strip"
        },
        "text": {
          "status": "generated",
          "div": "<div xmlns=\"http://www.w3.org/1999/xhtml\"><table class=\"hl7__eu__lab__report\"><tr><th>Test</th><th>29-Mar-2022</th><th>Reference&#xA0;Range</th><th>Unit</th></tr><tr><td>Ketones [Presence] in Urine by Test strip</td></tr></table></div>"
        },
        "status": "final",
        "subject": {
          "reference": "urn:uuid:1e4670e8-1d34-40bc-8cf2-272b2371fb21",
          "display": "Hortense Gallet"
        },
        "effectiveDateTime": "2022-03-29T20:16:45Z",
        "specimen": {
          "reference": "urn:uuid:882acdb5-e8ac-44ae-b661-fd882fa9d631"
        }
      }
    },
    {
      "fullUrl": "urn:uuid:500ac5e3-1270-442b-9538-5e8d3134f94a",
      "resource": {
        "resourceType": "Observation",
        "id": "500ac5e3-1270-442b-9538-5e8d3134f94a",
        "meta": {
          "profile": [
            "http://hl7.eu/fhir/laboratory/StructureDefinition/Observation-resultslab-eu-lab"
          ]
        },
        "performer": [
          {
            "display": "The Central European Lab"
          }
        ],
        "category": [
          {
            "coding": [
              {
                "system": "http://terminology.hl7.org/CodeSystem/observation-category",
                "code": "laboratory"
              }
            ]
          }
        ],
        "code": {
          "coding": [
            {
              "code": "5811-5",
              "system": "http://loinc.org",
              "display": "Specific gravity of Urine by Test strip"
            }
          ],
          "text": "Specific gravity of Urine by Test strip"
        },
        "valueQuantity": {
          "system": "http://unitsofmeasure.org",
          "value": 1,
          "unit": "{nominal}",
          "code": "{nominal}"
        },
        "referenceRange": [
          {
            "low": {
              "value": 1.005,
              "code": "g/mL",
              "system": "http://unitsofmeasure.org"
            }
          },
          {
            "high": {
              "value": 1.03,
              "code": "g/mL",
              "system": "http://unitsofmeasure.org"
            }
          }
        ],
        "interpretation": [
          {
            "coding": [
              {
                "code": "L",
                "system": "http://terminology.hl7.org/CodeSystem/v3-ObservationInterpretation",
                "display": "Low"
              }
            ]
          }
        ],
        "text": {
          "status": "generated",
          "div": "<div xmlns=\"http://www.w3.org/1999/xhtml\"><table class=\"hl7__eu__lab__report\"><tr><th>Test</th><th>29-Mar-2022</th><th>Reference&#xA0;Range</th><th>Unit</th></tr><tr><td>Specific gravity of Urine by Test strip</td><td>1.0</td><td>1.005 - 1.03</td><td>L</td><td>{nominal}</td></tr></table></div>"
        },
        "status": "final",
        "subject": {
          "reference": "urn:uuid:1e4670e8-1d34-40bc-8cf2-272b2371fb21",
          "display": "Hortense Gallet"
        },
        "effectiveDateTime": "2022-03-29T20:16:45Z",
        "specimen": {
          "reference": "urn:uuid:882acdb5-e8ac-44ae-b661-fd882fa9d631"
        }
      }
    },
    {
      "fullUrl": "urn:uuid:c38902a4-834b-45ab-beb2-93773d29e296",
      "resource": {
        "resourceType": "Observation",
        "id": "c38902a4-834b-45ab-beb2-93773d29e296",
        "meta": {
          "profile": [
            "http://hl7.eu/fhir/laboratory/StructureDefinition/Observation-resultslab-eu-lab"
          ]
        },
        "performer": [
          {
            "display": "The Central European Lab"
          }
        ],
        "category": [
          {
            "coding": [
              {
                "system": "http://terminology.hl7.org/CodeSystem/observation-category",
                "code": "laboratory"
              }
            ]
          }
        ],
        "code": {
          "coding": [
            {
              "code": "5803-2",
              "system": "http://loinc.org",
              "display": "pH of Urine by Test strip"
            }
          ],
          "text": "pH of Urine by Test strip"
        },
        "valueQuantity": {
          "system": "http://unitsofmeasure.org",
          "value": 6.1,
          "unit": "pH",
          "code": "pH"
        },
        "referenceRange": [
          {
            "low": {
              "value": 4.5,
              "code": "pH",
              "system": "http://unitsofmeasure.org"
            }
          },
          {
            "high": {
              "value": 7.5,
              "code": "pH",
              "system": "http://unitsofmeasure.org"
            }
          }
        ],
        "text": {
          "status": "generated",
          "div": "<div xmlns=\"http://www.w3.org/1999/xhtml\"><table class=\"hl7__eu__lab__report\"><tr><th>Test</th><th>29-Mar-2022</th><th>Reference&#xA0;Range</th><th>Unit</th></tr><tr><td>pH of Urine by Test strip</td><td>6.1</td><td>4.5 - 7.5</td><td></td><td>pH</td></tr></table></div>"
        },
        "status": "final",
        "subject": {
          "reference": "urn:uuid:1e4670e8-1d34-40bc-8cf2-272b2371fb21",
          "display": "Hortense Gallet"
        },
        "effectiveDateTime": "2022-03-29T20:16:45Z",
        "specimen": {
          "reference": "urn:uuid:882acdb5-e8ac-44ae-b661-fd882fa9d631"
        }
      }
    },
    {
      "fullUrl": "urn:uuid:bc4c3d5b-890b-472c-b441-d401bd527c9d",
      "resource": {
        "resourceType": "Observation",
        "id": "bc4c3d5b-890b-472c-b441-d401bd527c9d",
        "meta": {
          "profile": [
            "http://hl7.eu/fhir/laboratory/StructureDefinition/Observation-resultslab-eu-lab"
          ]
        },
        "performer": [
          {
            "display": "The Central European Lab"
          }
        ],
        "category": [
          {
            "coding": [
              {
                "system": "http://terminology.hl7.org/CodeSystem/observation-category",
                "code": "laboratory"
              }
            ]
          }
        ],
        "code": {
          "coding": [
            {
              "code": "5804-0",
              "system": "http://loinc.org",
              "display": "Protein [Mass/volume] in Urine by Test strip"
            }
          ],
          "text": "Protein [Mass/volume] in Urine by Test strip"
        },
        "valueQuantity": {
          "system": "http://unitsofmeasure.org",
          "value": 123.5,
          "unit": "mg/dL",
          "code": "mg/dL"
        },
        "referenceRange": [
          {
            "low": {
              "value": 0,
              "code": "mg/dL",
              "system": "http://unitsofmeasure.org"
            }
          },
          {
            "high": {
              "value": 15,
              "code": "mg/dL",
              "system": "http://unitsofmeasure.org"
            }
          }
        ],
        "interpretation": [
          {
            "coding": [
              {
                "code": "H",
                "system": "http://terminology.hl7.org/CodeSystem/v3-ObservationInterpretation",
                "display": "High"
              }
            ]
          }
        ],
        "text": {
          "status": "generated",
          "div": "<div xmlns=\"http://www.w3.org/1999/xhtml\"><table class=\"hl7__eu__lab__report\"><tr><th>Test</th><th>29-Mar-2022</th><th>Reference&#xA0;Range</th><th>Unit</th></tr><tr><td>Protein [Mass/volume] in Urine by Test strip</td><td>123.5</td><td>0 - 15</td><td>H</td><td>mg/dL</td></tr></table></div>"
        },
        "status": "final",
        "subject": {
          "reference": "urn:uuid:1e4670e8-1d34-40bc-8cf2-272b2371fb21",
          "display": "Hortense Gallet"
        },
        "effectiveDateTime": "2022-03-29T20:16:45Z",
        "specimen": {
          "reference": "urn:uuid:882acdb5-e8ac-44ae-b661-fd882fa9d631"
        }
      }
    },
    {
      "fullUrl": "urn:uuid:1ae616a9-c3eb-44d1-93b6-ef37d5869a6b",
      "resource": {
        "resourceType": "Observation",
        "id": "1ae616a9-c3eb-44d1-93b6-ef37d5869a6b",
        "meta": {
          "profile": [
            "http://hl7.eu/fhir/laboratory/StructureDefinition/Observation-resultslab-eu-lab"
          ]
        },
        "performer": [
          {
            "display": "The Central European Lab"
          }
        ],
        "category": [
          {
            "coding": [
              {
                "system": "http://terminology.hl7.org/CodeSystem/observation-category",
                "code": "laboratory"
              }
            ]
          }
        ],
        "code": {
          "coding": [
            {
              "code": "20454-5",
              "system": "http://loinc.org",
              "display": "Protein [Presence] in Urine by Test strip"
            }
          ],
          "text": "Protein [Presence] in Urine by Test strip"
        },
        "text": {
          "status": "generated",
          "div": "<div xmlns=\"http://www.w3.org/1999/xhtml\"><table class=\"hl7__eu__lab__report\"><tr><th>Test</th><th>29-Mar-2022</th><th>Reference&#xA0;Range</th><th>Unit</th></tr><tr><td>Protein [Presence] in Urine by Test strip</td></tr></table></div>"
        },
        "status": "final",
        "subject": {
          "reference": "urn:uuid:1e4670e8-1d34-40bc-8cf2-272b2371fb21",
          "display": "Hortense Gallet"
        },
        "effectiveDateTime": "2022-03-29T20:16:45Z",
        "specimen": {
          "reference": "urn:uuid:882acdb5-e8ac-44ae-b661-fd882fa9d631"
        }
      }
    },
    {
      "fullUrl": "urn:uuid:5eaabcb6-e46f-4248-9b7b-7de222be1dba",
      "resource": {
        "resourceType": "Observation",
        "id": "5eaabcb6-e46f-4248-9b7b-7de222be1dba",
        "meta": {
          "profile": [
            "http://hl7.eu/fhir/laboratory/StructureDefinition/Observation-resultslab-eu-lab"
          ]
        },
        "performer": [
          {
            "display": "The Central European Lab"
          }
        ],
        "category": [
          {
            "coding": [
              {
                "system": "http://terminology.hl7.org/CodeSystem/observation-category",
                "code": "laboratory"
              }
            ]
          }
        ],
        "code": {
          "coding": [
            {
              "code": "5802-4",
              "system": "http://loinc.org",
              "display": "Nitrite [Presence] in Urine by Test strip"
            }
          ],
          "text": "Nitrite [Presence] in Urine by Test strip"
        },
        "text": {
          "status": "generated",
          "div": "<div xmlns=\"http://www.w3.org/1999/xhtml\"><table class=\"hl7__eu__lab__report\"><tr><th>Test</th><th>29-Mar-2022</th><th>Reference&#xA0;Range</th><th>Unit</th></tr><tr><td>Nitrite [Presence] in Urine by Test strip</td></tr></table></div>"
        },
        "status": "final",
        "subject": {
          "reference": "urn:uuid:1e4670e8-1d34-40bc-8cf2-272b2371fb21",
          "display": "Hortense Gallet"
        },
        "effectiveDateTime": "2022-03-29T20:16:45Z",
        "specimen": {
          "reference": "urn:uuid:882acdb5-e8ac-44ae-b661-fd882fa9d631"
        }
      }
    },
    {
      "fullUrl": "urn:uuid:8f7035f8-29fa-4f3a-bc76-f25d79a95495",
      "resource": {
        "resourceType": "Observation",
        "id": "8f7035f8-29fa-4f3a-bc76-f25d79a95495",
        "meta": {
          "profile": [
            "http://hl7.eu/fhir/laboratory/StructureDefinition/Observation-resultslab-eu-lab"
          ]
        },
        "performer": [
          {
            "display": "The Central European Lab"
          }
        ],
        "category": [
          {
            "coding": [
              {
                "system": "http://terminology.hl7.org/CodeSystem/observation-category",
                "code": "laboratory"
              }
            ]
          }
        ],
        "code": {
          "coding": [
            {
              "code": "5794-3",
              "system": "http://loinc.org",
              "display": "Hemoglobin [Presence] in Urine by Test strip"
            }
          ],
          "text": "Hemoglobin [Presence] in Urine by Test strip"
        },
        "text": {
          "status": "generated",
          "div": "<div xmlns=\"http://www.w3.org/1999/xhtml\"><table class=\"hl7__eu__lab__report\"><tr><th>Test</th><th>29-Mar-2022</th><th>Reference&#xA0;Range</th><th>Unit</th></tr><tr><td>Hemoglobin [Presence] in Urine by Test strip</td></tr></table></div>"
        },
        "status": "final",
        "subject": {
          "reference": "urn:uuid:1e4670e8-1d34-40bc-8cf2-272b2371fb21",
          "display": "Hortense Gallet"
        },
        "effectiveDateTime": "2022-03-29T20:16:45Z",
        "specimen": {
          "reference": "urn:uuid:882acdb5-e8ac-44ae-b661-fd882fa9d631"
        }
      }
    },
    {
      "fullUrl": "urn:uuid:7829ac62-2105-4236-811b-1cefb5b40f89",
      "resource": {
        "resourceType": "Observation",
        "id": "7829ac62-2105-4236-811b-1cefb5b40f89",
        "meta": {
          "profile": [
            "http://hl7.eu/fhir/laboratory/StructureDefinition/Observation-resultslab-eu-lab"
          ]
        },
        "performer": [
          {
            "display": "The Central European Lab"
          }
        ],
        "category": [
          {
            "coding": [
              {
                "system": "http://terminology.hl7.org/CodeSystem/observation-category",
                "code": "laboratory"
              }
            ]
          }
        ],
        "code": {
          "coding": [
            {
              "code": "5799-2",
              "system": "http://loinc.org",
              "display": "Leukocyte esterase [Presence] in Urine by Test strip"
            }
          ],
          "text": "Leukocyte esterase [Presence] in Urine by Test strip"
        },
        "text": {
          "status": "generated",
          "div": "<div xmlns=\"http://www.w3.org/1999/xhtml\"><table class=\"hl7__eu__lab__report\"><tr><th>Test</th><th>29-Mar-2022</th><th>Reference&#xA0;Range</th><th>Unit</th></tr><tr><td>Leukocyte esterase [Presence] in Urine by Test strip</td></tr></table></div>"
        },
        "status": "final",
        "subject": {
          "reference": "urn:uuid:1e4670e8-1d34-40bc-8cf2-272b2371fb21",
          "display": "Hortense Gallet"
        },
        "effectiveDateTime": "2022-03-29T20:16:45Z",
        "specimen": {
          "reference": "urn:uuid:882acdb5-e8ac-44ae-b661-fd882fa9d631"
        }
      }
    },
    {
      "fullUrl": "urn:uuid:0f3f16c5-003d-4232-8948-b3a7a5d98816",
      "resource": {
        "resourceType": "Device",
        "id": "0f3f16c5-003d-4232-8948-b3a7a5d98816",
        "deviceName": [
          {
            "name": "SYNDERAI Synthetic Generator",
            "type": "manufacturer-name"
          }
        ],
        "version": [
          {
            "value": "5.0"
          }
        ],
        "text": {
          "status": "generated",
          "div": "<div xmlns=\"http://www.w3.org/1999/xhtml\">SYNDERAI Synthetic Generator v5.0</div>"
        },
        "status": "active\"",
        "distinctIdentifier": "synderai-generator-50",
        "manufacturer": "SYNDERAI Project"
      }
    },
    {
      "fullUrl": "urn:uuid:5ba55c13-e189-442a-b38f-91ac3b4e0cd7",
      "resource": {
        "resourceType": "Provenance",
        "id": "5ba55c13-e189-442a-b38f-91ac3b4e0cd7",
        "target": [
          {
            "reference": "Patient/1e4670e8-1d34-40bc-8cf2-272b2371fb21"
          },
          {
            "reference": "Bundle/e72e0a64-6ce6-4f70-bdba-e5209370a412"
          },
          {
            "reference": "Composition/02fa47bb-0308-4ddc-a908-1813431ebe83"
          },
          {
            "reference": "PractitionerRole/d4aadc1d-14ac-4715-b50f-cbdc0c786928"
          },
          {
            "reference": "Practitioner/d8dc87df-cc7a-4afa-9ceb-f0bb22677036"
          },
          {
            "reference": "PractitionerRole/d34b665f-f3ff-4224-96bc-1c11788051d5"
          },
          {
            "reference": "Organization/9e04c9ae-44b7-489e-841c-dec2b4558e2a"
          }
        ],
        "activity": {
          "text": "Synthetic Example Data Generation"
        },
        "policy": [
          "https://synderai.net/synderai-synthetic-data-policy"
        ],
        "agent": [
          {
            "type": {
              "text": "author"
            },
            "who": {
              "reference": "Device/0f3f16c5-003d-4232-8948-b3a7a5d98816"
            }
          }
        ],
        "reason": [
          {
            "text": "Interoperability Testing and Training (non-clinical use)"
          }
        ],
        "text": {
          "status": "generated",
          "div": "<div xmlns=\"http://www.w3.org/1999/xhtml\">Provenance for SYNDERAI Synthetic Example Data Resource</div>"
        },
        "recorded": "2022-03-29T22:16:45Z"
      }
    },
    {
      "fullUrl": "urn:uuid:d4aadc1d-14ac-4715-b50f-cbdc0c786928",
      "resource": {
        "resourceType": "PractitionerRole",
        "id": "d4aadc1d-14ac-4715-b50f-cbdc0c786928",
        "meta": {
          "profile": [
            "http://hl7.eu/fhir/base/StructureDefinition/practitionerRole-eu"
          ]
        },
        "text": {
          "status": "generated",
          "div": "<div xmlns=\"http://www.w3.org/1999/xhtml\">Laboratory Role Id: d4aadc1d-14ac-4715-b50f-cbdc0c786928</div>"
        },
        "practitioner": {
          "reference": "urn:uuid:d8dc87df-cc7a-4afa-9ceb-f0bb22677036"
        }
      }
    },
    {
      "fullUrl": "urn:uuid:d8dc87df-cc7a-4afa-9ceb-f0bb22677036",
      "resource": {
        "resourceType": "Practitioner",
        "id": "d8dc87df-cc7a-4afa-9ceb-f0bb22677036",
        "meta": {
          "profile": [
            "http://hl7.eu/fhir/base/StructureDefinition/practitioner-eu"
          ]
        },
        "identifier": [
          {
            "assigner": {
              "display": "HL7 Europe"
            },
            "system": "urn:oid:2.16.840.1.113883.2.51.999",
            "value": "1646952c-f9a2-44e3-a3a2-e62adfbb4ddb"
          }
        ],
        "name": [
          {
            "prefix": [
              "dr"
            ],
            "given": [
              "Ex"
            ],
            "family": "Ample"
          }
        ],
        "address": [
          {
            "line": [
              "Laboratoire Central Européenne",
              "Boulevard du Jardin Botanique 32"
            ],
            "postalCode": "1000",
            "city": "Brussels",
            "country": "Belgium"
          }
        ],
        "text": {
          "status": "generated",
          "div": "<div xmlns=\"http://www.w3.org/1999/xhtml\">Laboratory: Laboratoire Central Européenne, 1000 Brussels, Belgium</div>"
        }
      }
    }
  ],
  "type": "document",
  "timestamp": "2022-03-29T22:16:45Z"
}
