{
  "resourceType": "Bundle",
  "id": "e03dc25e-e51d-4260-b228-ab2cee5d32e1",
  "meta": {
    "profile": [
      "http://hl7.eu/fhir/laboratory/StructureDefinition/Bundle-eu-lab"
    ]
  },
  "identifier": {
    "assigner": {
      "display": "HL7 Europe"
    },
    "system": "urn:oid:2.16.840.1.113883.2.51.999",
    "value": "d9148e01-b3fe-47a2-8a19-1fa4238679ac"
  },
  "entry": [
    {
      "fullUrl": "urn:uuid:c0569a26-7352-4892-8c39-9cb88637b26a",
      "resource": {
        "resourceType": "Composition",
        "id": "c0569a26-7352-4892-8c39-9cb88637b26a",
        "meta": {
          "profile": [
            "http://hl7.eu/fhir/laboratory/StructureDefinition/Composition-eu-lab"
          ]
        },
        "identifier": {
          "assigner": {
            "display": "HL7 Europe"
          },
          "system": "urn:oid:2.16.840.1.113883.2.51.999",
          "value": "c2088ab9-6461-46f4-871a-bdd16ac870bb"
        },
        "author": [
          {
            "reference": "urn:uuid:a1992d77-001c-4366-aa46-8485e2157827"
          }
        ],
        "category": [
          {
            "coding": [
              {
                "code": "26436-6",
                "system": "http://loinc.org",
                "display": "Laboratory studies (set)"
              }
            ]
          }
        ],
        "type": {
          "coding": [
            {
              "code": "11502-2",
              "system": "http://loinc.org",
              "display": "Laboratory report"
            }
          ],
          "text": "Laboratory Report"
        },
        "section": [
          {
            "code": {
              "coding": [
                {
                  "code": "26436-6",
                  "system": "http://loinc.org",
                  "display": "Laboratory studies (set)"
                }
              ],
              "text": "Laboratory studies"
            },
            "section": [
              {
                "code": {
                  "coding": [
                    {
                      "code": "$18719-5",
                      "system": "http://loinc.org",
                      "display": "Chemistry studies (set)"
                    }
                  ],
                  "text": "Chemistry"
                },
                "entry": [
                  {
                    "reference": "urn:uuid:d01939e3-2a35-46da-b152-5b950eeffdd9"
                  },
                  {
                    "reference": "urn:uuid:4b4569ab-367c-43e0-9290-6a8731b03a4e"
                  },
                  {
                    "reference": "urn:uuid:6e55f287-0cf3-42be-8a72-473deb4c1f6d"
                  },
                  {
                    "reference": "urn:uuid:e49eeb00-7f3e-4732-a8a1-72026c3c0102"
                  },
                  {
                    "reference": "urn:uuid:9af8430b-7c54-4f01-9ebe-10f9d8222377"
                  },
                  {
                    "reference": "urn:uuid:8e3b84b2-c2a7-4f09-83c2-2f5ae1d513c4"
                  },
                  {
                    "reference": "urn:uuid:222f3788-867c-40cd-a2c7-a2209c1144b8"
                  },
                  {
                    "reference": "urn:uuid:b0feda0d-3360-4f79-ae26-be56b3011fb5"
                  },
                  {
                    "reference": "urn:uuid:42a8eeb6-afed-4be8-8962-4c068cd124f7"
                  },
                  {
                    "reference": "urn:uuid:b0103590-d68b-4dd8-a761-2612b0cf2d9c"
                  },
                  {
                    "reference": "urn:uuid:b592d1a6-2832-4d45-a0af-78c05ed13ef1"
                  },
                  {
                    "reference": "urn:uuid:f673b6b2-7240-44fd-afe9-090e8886450d"
                  },
                  {
                    "reference": "urn:uuid:070eeb2d-7fa7-4310-b409-002c7a54917f"
                  }
                ],
                "text": {
                  "status": "generated",
                  "div": "<div xmlns=\"http://www.w3.org/1999/xhtml\"><h3>Chemistry</h3><table class=\"hl7__eu__lab__report\"><thead><tr><th>Test</th><th>30-JAN-2017</th><th>Reference&#xA0;Range</th><th>Unit</th></tr></thead><tbody><tr><td>Hemoglobin A1c/Hemoglobin.total in Blood</td><td><strong>5.9 H</strong></td><td>4.8 - 5.7</td><td>%</td></tr><tr><td>Glucose [Mass/volume] in Blood</td><td>74.7</td><td>70 - 99</td><td>mg/dL</td></tr><tr><td>Urea nitrogen [Mass/volume] in Blood</td><td>10.6</td><td>7 - 20</td><td>mg/dL</td></tr><tr><td>Creatinine [Mass/volume] in Blood</td><td>1.0</td><td>0.6 - 1.1</td><td>mg/dL</td></tr><tr><td>Calcium [Mass/volume] in Blood</td><td>9.6</td><td>8.5 - 10.5</td><td>mg/dL</td></tr><tr><td>Sodium [Moles/volume] in Blood</td><td>137.0</td><td>135 - 145</td><td>mmol/L</td></tr><tr><td>Potassium [Moles/volume] in Blood</td><td>4.0</td><td>3.5 - 5.3</td><td>mmol/L</td></tr><tr><td>Chloride [Moles/volume] in Blood</td><td>105.0</td><td>98 - 114</td><td>mmol/L</td></tr><tr><td>Carbon dioxide, total [Moles/volume] in Blood</td><td><strong>20.8 L</strong></td><td>22 - 29</td><td>mmol/L</td></tr><tr><td>Cholesterol [Mass/volume] in Serum or Plasma</td><td>194.9</td><td>125 - 200</td><td>mg/dL</td></tr><tr><td>Triglyceride [Mass/volume] in Serum or Plasma</td><td>149.0</td><td>35 - 150</td><td>mg/dL</td></tr><tr><td>Cholesterol in LDL [Mass/volume] in Serum or Plasma by Direct assay</td><td>113.0</td><td>0 - 130</td><td>mg/dL</td></tr><tr><td>Cholesterol in HDL [Mass/volume] in Serum or Plasma</td><td>52.2</td><td>40 - 60</td><td>mg/dL</td></tr></tbody></table></div>"
                },
                "title": "Chemistry"
              }
            ],
            "title": "Laboratory Report"
          },
          {
            "text": {
              "status": "generated",
              "div": "<div xmlns=\"http://www.w3.org/1999/xhtml\"><h3>Annotation</h3><table class=\"hl7__eu__lab__report\"><tr><th>Conclusion and Recommendations based on this report and previous findings known to us</th></tr><tr><td>The patient shows mildly elevated HbA1c, suggesting prediabetes or impaired glucose tolerance, while fasting glucose is normal. All renal, electrolyte, and lipid parameters are within normal limits except for a slightly low total CO₂, which may indicate mild metabolic acidosis or compensation. No acute abnormalities detected; recommend monitoring glycemic control and considering further evaluation of acid-base status if clinically indicated.</td></tr></table></div>"
            },
            "code": {
              "coding": [
                {
                  "system": "http://loinc.org",
                  "code": "48767-8",
                  "display": "Annotation comment"
                }
              ]
            },
            "title": "Annotation comment"
          }
        ],
        "status": "final",
        "subject": {
          "reference": "urn:uuid:213fe76a-46c4-41de-b5f1-572f44a7c510",
          "display": "Pauline Grenier"
        },
        "date": "2017-01-30T12:54:46Z",
        "title": "Laboratory Report",
        "confidentiality": "N"
      }
    },
    {
      "fullUrl": "urn:uuid:47479469-8f74-4d91-9fbb-87debb473417",
      "resource": {
        "resourceType": "DiagnosticReport",
        "id": "47479469-8f74-4d91-9fbb-87debb473417",
        "meta": {
          "profile": [
            "http://hl7.eu/fhir/laboratory/StructureDefinition/DiagnosticReport-eu-lab"
          ]
        },
        "identifier": [
          {
            "assigner": {
              "display": "HL7 Europe"
            },
            "system": "urn:oid:2.16.840.1.113883.2.51.999",
            "value": "bb781d59-c09a-44f6-99b7-189ea0b00bc2"
          }
        ],
        "extension": [
          {
            "url": "http://hl7.org/fhir/5.0/StructureDefinition/extension-DiagnosticReport.composition",
            "valueReference": {
              "reference": "urn:uuid:c2088ab9-6461-46f4-871a-bdd16ac870bb"
            }
          }
        ],
        "category": [
          {
            "coding": [
              {
                "code": "26436-6",
                "system": "http://loinc.org",
                "display": "Laboratory studies (set)"
              }
            ]
          }
        ],
        "specimen": [
          {
            "reference": "urn:uuid:95caeb46-46e9-4b67-a0c1-843f5f7b230b"
          },
          {
            "reference": "urn:uuid:db22e5d0-6e30-4f66-a2d2-72745eb30f25"
          }
        ],
        "result": [
          {
            "reference": "urn:uuid:d01939e3-2a35-46da-b152-5b950eeffdd9"
          },
          {
            "reference": "urn:uuid:4b4569ab-367c-43e0-9290-6a8731b03a4e"
          },
          {
            "reference": "urn:uuid:6e55f287-0cf3-42be-8a72-473deb4c1f6d"
          },
          {
            "reference": "urn:uuid:e49eeb00-7f3e-4732-a8a1-72026c3c0102"
          },
          {
            "reference": "urn:uuid:9af8430b-7c54-4f01-9ebe-10f9d8222377"
          },
          {
            "reference": "urn:uuid:8e3b84b2-c2a7-4f09-83c2-2f5ae1d513c4"
          },
          {
            "reference": "urn:uuid:222f3788-867c-40cd-a2c7-a2209c1144b8"
          },
          {
            "reference": "urn:uuid:b0feda0d-3360-4f79-ae26-be56b3011fb5"
          },
          {
            "reference": "urn:uuid:42a8eeb6-afed-4be8-8962-4c068cd124f7"
          },
          {
            "reference": "urn:uuid:b0103590-d68b-4dd8-a761-2612b0cf2d9c"
          },
          {
            "reference": "urn:uuid:b592d1a6-2832-4d45-a0af-78c05ed13ef1"
          },
          {
            "reference": "urn:uuid:f673b6b2-7240-44fd-afe9-090e8886450d"
          },
          {
            "reference": "urn:uuid:070eeb2d-7fa7-4310-b409-002c7a54917f"
          }
        ],
        "status": "registered",
        "code": {
          "coding": [
            {
              "code": "11502-2",
              "system": "http://loinc.org",
              "display": "Laboratory report"
            }
          ]
        },
        "subject": {
          "reference": "urn:uuid:213fe76a-46c4-41de-b5f1-572f44a7c510",
          "display": "Pauline Grenier"
        }
      }
    },
    {
      "fullUrl": "urn:uuid:213fe76a-46c4-41de-b5f1-572f44a7c510",
      "resource": {
        "resourceType": "Patient",
        "id": "213fe76a-46c4-41de-b5f1-572f44a7c510",
        "meta": {
          "security": [
            {
              "system": "http://terminology.hl7.org/CodeSystem/v3-ActReason",
              "code": "HTEST"
            },
            {
              "system": "http://terminology.hl7.org/CodeSystem/v3-ActReason",
              "code": "TRAIN"
            }
          ],
          "tag": [
            {
              "system": "https://synderai.net/fhir/CodeSystem/tags",
              "code": "synthetic",
              "display": "SYNDERAI Synthetic data"
            }
          ],
          "profile": [
            "http://hl7.eu/fhir/base/StructureDefinition/patient-eu-core"
          ]
        },
        "identifier": [
          {
            "type": {
              "coding": [
                {
                  "code": "PT",
                  "system": "http://terminology.hl7.org/CodeSystem/v2-0203"
                }
              ]
            },
            "system": "http://ec.europa.eu/identifier/eci",
            "value": "6776-872657-1"
          },
          {
            "type": {
              "coding": [
                {
                  "code": "MR",
                  "system": "http://terminology.hl7.org/CodeSystem/v2-0203"
                }
              ]
            },
            "system": "http://local.setting.eu/identifier",
            "value": "a90ff566-3092-3af0-91f2-c0514ba66d35"
          }
        ],
        "name": [
          {
            "family": "Grenier"
          },
          {
            "given": [
              "Pauline"
            ]
          },
          {
            "text": "Pauline Grenier"
          }
        ],
        "address": [
          {
            "line": [
              "114, avenue Georges"
            ],
            "use": "home",
            "type": "physical",
            "postalCode": "71110",
            "city": "Caron",
            "country": "France"
          }
        ],
        "telecom": [
          {
            "system": "phone",
            "value": "+33 4 26 27 51 56"
          }
        ],
        "extension": [
          {
            "url": "http://hl7.org/fhir/StructureDefinition/patient-nationality",
            "valueCodeableConcept": {
              "coding": [
                {
                  "code": "FR",
                  "system": "http://hl7.org/fhir/ValueSet/country"
                }
              ]
            }
          }
        ],
        "text": {
          "status": "generated",
          "div": "<div xmlns=\"http://www.w3.org/1999/xhtml\"><table class=\"hl7__ips\"><tr><td>Pauline Grenier</td><td>female</td><td>03-May-1971</td></tr></table></div>"
        },
        "gender": "female",
        "birthDate": "1971-05-03"
      }
    },
    {
      "fullUrl": "urn:uuid:3fec0481-c373-4098-8132-e24b3dfe7ad3",
      "resource": {
        "resourceType": "ServiceRequest",
        "id": "3fec0481-c373-4098-8132-e24b3dfe7ad3",
        "meta": {
          "profile": [
            "http://hl7.eu/fhir/laboratory/StructureDefinition/ServiceRequest-eu-lab"
          ]
        },
        "identifier": [
          {
            "system": "http://example.org",
            "value": "a6454aee-2c8b-4d5c-9a0e-d2b12c4d670d"
          }
        ],
        "specimen": [
          {
            "reference": "urn:uuid:95caeb46-46e9-4b67-a0c1-843f5f7b230b"
          },
          {
            "reference": "urn:uuid:db22e5d0-6e30-4f66-a2d2-72745eb30f25"
          }
        ],
        "reasonCode": [
          {
            "coding": [
              {
                "code": "59621000",
                "system": "http://snomed.info/sct",
                "display": "Essential hypertension"
              }
            ]
          },
          {
            "coding": [
              {
                "code": "237602007",
                "system": "http://snomed.info/sct",
                "display": "Metabolic syndrome X"
              }
            ]
          },
          {
            "coding": [
              {
                "code": "15777000",
                "system": "http://snomed.info/sct",
                "display": "Prediabetes"
              }
            ]
          }
        ],
        "status": "active",
        "intent": "order",
        "code": {
          "coding": [
            {
              "code": "108252007",
              "system": "http://snomed.info/sct",
              "display": "Laboratory procedure"
            }
          ]
        },
        "subject": {
          "reference": "urn:uuid:213fe76a-46c4-41de-b5f1-572f44a7c510",
          "display": "Pauline Grenier"
        },
        "requester": {
          "reference": "urn:uuid:04021628-3f1d-425e-898c-5df8c718476c"
        }
      }
    },
    {
      "fullUrl": "urn:uuid:04021628-3f1d-425e-898c-5df8c718476c",
      "resource": {
        "resourceType": "PractitionerRole",
        "id": "04021628-3f1d-425e-898c-5df8c718476c",
        "meta": {
          "profile": [
            "http://hl7.eu/fhir/base/StructureDefinition/practitionerRole-eu"
          ]
        },
        "text": {
          "status": "generated",
          "div": "<div xmlns=\"http://www.w3.org/1999/xhtml\">Provider Role Id: 04021628-3f1d-425e-898c-5df8c718476c</div>"
        },
        "organization": {
          "reference": "urn:uuid:a06573d6-da17-41fd-9daf-200543eb5a5e"
        }
      }
    },
    {
      "fullUrl": "urn:uuid:a06573d6-da17-41fd-9daf-200543eb5a5e",
      "resource": {
        "resourceType": "Organization",
        "id": "a06573d6-da17-41fd-9daf-200543eb5a5e",
        "meta": {
          "profile": [
            "http://hl7.eu/fhir/base/StructureDefinition/organization-eu"
          ]
        },
        "identifier": [
          {
            "assigner": {
              "display": "HL7 Europe"
            },
            "system": "urn:oid:2.16.840.1.113883.2.51.999",
            "value": "2ddf9e7f-e3b8-4ddd-b612-f9db301eafc8"
          }
        ],
        "address": [
          {
            "city": "Le Creusot",
            "postalCode": "71200",
            "country": "France"
          }
        ],
        "text": {
          "status": "generated",
          "div": "<div xmlns=\"http://www.w3.org/1999/xhtml\">Provider Organization: Hôpital du Creusot - Site Foch</div>"
        },
        "name": "Hôpital du Creusot - Site Foch"
      }
    },
    {
      "fullUrl": "urn:uuid:95caeb46-46e9-4b67-a0c1-843f5f7b230b",
      "resource": {
        "resourceType": "Specimen",
        "id": "95caeb46-46e9-4b67-a0c1-843f5f7b230b",
        "meta": {
          "profile": [
            "http://hl7.eu/fhir/laboratory/StructureDefinition/Specimen-eu-lab"
          ]
        },
        "collection": {
          "collectedDateTime": "2017-01-30"
        },
        "text": {
          "status": "generated",
          "div": "<div xmlns=\"http://www.w3.org/1999/xhtml\"><table class=\"hl7__eu__lab__report\"><tr><th>Specimen</th><th>Collection Date</th></tr><tr><td>Whole blood specimen (specimen)</td><td><span class=\"nb\">30-Jan-2017</span></td></tr></table></div>"
        },
        "type": {
          "coding": [
            {
              "code": "258580003",
              "system": "http://snomed.info/sct",
              "display": "Whole blood specimen (specimen)"
            }
          ]
        }
      }
    },
    {
      "fullUrl": "urn:uuid:db22e5d0-6e30-4f66-a2d2-72745eb30f25",
      "resource": {
        "resourceType": "Specimen",
        "id": "db22e5d0-6e30-4f66-a2d2-72745eb30f25",
        "meta": {
          "profile": [
            "http://hl7.eu/fhir/laboratory/StructureDefinition/Specimen-eu-lab"
          ]
        },
        "collection": {
          "collectedDateTime": "2017-01-30"
        },
        "text": {
          "status": "generated",
          "div": "<div xmlns=\"http://www.w3.org/1999/xhtml\"><table class=\"hl7__eu__lab__report\"><tr><th>Specimen</th><th>Collection Date</th></tr><tr><td>Acellular blood (serum or plasma) specimen</td><td><span class=\"nb\">30-Jan-2017</span></td></tr></table></div>"
        },
        "type": {
          "coding": [
            {
              "code": "122592007",
              "system": "http://snomed.info/sct",
              "display": "Acellular blood (serum or plasma) specimen"
            }
          ]
        }
      }
    },
    {
      "fullUrl": "urn:uuid:d01939e3-2a35-46da-b152-5b950eeffdd9",
      "resource": {
        "resourceType": "Observation",
        "id": "d01939e3-2a35-46da-b152-5b950eeffdd9",
        "meta": {
          "profile": [
            "http://hl7.eu/fhir/laboratory/StructureDefinition/Observation-resultslab-eu-lab"
          ]
        },
        "performer": [
          {
            "display": "The Central European Lab"
          }
        ],
        "category": [
          {
            "coding": [
              {
                "system": "http://terminology.hl7.org/CodeSystem/observation-category",
                "code": "laboratory"
              }
            ]
          }
        ],
        "code": {
          "coding": [
            {
              "code": "4548-4",
              "system": "http://loinc.org",
              "display": "Hemoglobin A1c/Hemoglobin.total in Blood"
            }
          ],
          "text": "Hemoglobin A1c/Hemoglobin.total in Blood"
        },
        "valueQuantity": {
          "system": "http://unitsofmeasure.org",
          "value": 5.9,
          "unit": "%",
          "code": "%"
        },
        "referenceRange": [
          {
            "low": {
              "value": 4.8,
              "code": "%",
              "system": "http://unitsofmeasure.org"
            }
          },
          {
            "high": {
              "value": 5.7,
              "code": "%",
              "system": "http://unitsofmeasure.org"
            }
          }
        ],
        "interpretation": [
          {
            "coding": [
              {
                "code": "H",
                "system": "http://terminology.hl7.org/CodeSystem/v3-ObservationInterpretation",
                "display": "High"
              }
            ]
          }
        ],
        "text": {
          "status": "generated",
          "div": "<div xmlns=\"http://www.w3.org/1999/xhtml\"><table class=\"hl7__eu__lab__report\"><tr><th>Test</th><th>30-Jan-2017</th><th>Reference&#xA0;Range</th><th>Unit</th></tr><tr><td>Hemoglobin A1c/Hemoglobin.total in Blood</td><td>5.9</td><td>4.8 - 5.7</td><td>H</td><td>%</td></tr></table></div>"
        },
        "status": "final",
        "subject": {
          "reference": "urn:uuid:213fe76a-46c4-41de-b5f1-572f44a7c510",
          "display": "Pauline Grenier"
        },
        "effectiveDateTime": "2017-01-30T11:54:46Z",
        "specimen": {
          "reference": "urn:uuid:95caeb46-46e9-4b67-a0c1-843f5f7b230b"
        }
      }
    },
    {
      "fullUrl": "urn:uuid:4b4569ab-367c-43e0-9290-6a8731b03a4e",
      "resource": {
        "resourceType": "Observation",
        "id": "4b4569ab-367c-43e0-9290-6a8731b03a4e",
        "meta": {
          "profile": [
            "http://hl7.eu/fhir/laboratory/StructureDefinition/Observation-resultslab-eu-lab"
          ]
        },
        "performer": [
          {
            "display": "The Central European Lab"
          }
        ],
        "category": [
          {
            "coding": [
              {
                "system": "http://terminology.hl7.org/CodeSystem/observation-category",
                "code": "laboratory"
              }
            ]
          }
        ],
        "code": {
          "coding": [
            {
              "code": "2339-0",
              "system": "http://loinc.org",
              "display": "Glucose [Mass/volume] in Blood"
            }
          ],
          "text": "Glucose [Mass/volume] in Blood"
        },
        "valueQuantity": {
          "system": "http://unitsofmeasure.org",
          "value": 74.7,
          "unit": "mg/dL",
          "code": "mg/dL"
        },
        "referenceRange": [
          {
            "low": {
              "value": 70,
              "code": "mg/dL",
              "system": "http://unitsofmeasure.org"
            }
          },
          {
            "high": {
              "value": 99,
              "code": "mg/dL",
              "system": "http://unitsofmeasure.org"
            }
          }
        ],
        "text": {
          "status": "generated",
          "div": "<div xmlns=\"http://www.w3.org/1999/xhtml\"><table class=\"hl7__eu__lab__report\"><tr><th>Test</th><th>30-Jan-2017</th><th>Reference&#xA0;Range</th><th>Unit</th></tr><tr><td>Glucose [Mass/volume] in Blood</td><td>74.7</td><td>70 - 99</td><td></td><td>mg/dL</td></tr></table></div>"
        },
        "status": "final",
        "subject": {
          "reference": "urn:uuid:213fe76a-46c4-41de-b5f1-572f44a7c510",
          "display": "Pauline Grenier"
        },
        "effectiveDateTime": "2017-01-30T11:54:46Z",
        "specimen": {
          "reference": "urn:uuid:95caeb46-46e9-4b67-a0c1-843f5f7b230b"
        }
      }
    },
    {
      "fullUrl": "urn:uuid:6e55f287-0cf3-42be-8a72-473deb4c1f6d",
      "resource": {
        "resourceType": "Observation",
        "id": "6e55f287-0cf3-42be-8a72-473deb4c1f6d",
        "meta": {
          "profile": [
            "http://hl7.eu/fhir/laboratory/StructureDefinition/Observation-resultslab-eu-lab"
          ]
        },
        "performer": [
          {
            "display": "The Central European Lab"
          }
        ],
        "category": [
          {
            "coding": [
              {
                "system": "http://terminology.hl7.org/CodeSystem/observation-category",
                "code": "laboratory"
              }
            ]
          }
        ],
        "code": {
          "coding": [
            {
              "code": "6299-2",
              "system": "http://loinc.org",
              "display": "Urea nitrogen [Mass/volume] in Blood"
            }
          ],
          "text": "Urea nitrogen [Mass/volume] in Blood"
        },
        "valueQuantity": {
          "system": "http://unitsofmeasure.org",
          "value": 10.6,
          "unit": "mg/dL",
          "code": "mg/dL"
        },
        "referenceRange": [
          {
            "low": {
              "value": 7,
              "code": "mg/dL",
              "system": "http://unitsofmeasure.org"
            }
          },
          {
            "high": {
              "value": 20,
              "code": "mg/dL",
              "system": "http://unitsofmeasure.org"
            }
          }
        ],
        "text": {
          "status": "generated",
          "div": "<div xmlns=\"http://www.w3.org/1999/xhtml\"><table class=\"hl7__eu__lab__report\"><tr><th>Test</th><th>30-Jan-2017</th><th>Reference&#xA0;Range</th><th>Unit</th></tr><tr><td>Urea nitrogen [Mass/volume] in Blood</td><td>10.6</td><td>7 - 20</td><td></td><td>mg/dL</td></tr></table></div>"
        },
        "status": "final",
        "subject": {
          "reference": "urn:uuid:213fe76a-46c4-41de-b5f1-572f44a7c510",
          "display": "Pauline Grenier"
        },
        "effectiveDateTime": "2017-01-30T11:54:46Z",
        "specimen": {
          "reference": "urn:uuid:95caeb46-46e9-4b67-a0c1-843f5f7b230b"
        }
      }
    },
    {
      "fullUrl": "urn:uuid:e49eeb00-7f3e-4732-a8a1-72026c3c0102",
      "resource": {
        "resourceType": "Observation",
        "id": "e49eeb00-7f3e-4732-a8a1-72026c3c0102",
        "meta": {
          "profile": [
            "http://hl7.eu/fhir/laboratory/StructureDefinition/Observation-resultslab-eu-lab"
          ]
        },
        "performer": [
          {
            "display": "The Central European Lab"
          }
        ],
        "category": [
          {
            "coding": [
              {
                "system": "http://terminology.hl7.org/CodeSystem/observation-category",
                "code": "laboratory"
              }
            ]
          }
        ],
        "code": {
          "coding": [
            {
              "code": "38483-4",
              "system": "http://loinc.org",
              "display": "Creatinine [Mass/volume] in Blood"
            }
          ],
          "text": "Creatinine [Mass/volume] in Blood"
        },
        "valueQuantity": {
          "system": "http://unitsofmeasure.org",
          "value": 1,
          "unit": "mg/dL",
          "code": "mg/dL"
        },
        "referenceRange": [
          {
            "low": {
              "value": 0.6,
              "code": "mg/dL",
              "system": "http://unitsofmeasure.org"
            }
          },
          {
            "high": {
              "value": 1.1,
              "code": "mg/dL",
              "system": "http://unitsofmeasure.org"
            }
          }
        ],
        "text": {
          "status": "generated",
          "div": "<div xmlns=\"http://www.w3.org/1999/xhtml\"><table class=\"hl7__eu__lab__report\"><tr><th>Test</th><th>30-Jan-2017</th><th>Reference&#xA0;Range</th><th>Unit</th></tr><tr><td>Creatinine [Mass/volume] in Blood</td><td>1.0</td><td>0.6 - 1.1</td><td></td><td>mg/dL</td></tr></table></div>"
        },
        "status": "final",
        "subject": {
          "reference": "urn:uuid:213fe76a-46c4-41de-b5f1-572f44a7c510",
          "display": "Pauline Grenier"
        },
        "effectiveDateTime": "2017-01-30T11:54:46Z",
        "specimen": {
          "reference": "urn:uuid:95caeb46-46e9-4b67-a0c1-843f5f7b230b"
        }
      }
    },
    {
      "fullUrl": "urn:uuid:9af8430b-7c54-4f01-9ebe-10f9d8222377",
      "resource": {
        "resourceType": "Observation",
        "id": "9af8430b-7c54-4f01-9ebe-10f9d8222377",
        "meta": {
          "profile": [
            "http://hl7.eu/fhir/laboratory/StructureDefinition/Observation-resultslab-eu-lab"
          ]
        },
        "performer": [
          {
            "display": "The Central European Lab"
          }
        ],
        "category": [
          {
            "coding": [
              {
                "system": "http://terminology.hl7.org/CodeSystem/observation-category",
                "code": "laboratory"
              }
            ]
          }
        ],
        "code": {
          "coding": [
            {
              "code": "49765-1",
              "system": "http://loinc.org",
              "display": "Calcium [Mass/volume] in Blood"
            }
          ],
          "text": "Calcium [Mass/volume] in Blood"
        },
        "valueQuantity": {
          "system": "http://unitsofmeasure.org",
          "value": 9.6,
          "unit": "mg/dL",
          "code": "mg/dL"
        },
        "referenceRange": [
          {
            "low": {
              "value": 8.5,
              "code": "mg/dL",
              "system": "http://unitsofmeasure.org"
            }
          },
          {
            "high": {
              "value": 10.5,
              "code": "mg/dL",
              "system": "http://unitsofmeasure.org"
            }
          }
        ],
        "text": {
          "status": "generated",
          "div": "<div xmlns=\"http://www.w3.org/1999/xhtml\"><table class=\"hl7__eu__lab__report\"><tr><th>Test</th><th>30-Jan-2017</th><th>Reference&#xA0;Range</th><th>Unit</th></tr><tr><td>Calcium [Mass/volume] in Blood</td><td>9.6</td><td>8.5 - 10.5</td><td></td><td>mg/dL</td></tr></table></div>"
        },
        "status": "final",
        "subject": {
          "reference": "urn:uuid:213fe76a-46c4-41de-b5f1-572f44a7c510",
          "display": "Pauline Grenier"
        },
        "effectiveDateTime": "2017-01-30T11:54:46Z",
        "specimen": {
          "reference": "urn:uuid:95caeb46-46e9-4b67-a0c1-843f5f7b230b"
        }
      }
    },
    {
      "fullUrl": "urn:uuid:8e3b84b2-c2a7-4f09-83c2-2f5ae1d513c4",
      "resource": {
        "resourceType": "Observation",
        "id": "8e3b84b2-c2a7-4f09-83c2-2f5ae1d513c4",
        "meta": {
          "profile": [
            "http://hl7.eu/fhir/laboratory/StructureDefinition/Observation-resultslab-eu-lab"
          ]
        },
        "performer": [
          {
            "display": "The Central European Lab"
          }
        ],
        "category": [
          {
            "coding": [
              {
                "system": "http://terminology.hl7.org/CodeSystem/observation-category",
                "code": "laboratory"
              }
            ]
          }
        ],
        "code": {
          "coding": [
            {
              "code": "2947-0",
              "system": "http://loinc.org",
              "display": "Sodium [Moles/volume] in Blood"
            }
          ],
          "text": "Sodium [Moles/volume] in Blood"
        },
        "valueQuantity": {
          "system": "http://unitsofmeasure.org",
          "value": 137,
          "unit": "mmol/L",
          "code": "mmol/L"
        },
        "referenceRange": [
          {
            "low": {
              "value": 135,
              "code": "mmol/L",
              "system": "http://unitsofmeasure.org"
            }
          },
          {
            "high": {
              "value": 145,
              "code": "mmol/L",
              "system": "http://unitsofmeasure.org"
            }
          }
        ],
        "text": {
          "status": "generated",
          "div": "<div xmlns=\"http://www.w3.org/1999/xhtml\"><table class=\"hl7__eu__lab__report\"><tr><th>Test</th><th>30-Jan-2017</th><th>Reference&#xA0;Range</th><th>Unit</th></tr><tr><td>Sodium [Moles/volume] in Blood</td><td>137.0</td><td>135 - 145</td><td></td><td>mmol/L</td></tr></table></div>"
        },
        "status": "final",
        "subject": {
          "reference": "urn:uuid:213fe76a-46c4-41de-b5f1-572f44a7c510",
          "display": "Pauline Grenier"
        },
        "effectiveDateTime": "2017-01-30T11:54:46Z",
        "specimen": {
          "reference": "urn:uuid:95caeb46-46e9-4b67-a0c1-843f5f7b230b"
        }
      }
    },
    {
      "fullUrl": "urn:uuid:222f3788-867c-40cd-a2c7-a2209c1144b8",
      "resource": {
        "resourceType": "Observation",
        "id": "222f3788-867c-40cd-a2c7-a2209c1144b8",
        "meta": {
          "profile": [
            "http://hl7.eu/fhir/laboratory/StructureDefinition/Observation-resultslab-eu-lab"
          ]
        },
        "performer": [
          {
            "display": "The Central European Lab"
          }
        ],
        "category": [
          {
            "coding": [
              {
                "system": "http://terminology.hl7.org/CodeSystem/observation-category",
                "code": "laboratory"
              }
            ]
          }
        ],
        "code": {
          "coding": [
            {
              "code": "6298-4",
              "system": "http://loinc.org",
              "display": "Potassium [Moles/volume] in Blood"
            }
          ],
          "text": "Potassium [Moles/volume] in Blood"
        },
        "valueQuantity": {
          "system": "http://unitsofmeasure.org",
          "value": 4,
          "unit": "mmol/L",
          "code": "mmol/L"
        },
        "referenceRange": [
          {
            "low": {
              "value": 3.5,
              "code": "mmol/L",
              "system": "http://unitsofmeasure.org"
            }
          },
          {
            "high": {
              "value": 5.3,
              "code": "mmol/L",
              "system": "http://unitsofmeasure.org"
            }
          }
        ],
        "text": {
          "status": "generated",
          "div": "<div xmlns=\"http://www.w3.org/1999/xhtml\"><table class=\"hl7__eu__lab__report\"><tr><th>Test</th><th>30-Jan-2017</th><th>Reference&#xA0;Range</th><th>Unit</th></tr><tr><td>Potassium [Moles/volume] in Blood</td><td>4.0</td><td>3.5 - 5.3</td><td></td><td>mmol/L</td></tr></table></div>"
        },
        "status": "final",
        "subject": {
          "reference": "urn:uuid:213fe76a-46c4-41de-b5f1-572f44a7c510",
          "display": "Pauline Grenier"
        },
        "effectiveDateTime": "2017-01-30T11:54:46Z",
        "specimen": {
          "reference": "urn:uuid:95caeb46-46e9-4b67-a0c1-843f5f7b230b"
        }
      }
    },
    {
      "fullUrl": "urn:uuid:b0feda0d-3360-4f79-ae26-be56b3011fb5",
      "resource": {
        "resourceType": "Observation",
        "id": "b0feda0d-3360-4f79-ae26-be56b3011fb5",
        "meta": {
          "profile": [
            "http://hl7.eu/fhir/laboratory/StructureDefinition/Observation-resultslab-eu-lab"
          ]
        },
        "performer": [
          {
            "display": "The Central European Lab"
          }
        ],
        "category": [
          {
            "coding": [
              {
                "system": "http://terminology.hl7.org/CodeSystem/observation-category",
                "code": "laboratory"
              }
            ]
          }
        ],
        "code": {
          "coding": [
            {
              "code": "2069-3",
              "system": "http://loinc.org",
              "display": "Chloride [Moles/volume] in Blood"
            }
          ],
          "text": "Chloride [Moles/volume] in Blood"
        },
        "valueQuantity": {
          "system": "http://unitsofmeasure.org",
          "value": 105,
          "unit": "mmol/L",
          "code": "mmol/L"
        },
        "referenceRange": [
          {
            "low": {
              "value": 98,
              "code": "mmol/L",
              "system": "http://unitsofmeasure.org"
            }
          },
          {
            "high": {
              "value": 114,
              "code": "mmol/L",
              "system": "http://unitsofmeasure.org"
            }
          }
        ],
        "text": {
          "status": "generated",
          "div": "<div xmlns=\"http://www.w3.org/1999/xhtml\"><table class=\"hl7__eu__lab__report\"><tr><th>Test</th><th>30-Jan-2017</th><th>Reference&#xA0;Range</th><th>Unit</th></tr><tr><td>Chloride [Moles/volume] in Blood</td><td>105.0</td><td>98 - 114</td><td></td><td>mmol/L</td></tr></table></div>"
        },
        "status": "final",
        "subject": {
          "reference": "urn:uuid:213fe76a-46c4-41de-b5f1-572f44a7c510",
          "display": "Pauline Grenier"
        },
        "effectiveDateTime": "2017-01-30T11:54:46Z",
        "specimen": {
          "reference": "urn:uuid:95caeb46-46e9-4b67-a0c1-843f5f7b230b"
        }
      }
    },
    {
      "fullUrl": "urn:uuid:42a8eeb6-afed-4be8-8962-4c068cd124f7",
      "resource": {
        "resourceType": "Observation",
        "id": "42a8eeb6-afed-4be8-8962-4c068cd124f7",
        "meta": {
          "profile": [
            "http://hl7.eu/fhir/laboratory/StructureDefinition/Observation-resultslab-eu-lab"
          ]
        },
        "performer": [
          {
            "display": "The Central European Lab"
          }
        ],
        "category": [
          {
            "coding": [
              {
                "system": "http://terminology.hl7.org/CodeSystem/observation-category",
                "code": "laboratory"
              }
            ]
          }
        ],
        "code": {
          "coding": [
            {
              "code": "20565-8",
              "system": "http://loinc.org",
              "display": "Carbon dioxide, total [Moles/volume] in Blood"
            }
          ],
          "text": "Carbon dioxide, total [Moles/volume] in Blood"
        },
        "valueQuantity": {
          "system": "http://unitsofmeasure.org",
          "value": 20.8,
          "unit": "mmol/L",
          "code": "mmol/L"
        },
        "referenceRange": [
          {
            "low": {
              "value": 22,
              "code": "mmol/L",
              "system": "http://unitsofmeasure.org"
            }
          },
          {
            "high": {
              "value": 29,
              "code": "mmol/L",
              "system": "http://unitsofmeasure.org"
            }
          }
        ],
        "interpretation": [
          {
            "coding": [
              {
                "code": "L",
                "system": "http://terminology.hl7.org/CodeSystem/v3-ObservationInterpretation",
                "display": "Low"
              }
            ]
          }
        ],
        "text": {
          "status": "generated",
          "div": "<div xmlns=\"http://www.w3.org/1999/xhtml\"><table class=\"hl7__eu__lab__report\"><tr><th>Test</th><th>30-Jan-2017</th><th>Reference&#xA0;Range</th><th>Unit</th></tr><tr><td>Carbon dioxide, total [Moles/volume] in Blood</td><td>20.8</td><td>22 - 29</td><td>L</td><td>mmol/L</td></tr></table></div>"
        },
        "status": "final",
        "subject": {
          "reference": "urn:uuid:213fe76a-46c4-41de-b5f1-572f44a7c510",
          "display": "Pauline Grenier"
        },
        "effectiveDateTime": "2017-01-30T11:54:46Z",
        "specimen": {
          "reference": "urn:uuid:95caeb46-46e9-4b67-a0c1-843f5f7b230b"
        }
      }
    },
    {
      "fullUrl": "urn:uuid:b0103590-d68b-4dd8-a761-2612b0cf2d9c",
      "resource": {
        "resourceType": "Observation",
        "id": "b0103590-d68b-4dd8-a761-2612b0cf2d9c",
        "meta": {
          "profile": [
            "http://hl7.eu/fhir/laboratory/StructureDefinition/Observation-resultslab-eu-lab"
          ]
        },
        "performer": [
          {
            "display": "The Central European Lab"
          }
        ],
        "category": [
          {
            "coding": [
              {
                "system": "http://terminology.hl7.org/CodeSystem/observation-category",
                "code": "laboratory"
              }
            ]
          }
        ],
        "code": {
          "coding": [
            {
              "code": "2093-3",
              "system": "http://loinc.org",
              "display": "Cholesterol [Mass/volume] in Serum or Plasma"
            }
          ],
          "text": "Cholesterol [Mass/volume] in Serum or Plasma"
        },
        "valueQuantity": {
          "system": "http://unitsofmeasure.org",
          "value": 194.9,
          "unit": "mg/dL",
          "code": "mg/dL"
        },
        "referenceRange": [
          {
            "low": {
              "value": 125,
              "code": "mg/dL",
              "system": "http://unitsofmeasure.org"
            }
          },
          {
            "high": {
              "value": 200,
              "code": "mg/dL",
              "system": "http://unitsofmeasure.org"
            }
          }
        ],
        "text": {
          "status": "generated",
          "div": "<div xmlns=\"http://www.w3.org/1999/xhtml\"><table class=\"hl7__eu__lab__report\"><tr><th>Test</th><th>30-Jan-2017</th><th>Reference&#xA0;Range</th><th>Unit</th></tr><tr><td>Cholesterol [Mass/volume] in Serum or Plasma</td><td>194.9</td><td>125 - 200</td><td></td><td>mg/dL</td></tr></table></div>"
        },
        "status": "final",
        "subject": {
          "reference": "urn:uuid:213fe76a-46c4-41de-b5f1-572f44a7c510",
          "display": "Pauline Grenier"
        },
        "effectiveDateTime": "2017-01-30T11:54:46Z",
        "specimen": {
          "reference": "urn:uuid:db22e5d0-6e30-4f66-a2d2-72745eb30f25"
        }
      }
    },
    {
      "fullUrl": "urn:uuid:b592d1a6-2832-4d45-a0af-78c05ed13ef1",
      "resource": {
        "resourceType": "Observation",
        "id": "b592d1a6-2832-4d45-a0af-78c05ed13ef1",
        "meta": {
          "profile": [
            "http://hl7.eu/fhir/laboratory/StructureDefinition/Observation-resultslab-eu-lab"
          ]
        },
        "performer": [
          {
            "display": "The Central European Lab"
          }
        ],
        "category": [
          {
            "coding": [
              {
                "system": "http://terminology.hl7.org/CodeSystem/observation-category",
                "code": "laboratory"
              }
            ]
          }
        ],
        "code": {
          "coding": [
            {
              "code": "2571-8",
              "system": "http://loinc.org",
              "display": "Triglyceride [Mass/volume] in Serum or Plasma"
            }
          ],
          "text": "Triglyceride [Mass/volume] in Serum or Plasma"
        },
        "valueQuantity": {
          "system": "http://unitsofmeasure.org",
          "value": 149,
          "unit": "mg/dL",
          "code": "mg/dL"
        },
        "referenceRange": [
          {
            "low": {
              "value": 35,
              "code": "mg/dL",
              "system": "http://unitsofmeasure.org"
            }
          },
          {
            "high": {
              "value": 150,
              "code": "mg/dL",
              "system": "http://unitsofmeasure.org"
            }
          }
        ],
        "text": {
          "status": "generated",
          "div": "<div xmlns=\"http://www.w3.org/1999/xhtml\"><table class=\"hl7__eu__lab__report\"><tr><th>Test</th><th>30-Jan-2017</th><th>Reference&#xA0;Range</th><th>Unit</th></tr><tr><td>Triglyceride [Mass/volume] in Serum or Plasma</td><td>149.0</td><td>35 - 150</td><td></td><td>mg/dL</td></tr></table></div>"
        },
        "status": "final",
        "subject": {
          "reference": "urn:uuid:213fe76a-46c4-41de-b5f1-572f44a7c510",
          "display": "Pauline Grenier"
        },
        "effectiveDateTime": "2017-01-30T11:54:46Z",
        "specimen": {
          "reference": "urn:uuid:db22e5d0-6e30-4f66-a2d2-72745eb30f25"
        }
      }
    },
    {
      "fullUrl": "urn:uuid:f673b6b2-7240-44fd-afe9-090e8886450d",
      "resource": {
        "resourceType": "Observation",
        "id": "f673b6b2-7240-44fd-afe9-090e8886450d",
        "meta": {
          "profile": [
            "http://hl7.eu/fhir/laboratory/StructureDefinition/Observation-resultslab-eu-lab"
          ]
        },
        "performer": [
          {
            "display": "The Central European Lab"
          }
        ],
        "category": [
          {
            "coding": [
              {
                "system": "http://terminology.hl7.org/CodeSystem/observation-category",
                "code": "laboratory"
              }
            ]
          }
        ],
        "code": {
          "coding": [
            {
              "code": "18262-6",
              "system": "http://loinc.org",
              "display": "Cholesterol in LDL [Mass/volume] in Serum or Plasma by Direct assay"
            }
          ],
          "text": "Cholesterol in LDL [Mass/volume] in Serum or Plasma by Direct assay"
        },
        "valueQuantity": {
          "system": "http://unitsofmeasure.org",
          "value": 113,
          "unit": "mg/dL",
          "code": "mg/dL"
        },
        "referenceRange": [
          {
            "low": {
              "value": 0,
              "code": "mg/dL",
              "system": "http://unitsofmeasure.org"
            }
          },
          {
            "high": {
              "value": 130,
              "code": "mg/dL",
              "system": "http://unitsofmeasure.org"
            }
          }
        ],
        "text": {
          "status": "generated",
          "div": "<div xmlns=\"http://www.w3.org/1999/xhtml\"><table class=\"hl7__eu__lab__report\"><tr><th>Test</th><th>30-Jan-2017</th><th>Reference&#xA0;Range</th><th>Unit</th></tr><tr><td>Cholesterol in LDL [Mass/volume] in Serum or Plasma by Direct assay</td><td>113.0</td><td>0 - 130</td><td></td><td>mg/dL</td></tr></table></div>"
        },
        "status": "final",
        "subject": {
          "reference": "urn:uuid:213fe76a-46c4-41de-b5f1-572f44a7c510",
          "display": "Pauline Grenier"
        },
        "effectiveDateTime": "2017-01-30T11:54:46Z",
        "specimen": {
          "reference": "urn:uuid:db22e5d0-6e30-4f66-a2d2-72745eb30f25"
        }
      }
    },
    {
      "fullUrl": "urn:uuid:070eeb2d-7fa7-4310-b409-002c7a54917f",
      "resource": {
        "resourceType": "Observation",
        "id": "070eeb2d-7fa7-4310-b409-002c7a54917f",
        "meta": {
          "profile": [
            "http://hl7.eu/fhir/laboratory/StructureDefinition/Observation-resultslab-eu-lab"
          ]
        },
        "performer": [
          {
            "display": "The Central European Lab"
          }
        ],
        "category": [
          {
            "coding": [
              {
                "system": "http://terminology.hl7.org/CodeSystem/observation-category",
                "code": "laboratory"
              }
            ]
          }
        ],
        "code": {
          "coding": [
            {
              "code": "2085-9",
              "system": "http://loinc.org",
              "display": "Cholesterol in HDL [Mass/volume] in Serum or Plasma"
            }
          ],
          "text": "Cholesterol in HDL [Mass/volume] in Serum or Plasma"
        },
        "valueQuantity": {
          "system": "http://unitsofmeasure.org",
          "value": 52.2,
          "unit": "mg/dL",
          "code": "mg/dL"
        },
        "referenceRange": [
          {
            "low": {
              "value": 40,
              "code": "mg/dL",
              "system": "http://unitsofmeasure.org"
            }
          },
          {
            "high": {
              "value": 60,
              "code": "mg/dL",
              "system": "http://unitsofmeasure.org"
            }
          }
        ],
        "text": {
          "status": "generated",
          "div": "<div xmlns=\"http://www.w3.org/1999/xhtml\"><table class=\"hl7__eu__lab__report\"><tr><th>Test</th><th>30-Jan-2017</th><th>Reference&#xA0;Range</th><th>Unit</th></tr><tr><td>Cholesterol in HDL [Mass/volume] in Serum or Plasma</td><td>52.2</td><td>40 - 60</td><td></td><td>mg/dL</td></tr></table></div>"
        },
        "status": "final",
        "subject": {
          "reference": "urn:uuid:213fe76a-46c4-41de-b5f1-572f44a7c510",
          "display": "Pauline Grenier"
        },
        "effectiveDateTime": "2017-01-30T11:54:46Z",
        "specimen": {
          "reference": "urn:uuid:db22e5d0-6e30-4f66-a2d2-72745eb30f25"
        }
      }
    },
    {
      "fullUrl": "urn:uuid:e73cfbe6-314e-44fc-b457-fc87c3bf9c0e",
      "resource": {
        "resourceType": "Device",
        "id": "e73cfbe6-314e-44fc-b457-fc87c3bf9c0e",
        "deviceName": [
          {
            "name": "SYNDERAI Synthetic Generator",
            "type": "manufacturer-name"
          }
        ],
        "version": [
          {
            "value": "5.0"
          }
        ],
        "text": {
          "status": "generated",
          "div": "<div xmlns=\"http://www.w3.org/1999/xhtml\">SYNDERAI Synthetic Generator v5.0</div>"
        },
        "status": "active\"",
        "distinctIdentifier": "synderai-generator-50",
        "manufacturer": "SYNDERAI Project"
      }
    },
    {
      "fullUrl": "urn:uuid:d8155929-b2c2-44bf-bed2-37a23d6945ad",
      "resource": {
        "resourceType": "Provenance",
        "id": "d8155929-b2c2-44bf-bed2-37a23d6945ad",
        "target": [
          {
            "reference": "Patient/213fe76a-46c4-41de-b5f1-572f44a7c510"
          },
          {
            "reference": "Bundle/e03dc25e-e51d-4260-b228-ab2cee5d32e1"
          },
          {
            "reference": "Composition/c0569a26-7352-4892-8c39-9cb88637b26a"
          },
          {
            "reference": "PractitionerRole/a1992d77-001c-4366-aa46-8485e2157827"
          },
          {
            "reference": "Practitioner/cfbeec2a-f4fd-45d7-ba6e-3f353c88cae8"
          },
          {
            "reference": "PractitionerRole/04021628-3f1d-425e-898c-5df8c718476c"
          },
          {
            "reference": "Organization/a06573d6-da17-41fd-9daf-200543eb5a5e"
          }
        ],
        "activity": {
          "text": "Synthetic Example Data Generation"
        },
        "policy": [
          "https://synderai.net/synderai-synthetic-data-policy"
        ],
        "agent": [
          {
            "type": {
              "text": "author"
            },
            "who": {
              "reference": "Device/e73cfbe6-314e-44fc-b457-fc87c3bf9c0e"
            }
          }
        ],
        "reason": [
          {
            "text": "Interoperability Testing and Training (non-clinical use)"
          }
        ],
        "text": {
          "status": "generated",
          "div": "<div xmlns=\"http://www.w3.org/1999/xhtml\">Provenance for SYNDERAI Synthetic Example Data Resource</div>"
        },
        "recorded": "2017-01-30T12:54:46Z"
      }
    },
    {
      "fullUrl": "urn:uuid:a1992d77-001c-4366-aa46-8485e2157827",
      "resource": {
        "resourceType": "PractitionerRole",
        "id": "a1992d77-001c-4366-aa46-8485e2157827",
        "meta": {
          "profile": [
            "http://hl7.eu/fhir/base/StructureDefinition/practitionerRole-eu"
          ]
        },
        "text": {
          "status": "generated",
          "div": "<div xmlns=\"http://www.w3.org/1999/xhtml\">Laboratory Role Id: a1992d77-001c-4366-aa46-8485e2157827</div>"
        },
        "practitioner": {
          "reference": "urn:uuid:cfbeec2a-f4fd-45d7-ba6e-3f353c88cae8"
        }
      }
    },
    {
      "fullUrl": "urn:uuid:cfbeec2a-f4fd-45d7-ba6e-3f353c88cae8",
      "resource": {
        "resourceType": "Practitioner",
        "id": "cfbeec2a-f4fd-45d7-ba6e-3f353c88cae8",
        "meta": {
          "profile": [
            "http://hl7.eu/fhir/base/StructureDefinition/practitioner-eu"
          ]
        },
        "identifier": [
          {
            "assigner": {
              "display": "HL7 Europe"
            },
            "system": "urn:oid:2.16.840.1.113883.2.51.999",
            "value": "473f0521-a770-48f7-97bc-89833006959e"
          }
        ],
        "name": [
          {
            "prefix": [
              "dr"
            ],
            "given": [
              "Ex"
            ],
            "family": "Ample"
          }
        ],
        "address": [
          {
            "line": [
              "Laboratoire Central Européenne",
              "Boulevard du Jardin Botanique 32"
            ],
            "postalCode": "1000",
            "city": "Brussels",
            "country": "Belgium"
          }
        ],
        "text": {
          "status": "generated",
          "div": "<div xmlns=\"http://www.w3.org/1999/xhtml\">Laboratory: Laboratoire Central Européenne, 1000 Brussels, Belgium</div>"
        }
      }
    }
  ],
  "type": "document",
  "timestamp": "2017-01-30T12:54:46Z"
}
