<Bundle xmlns="http://hl7.org/fhir">
   <id value="bbce9f14-62d1-4a2e-8de1-dc0906d8e84c"/>
   <meta>
      <profile value="http://hl7.eu/fhir/laboratory/StructureDefinition/Bundle-eu-lab"/>
   </meta>
   <identifier>
      <system value="urn:oid:2.16.840.1.113883.2.51.999"/>
      <value value="86c46686-1af5-418d-ac81-413ed768e53f"/>
      <assigner>
         <display value="HL7 Europe"/>
      </assigner>
   </identifier>
   <type value="document"/>
   <timestamp value="2021-11-02T07:12:15Z"/>
   <entry>
      <fullUrl value="urn:uuid:c5227abf-6fdc-4aab-98d5-7a92bbcbcae5"/>
      <resource>
         <Composition>
            <id value="c5227abf-6fdc-4aab-98d5-7a92bbcbcae5"/>
            <meta>
               <profile value="http://hl7.eu/fhir/laboratory/StructureDefinition/Composition-eu-lab"/>
            </meta>
            <identifier>
               <system value="urn:oid:2.16.840.1.113883.2.51.999"/>
               <value value="4ae27691-fb1b-4bca-9256-8db8cc733cfe"/>
               <assigner>
                  <display value="HL7 Europe"/>
               </assigner>
            </identifier>
            <status value="final"/>
            <type>
               <coding>
                  <system value="http://loinc.org"/>
                  <code value="11502-2"/>
                  <display value="Laboratory report"/>
               </coding>
               <text value="Laboratory Report"/>
            </type>
            <category>
               <coding>
                  <system value="http://loinc.org"/>
                  <code value="26436-6"/>
                  <display value="Laboratory studies (set)"/>
               </coding>
            </category>
            <subject>
               <reference value="urn:uuid:62bbd8bb-1972-41b8-96de-3c2523e3fe08"/>
               <display value="Russell Khan"/>
            </subject>
            <date value="2021-11-02T07:12:15Z"/>
            <author>
               <reference value="urn:uuid:af3770e8-34f6-4373-bbf3-263d125cc6e1"/>
            </author>
            <title value="Laboratory Report"/>
            <confidentiality value="N"/>
            <section>
               <title value="Laboratory Report"/>
               <code>
                  <coding>
                     <system value="http://loinc.org"/>
                     <code value="26436-6"/>
                     <display value="Laboratory studies (set)"/>
                  </coding>
                  <text value="Laboratory studies"/>
               </code>
               <section>
                  <title value="Chemistry"/>
                  <code>
                     <coding>
                        <system value="http://loinc.org"/>
                        <code value="$18719-5"/>
                        <display value="Chemistry studies (set)"/>
                     </coding>
                     <text value="Chemistry"/>
                  </code>
                  <text>
                     <status value="generated"/>
                     <div xmlns="http://www.w3.org/1999/xhtml">
                        <h3>Chemistry</h3>
                        <table class="hl7__eu__lab__report">
                           <thead>
                              <tr>
                                 <th>Test</th>
                                 <th>02-NOV-2021</th>
                                 <th>Reference Range</th>
                                 <th>Unit</th>
                              </tr>
                           </thead>
                           <tbody>
                              <tr>
                                 <td>Choriogonadotropin (pregnancy test) [Presence] in Urine</td>
                                 <td>Negative</td>
                                 <td/>
                                 <td/>
                              </tr>
                           </tbody>
                        </table>
                     </div>
                  </text>
                  <entry>
                     <reference value="urn:uuid:d14db022-d7eb-43fb-bdf9-a7537de0a371"/>
                  </entry>
               </section>
            </section>
            <section>
               <title value="Annotation comment"/>
               <code>
                  <coding>
                     <system value="http://loinc.org"/>
                     <code value="48767-8"/>
                     <display value="Annotation comment"/>
                  </coding>
               </code>
               <text>
                  <status value="generated"/>
                  <div xmlns="http://www.w3.org/1999/xhtml">
                     <h3>Annotation</h3>
                     <table class="hl7__eu__lab__report">
                        <tr>
                           <th>Conclusion and Recommendations based on this report and previous findings known to us</th>
                        </tr>
                        <tr>
                           <td>Choriogonadotropin (pregnancy test) is negative, which is expected in a 45-year-old male. No abnormalities detected from the provided laboratory result.</td>
                        </tr>
                     </table>
                  </div>
               </text>
            </section>
         </Composition>
      </resource>
   </entry>
   <entry>
      <fullUrl value="urn:uuid:369847e5-52a8-472f-bb19-ba0dbe4510f1"/>
      <resource>
         <DiagnosticReport>
            <id value="369847e5-52a8-472f-bb19-ba0dbe4510f1"/>
            <meta>
               <profile value="http://hl7.eu/fhir/laboratory/StructureDefinition/DiagnosticReport-eu-lab"/>
            </meta>
            <extension url="http://hl7.org/fhir/5.0/StructureDefinition/extension-DiagnosticReport.composition">
               <valueReference>
                  <reference value="urn:uuid:4ae27691-fb1b-4bca-9256-8db8cc733cfe"/>
               </valueReference>
            </extension>
            <identifier>
               <system value="urn:oid:2.16.840.1.113883.2.51.999"/>
               <value value="a907b7d4-ae46-425e-a9a7-b963686a2c7c"/>
               <assigner>
                  <display value="HL7 Europe"/>
               </assigner>
            </identifier>
            <status value="registered"/>
            <category>
               <coding>
                  <system value="http://loinc.org"/>
                  <code value="26436-6"/>
                  <display value="Laboratory studies (set)"/>
               </coding>
            </category>
            <code>
               <coding>
                  <system value="http://loinc.org"/>
                  <code value="11502-2"/>
                  <display value="Laboratory report"/>
               </coding>
            </code>
            <subject>
               <reference value="urn:uuid:62bbd8bb-1972-41b8-96de-3c2523e3fe08"/>
               <display value="Russell Khan"/>
            </subject>
            <specimen>
               <reference value="urn:uuid:4b3f0fbf-2fb2-42be-895a-872ddefe63c7"/>
            </specimen>
            <result>
               <reference value="urn:uuid:d14db022-d7eb-43fb-bdf9-a7537de0a371"/>
            </result>
         </DiagnosticReport>
      </resource>
   </entry>
   <entry>
      <fullUrl value="urn:uuid:62bbd8bb-1972-41b8-96de-3c2523e3fe08"/>
      <resource>
         <Patient>
            <id value="62bbd8bb-1972-41b8-96de-3c2523e3fe08"/>
            <meta>
               <profile value="http://hl7.eu/fhir/base/StructureDefinition/patient-eu-core"/>
               <security>
                  <system value="http://terminology.hl7.org/CodeSystem/v3-ActReason"/>
                  <code value="HTEST"/>
               </security>
               <security>
                  <system value="http://terminology.hl7.org/CodeSystem/v3-ActReason"/>
                  <code value="TRAIN"/>
               </security>
               <tag>
                  <system value="https://synderai.net/fhir/CodeSystem/tags"/>
                  <code value="synthetic"/>
                  <display value="SYNDERAI Synthetic data"/>
               </tag>
            </meta>
            <text>
               <status value="generated"/>
               <div xmlns="http://www.w3.org/1999/xhtml">
                  <table class="hl7__ips">
                     <tr>
                        <td>Russell Khan</td>
                        <td>male</td>
                        <td>29-Aug-1980</td>
                     </tr>
                  </table>
               </div>
            </text>
            <extension url="http://hl7.org/fhir/StructureDefinition/patient-nationality">
               <valueCodeableConcept>
                  <coding>
                     <system value="http://hl7.org/fhir/ValueSet/country"/>
                     <code value="GB"/>
                  </coding>
               </valueCodeableConcept>
            </extension>
            <identifier>
               <type>
                  <coding>
                     <system value="http://terminology.hl7.org/CodeSystem/v2-0203"/>
                     <code value="PT"/>
                  </coding>
               </type>
               <system value="http://ec.europa.eu/identifier/eci"/>
               <value value="7982-255119-2"/>
            </identifier>
            <identifier>
               <type>
                  <coding>
                     <system value="http://terminology.hl7.org/CodeSystem/v2-0203"/>
                     <code value="MR"/>
                  </coding>
               </type>
               <system value="http://local.setting.eu/identifier"/>
               <value value="7070b0e2-4aa2-c981-d552-92289a13285c"/>
            </identifier>
            <name>
               <family value="Khan"/>
            </name>
            <name>
               <given value="Russell"/>
            </name>
            <name>
               <text value="Russell Khan"/>
            </name>
            <telecom>
               <system value="phone"/>
               <value value="0115 4960345"/>
            </telecom>
            <gender value="male"/>
            <birthDate value="1980-08-29"/>
            <address>
               <use value="home"/>
               <type value="physical"/>
               <line value="1 Holly well"/>
               <city value="Allantown"/>
               <postalCode value="B9"/>
               <country value="United Kingdom"/>
            </address>
         </Patient>
      </resource>
   </entry>
   <entry>
      <fullUrl value="urn:uuid:64f3e77d-72f3-4bcc-8eb4-c70119f0bd03"/>
      <resource>
         <ServiceRequest>
            <id value="64f3e77d-72f3-4bcc-8eb4-c70119f0bd03"/>
            <meta>
               <profile value="http://hl7.eu/fhir/laboratory/StructureDefinition/ServiceRequest-eu-lab"/>
            </meta>
            <identifier>
               <system value="http://example.org"/>
               <value value="6b5874fe-771e-47a0-aa22-167b78aa3d19"/>
            </identifier>
            <status value="active"/>
            <intent value="order"/>
            <code>
               <coding>
                  <system value="http://snomed.info/sct"/>
                  <code value="108252007"/>
                  <display value="Laboratory procedure"/>
               </coding>
            </code>
            <subject>
               <reference value="urn:uuid:62bbd8bb-1972-41b8-96de-3c2523e3fe08"/>
               <display value="Russell Khan"/>
            </subject>
            <requester>
               <reference value="urn:uuid:bb288fb2-ddd5-4c2d-afda-c141040867fe"/>
            </requester>
            <reasonCode>
               <coding>
                  <system value="http://snomed.info/sct"/>
                  <code value="59621000"/>
                  <display value="Essential hypertension"/>
               </coding>
            </reasonCode>
            <specimen>
               <reference value="urn:uuid:4b3f0fbf-2fb2-42be-895a-872ddefe63c7"/>
            </specimen>
         </ServiceRequest>
      </resource>
   </entry>
   <entry>
      <fullUrl value="urn:uuid:bb288fb2-ddd5-4c2d-afda-c141040867fe"/>
      <resource>
         <PractitionerRole>
            <id value="bb288fb2-ddd5-4c2d-afda-c141040867fe"/>
            <meta>
               <profile value="http://hl7.eu/fhir/base/StructureDefinition/practitionerRole-eu"/>
            </meta>
            <text>
               <status value="generated"/>
               <div xmlns="http://www.w3.org/1999/xhtml">Provider Role Id: bb288fb2-ddd5-4c2d-afda-c141040867fe</div>
            </text>
            <organization>
               <reference value="urn:uuid:3fa68245-d494-4410-986b-9e154e91be41"/>
            </organization>
         </PractitionerRole>
      </resource>
   </entry>
   <entry>
      <fullUrl value="urn:uuid:3fa68245-d494-4410-986b-9e154e91be41"/>
      <resource>
         <Organization>
            <id value="3fa68245-d494-4410-986b-9e154e91be41"/>
            <meta>
               <profile value="http://hl7.eu/fhir/base/StructureDefinition/organization-eu"/>
            </meta>
            <text>
               <status value="generated"/>
               <div xmlns="http://www.w3.org/1999/xhtml">Provider Organization: Birmingham Children's Hospital</div>
            </text>
            <identifier>
               <system value="urn:oid:2.16.840.1.113883.2.51.999"/>
               <value value="d381934b-4002-449b-b0e3-7f19585eb9ef"/>
               <assigner>
                  <display value="HL7 Europe"/>
               </assigner>
            </identifier>
            <name value="Birmingham Children&amp;#039;s Hospital"/>
            <address>
               <city value="Birmingham"/>
               <postalCode value="B4 6"/>
               <country value="United Kingdom"/>
            </address>
         </Organization>
      </resource>
   </entry>
   <entry>
      <fullUrl value="urn:uuid:4b3f0fbf-2fb2-42be-895a-872ddefe63c7"/>
      <resource>
         <Specimen>
            <id value="4b3f0fbf-2fb2-42be-895a-872ddefe63c7"/>
            <meta>
               <profile value="http://hl7.eu/fhir/laboratory/StructureDefinition/Specimen-eu-lab"/>
            </meta>
            <text>
               <status value="generated"/>
               <div xmlns="http://www.w3.org/1999/xhtml">
                  <table class="hl7__eu__lab__report">
                     <tr>
                        <th>Specimen</th>
                        <th>Collection Date</th>
                     </tr>
                     <tr>
                        <td>Urine specimen</td>
                        <td>
                           <span class="nb">02-Nov-2021</span>
                        </td>
                     </tr>
                  </table>
               </div>
            </text>
            <type>
               <coding>
                  <system value="http://snomed.info/sct"/>
                  <code value="122575003"/>
                  <display value="Urine specimen"/>
               </coding>
            </type>
            <collection>
               <collectedDateTime value="2021-11-02"/>
            </collection>
         </Specimen>
      </resource>
   </entry>
   <entry>
      <fullUrl value="urn:uuid:d14db022-d7eb-43fb-bdf9-a7537de0a371"/>
      <resource>
         <Observation>
            <id value="d14db022-d7eb-43fb-bdf9-a7537de0a371"/>
            <meta>
               <profile value="http://hl7.eu/fhir/laboratory/StructureDefinition/Observation-resultslab-eu-lab"/>
            </meta>
            <text>
               <status value="generated"/>
               <div xmlns="http://www.w3.org/1999/xhtml">
                  <table class="hl7__eu__lab__report">
                     <tr>
                        <th>Test</th>
                        <th>02-Nov-2021</th>
                        <th>Reference Range</th>
                        <th>Unit</th>
                     </tr>
                     <tr>
                        <td>Choriogonadotropin (pregnancy test) [Presence] in Urine</td>
                     </tr>
                  </table>
               </div>
            </text>
            <status value="final"/>
            <category>
               <coding>
                  <system value="http://terminology.hl7.org/CodeSystem/observation-category"/>
                  <code value="laboratory"/>
               </coding>
            </category>
            <code>
               <coding>
                  <system value="http://loinc.org"/>
                  <code value="2106-3"/>
                  <display value="Choriogonadotropin (pregnancy test) [Presence] in Urine"/>
               </coding>
               <text value="Choriogonadotropin (pregnancy test) [Presence] in Urine"/>
            </code>
            <subject>
               <reference value="urn:uuid:62bbd8bb-1972-41b8-96de-3c2523e3fe08"/>
               <display value="Russell Khan"/>
            </subject>
            <effectiveDateTime value="2021-11-02T06:12:15Z"/>
            <performer>
               <display value="The Central European Lab"/>
            </performer>
            <specimen>
               <reference value="urn:uuid:4b3f0fbf-2fb2-42be-895a-872ddefe63c7"/>
            </specimen>
         </Observation>
      </resource>
   </entry>
   <entry>
      <fullUrl value="urn:uuid:78e76e6c-f29f-44db-a497-5bc063ef35a8"/>
      <resource>
         <Device>
            <id value="78e76e6c-f29f-44db-a497-5bc063ef35a8"/>
            <text>
               <status value="generated"/>
               <div xmlns="http://www.w3.org/1999/xhtml">SYNDERAI Synthetic Generator v5.0</div>
            </text>
            <status value="active&#34;"/>
            <distinctIdentifier value="synderai-generator-50"/>
            <manufacturer value="SYNDERAI Project"/>
            <deviceName>
               <name value="SYNDERAI Synthetic Generator"/>
               <type value="manufacturer-name"/>
            </deviceName>
            <version>
               <value value="5.0"/>
            </version>
         </Device>
      </resource>
   </entry>
   <entry>
      <fullUrl value="urn:uuid:53d6db36-0289-45a7-a30e-bd67a8c0e7a9"/>
      <resource>
         <Provenance>
            <id value="53d6db36-0289-45a7-a30e-bd67a8c0e7a9"/>
            <text>
               <status value="generated"/>
               <div xmlns="http://www.w3.org/1999/xhtml">Provenance for SYNDERAI Synthetic Example Data Resource</div>
            </text>
            <target>
               <reference value="Patient/62bbd8bb-1972-41b8-96de-3c2523e3fe08"/>
            </target>
            <target>
               <reference value="Bundle/bbce9f14-62d1-4a2e-8de1-dc0906d8e84c"/>
            </target>
            <target>
               <reference value="Composition/c5227abf-6fdc-4aab-98d5-7a92bbcbcae5"/>
            </target>
            <target>
               <reference value="PractitionerRole/af3770e8-34f6-4373-bbf3-263d125cc6e1"/>
            </target>
            <target>
               <reference value="Practitioner/61ee2e2d-50ef-45c1-adc4-72154de6907d"/>
            </target>
            <target>
               <reference value="PractitionerRole/bb288fb2-ddd5-4c2d-afda-c141040867fe"/>
            </target>
            <target>
               <reference value="Organization/3fa68245-d494-4410-986b-9e154e91be41"/>
            </target>
            <recorded value="2021-11-02T07:12:15Z"/>
            <policy value="https://synderai.net/synderai-synthetic-data-policy"/>
            <reason>
               <text value="Interoperability Testing and Training (non-clinical use)"/>
            </reason>
            <activity>
               <text value="Synthetic Example Data Generation"/>
            </activity>
            <agent>
               <type>
                  <text value="author"/>
               </type>
               <who>
                  <reference value="Device/78e76e6c-f29f-44db-a497-5bc063ef35a8"/>
               </who>
            </agent>
         </Provenance>
      </resource>
   </entry>
   <entry>
      <fullUrl value="urn:uuid:af3770e8-34f6-4373-bbf3-263d125cc6e1"/>
      <resource>
         <PractitionerRole>
            <id value="af3770e8-34f6-4373-bbf3-263d125cc6e1"/>
            <meta>
               <profile value="http://hl7.eu/fhir/base/StructureDefinition/practitionerRole-eu"/>
            </meta>
            <text>
               <status value="generated"/>
               <div xmlns="http://www.w3.org/1999/xhtml">Laboratory Role Id: af3770e8-34f6-4373-bbf3-263d125cc6e1</div>
            </text>
            <practitioner>
               <reference value="urn:uuid:61ee2e2d-50ef-45c1-adc4-72154de6907d"/>
            </practitioner>
         </PractitionerRole>
      </resource>
   </entry>
   <entry>
      <fullUrl value="urn:uuid:61ee2e2d-50ef-45c1-adc4-72154de6907d"/>
      <resource>
         <Practitioner>
            <id value="61ee2e2d-50ef-45c1-adc4-72154de6907d"/>
            <meta>
               <profile value="http://hl7.eu/fhir/base/StructureDefinition/practitioner-eu"/>
            </meta>
            <text>
               <status value="generated"/>
               <div xmlns="http://www.w3.org/1999/xhtml">Laboratory: Laboratoire Central Européenne, 1000 Brussels, Belgium</div>
            </text>
            <identifier>
               <system value="urn:oid:2.16.840.1.113883.2.51.999"/>
               <value value="62dbc0a7-bbb2-4214-a492-a268a63e6cdb"/>
               <assigner>
                  <display value="HL7 Europe"/>
               </assigner>
            </identifier>
            <name>
               <family value="Ample"/>
               <given value="Ex"/>
               <prefix value="dr"/>
            </name>
            <address>
               <line value="Laboratoire Central Européenne"/>
               <line value="Boulevard du Jardin Botanique 32"/>
               <city value="Brussels"/>
               <postalCode value="1000"/>
               <country value="Belgium"/>
            </address>
         </Practitioner>
      </resource>
   </entry>
</Bundle>