{
  "resourceType": "Bundle",
  "id": "1ebed79a-1978-434d-bead-b09b7eca8c2a",
  "meta": {
    "profile": [
      "http://hl7.eu/fhir/laboratory/StructureDefinition/Bundle-eu-lab"
    ]
  },
  "identifier": {
    "assigner": {
      "display": "HL7 Europe"
    },
    "system": "urn:oid:2.16.840.1.113883.2.51.999",
    "value": "9bf093c9-35cb-4864-9d99-52d3db034275"
  },
  "entry": [
    {
      "fullUrl": "urn:uuid:6d660aff-3bb8-4e9a-b69b-889212c0d6fb",
      "resource": {
        "resourceType": "Composition",
        "id": "6d660aff-3bb8-4e9a-b69b-889212c0d6fb",
        "meta": {
          "profile": [
            "http://hl7.eu/fhir/laboratory/StructureDefinition/Composition-eu-lab"
          ]
        },
        "identifier": {
          "assigner": {
            "display": "HL7 Europe"
          },
          "system": "urn:oid:2.16.840.1.113883.2.51.999",
          "value": "21bb03b3-01fb-49d8-a4ff-bac6f9542680"
        },
        "author": [
          {
            "reference": "urn:uuid:04abd6c7-29f4-4a80-8cb1-5722dcd93eb3"
          }
        ],
        "category": [
          {
            "coding": [
              {
                "code": "26436-6",
                "system": "http://loinc.org",
                "display": "Laboratory studies (set)"
              }
            ]
          }
        ],
        "type": {
          "coding": [
            {
              "code": "11502-2",
              "system": "http://loinc.org",
              "display": "Laboratory report"
            }
          ],
          "text": "Laboratory Report"
        },
        "section": [
          {
            "code": {
              "coding": [
                {
                  "code": "26436-6",
                  "system": "http://loinc.org",
                  "display": "Laboratory studies (set)"
                }
              ],
              "text": "Laboratory studies"
            },
            "section": [
              {
                "code": {
                  "coding": [
                    {
                      "code": "$18723-7",
                      "system": "http://loinc.org",
                      "display": "Hematology studies (set)"
                    }
                  ],
                  "text": "Hematology"
                },
                "entry": [
                  {
                    "reference": "urn:uuid:233dbff9-5dce-4fcd-9918-a308c2c8a523"
                  },
                  {
                    "reference": "urn:uuid:009737f1-53ce-4c61-8696-c2b70e098a78"
                  },
                  {
                    "reference": "urn:uuid:4f6f8399-a835-4d0f-b2a2-a860ad180f40"
                  },
                  {
                    "reference": "urn:uuid:47e832da-7ac9-48d9-80f0-4ea8e9aeeccd"
                  },
                  {
                    "reference": "urn:uuid:6e3acd55-64cc-4446-a6a9-f6b38dcb4d9e"
                  },
                  {
                    "reference": "urn:uuid:b7d8db05-0508-4486-8132-5d85452c52d0"
                  },
                  {
                    "reference": "urn:uuid:33df1255-4a35-45d5-8b30-f9c5f37a152a"
                  },
                  {
                    "reference": "urn:uuid:48c23345-6e98-4975-ac73-fd67d2af3517"
                  },
                  {
                    "reference": "urn:uuid:58a7f3d8-e7e4-4c07-9c92-7f92b0004ae9"
                  },
                  {
                    "reference": "urn:uuid:5d24f7fb-8bb0-4e0e-bdb7-94c3bbf5239a"
                  },
                  {
                    "reference": "urn:uuid:64fcd81f-6be1-4716-9896-9dbed46f776a"
                  }
                ],
                "text": {
                  "status": "generated",
                  "div": "<div xmlns=\"http://www.w3.org/1999/xhtml\"><h3>Hematology</h3><table class=\"hl7__eu__lab__report\"><thead><tr><th>Test</th><th>27-MAY-2020</th><th>Reference&#xA0;Range</th><th>Unit</th></tr></thead><tbody><tr><td>Leukocytes [#/volume] in Blood by Automated count</td><td>10.3</td><td>4 - 11</td><td>10*3/uL</td></tr><tr><td>Erythrocytes [#/volume] in Blood by Automated count</td><td>4.8</td><td>4.3 - 6.1</td><td>10*6/uL</td></tr><tr><td>Hemoglobin [Mass/volume] in Blood</td><td>15.5</td><td>13.5 - 17.5</td><td>g/dL</td></tr><tr><td>Hematocrit [Volume Fraction] of Blood by Automated count</td><td>42.1</td><td>37 - 52</td><td>%</td></tr><tr><td>MCV [Entitic volume] by Automated count</td><td>90.9</td><td>76 - 98</td><td>fL</td></tr><tr><td>MCH [Entitic mass] by Automated count</td><td>32.7</td><td>27 - 34</td><td>pg</td></tr><tr><td>MCHC [Mass/volume] by Automated count</td><td>34.6</td><td>31 - 36</td><td>g/dL</td></tr><tr><td>Erythrocyte distribution width [Entitic volume] by Automated count</td><td>44.0</td><td>39 - 55</td><td>fL</td></tr><tr><td>Platelets [#/volume] in Blood by Automated count</td><td>409.0</td><td>140 - 424</td><td>10*3/uL</td></tr><tr><td>Platelet distribution width [Entitic volume] in Blood by Automated count</td><td><strong>155.5 H</strong></td><td>13.4 - 17.4</td><td>fL</td></tr><tr><td>Platelet mean volume [Entitic volume] in Blood by Automated count</td><td>9.7</td><td>7.2 - 13.8</td><td>fL</td></tr></tbody></table></div>"
                },
                "title": "Hematology"
              },
              {
                "code": {
                  "coding": [
                    {
                      "code": "$18719-5",
                      "system": "http://loinc.org",
                      "display": "Chemistry studies (set)"
                    }
                  ],
                  "text": "Chemistry"
                },
                "entry": [
                  {
                    "reference": "urn:uuid:a8f5a3b0-4ff5-442d-a3db-cb36c5fec9a9"
                  },
                  {
                    "reference": "urn:uuid:f5d6c945-203b-406a-aa1d-e8905a7139d5"
                  },
                  {
                    "reference": "urn:uuid:ded17022-2186-4635-8db4-0fe603a824a3"
                  },
                  {
                    "reference": "urn:uuid:503c3d2e-1e37-4ab7-9c1e-c918112fd4dc"
                  },
                  {
                    "reference": "urn:uuid:1eb0e5cc-b21f-4550-8b79-d57deccd1317"
                  },
                  {
                    "reference": "urn:uuid:62755be0-c4a0-446b-9fe9-9178c73340cd"
                  },
                  {
                    "reference": "urn:uuid:43d06787-8f04-43b2-816b-c060f070beff"
                  },
                  {
                    "reference": "urn:uuid:f0cbd70a-fba2-4aba-a330-726c70000ef2"
                  },
                  {
                    "reference": "urn:uuid:affbff75-3e9a-40b6-9e4a-ebc69078eae3"
                  }
                ],
                "text": {
                  "status": "generated",
                  "div": "<div xmlns=\"http://www.w3.org/1999/xhtml\"><h3>Chemistry</h3><table class=\"hl7__eu__lab__report\"><thead><tr><th>Test</th><th>27-MAY-2020</th><th>Reference&#xA0;Range</th><th>Unit</th></tr></thead><tbody><tr><td>Hemoglobin A1c/Hemoglobin.total in Blood</td><td><strong>6.1 H</strong></td><td>3.8 - 5.7</td><td>%</td></tr><tr><td>Glucose [Mass/volume] in Blood</td><td>84.2</td><td>70 - 140</td><td>mg/dL</td></tr><tr><td>Urea nitrogen [Mass/volume] in Blood</td><td>8.7</td><td>7 - 20</td><td>mg/dL</td></tr><tr><td>Creatinine [Mass/volume] in Blood</td><td>0.9</td><td>0.9 - 1.3</td><td>mg/dL</td></tr><tr><td>Calcium [Mass/volume] in Blood</td><td>9.0</td><td>8.5 - 10.5</td><td>mg/dL</td></tr><tr><td>Sodium [Moles/volume] in Blood</td><td>139.6</td><td>135 - 145</td><td>mmol/L</td></tr><tr><td>Potassium [Moles/volume] in Blood</td><td>5.1</td><td>3.5 - 5.3</td><td>mmol/L</td></tr><tr><td>Chloride [Moles/volume] in Blood</td><td>108.2</td><td>98 - 109</td><td>mmol/L</td></tr><tr><td>Carbon dioxide, total [Moles/volume] in Blood</td><td>25.2</td><td>22 - 32</td><td>mmol/L</td></tr></tbody></table></div>"
                },
                "title": "Chemistry"
              }
            ],
            "title": "Laboratory Report"
          },
          {
            "text": {
              "status": "generated",
              "div": "<div xmlns=\"http://www.w3.org/1999/xhtml\"><h3>Annotation</h3><table class=\"hl7__eu__lab__report\"><tr><th>Conclusion and Recommendations based on this report and previous findings known to us</th></tr><tr><td>The laboratory results show good renal and electrolyte status, and normal blood counts. However, HbA1c is mildly elevated, indicating impaired glucose metabolism or possible prediabetes/diabetes. Platelet distribution width is markedly increased, which may suggest platelet activation or heterogeneity but platelet count is normal. Clinical correlation is recommended for glycemic control and to assess for any underlying causes of platelet changes.</td></tr></table></div>"
            },
            "code": {
              "coding": [
                {
                  "system": "http://loinc.org",
                  "code": "48767-8",
                  "display": "Annotation comment"
                }
              ]
            },
            "title": "Annotation comment"
          }
        ],
        "status": "final",
        "subject": {
          "reference": "urn:uuid:ade0d60b-f14c-46dc-bbe0-b0f6a9d97183",
          "display": "Lazăr Florea"
        },
        "date": "2020-05-27T15:56:29Z",
        "title": "Laboratory Report",
        "confidentiality": "N"
      }
    },
    {
      "fullUrl": "urn:uuid:38fa1b6c-83e1-4f64-9566-e1b00a90275a",
      "resource": {
        "resourceType": "DiagnosticReport",
        "id": "38fa1b6c-83e1-4f64-9566-e1b00a90275a",
        "meta": {
          "profile": [
            "http://hl7.eu/fhir/laboratory/StructureDefinition/DiagnosticReport-eu-lab"
          ]
        },
        "identifier": [
          {
            "assigner": {
              "display": "HL7 Europe"
            },
            "system": "urn:oid:2.16.840.1.113883.2.51.999",
            "value": "03815011-981f-4c0b-ab00-7f3450c71b75"
          }
        ],
        "extension": [
          {
            "url": "http://hl7.org/fhir/5.0/StructureDefinition/extension-DiagnosticReport.composition",
            "valueReference": {
              "reference": "urn:uuid:21bb03b3-01fb-49d8-a4ff-bac6f9542680"
            }
          }
        ],
        "category": [
          {
            "coding": [
              {
                "code": "26436-6",
                "system": "http://loinc.org",
                "display": "Laboratory studies (set)"
              }
            ]
          }
        ],
        "specimen": [
          {
            "reference": "urn:uuid:e32e8771-d7b9-487b-994a-c74c4c6d3c9d"
          },
          {
            "reference": "urn:uuid:e32e8771-d7b9-487b-994a-c74c4c6d3c9d"
          }
        ],
        "result": [
          {
            "reference": "urn:uuid:a8f5a3b0-4ff5-442d-a3db-cb36c5fec9a9"
          },
          {
            "reference": "urn:uuid:f5d6c945-203b-406a-aa1d-e8905a7139d5"
          },
          {
            "reference": "urn:uuid:ded17022-2186-4635-8db4-0fe603a824a3"
          },
          {
            "reference": "urn:uuid:503c3d2e-1e37-4ab7-9c1e-c918112fd4dc"
          },
          {
            "reference": "urn:uuid:1eb0e5cc-b21f-4550-8b79-d57deccd1317"
          },
          {
            "reference": "urn:uuid:62755be0-c4a0-446b-9fe9-9178c73340cd"
          },
          {
            "reference": "urn:uuid:43d06787-8f04-43b2-816b-c060f070beff"
          },
          {
            "reference": "urn:uuid:f0cbd70a-fba2-4aba-a330-726c70000ef2"
          },
          {
            "reference": "urn:uuid:affbff75-3e9a-40b6-9e4a-ebc69078eae3"
          },
          {
            "reference": "urn:uuid:233dbff9-5dce-4fcd-9918-a308c2c8a523"
          },
          {
            "reference": "urn:uuid:009737f1-53ce-4c61-8696-c2b70e098a78"
          },
          {
            "reference": "urn:uuid:4f6f8399-a835-4d0f-b2a2-a860ad180f40"
          },
          {
            "reference": "urn:uuid:47e832da-7ac9-48d9-80f0-4ea8e9aeeccd"
          },
          {
            "reference": "urn:uuid:6e3acd55-64cc-4446-a6a9-f6b38dcb4d9e"
          },
          {
            "reference": "urn:uuid:b7d8db05-0508-4486-8132-5d85452c52d0"
          },
          {
            "reference": "urn:uuid:33df1255-4a35-45d5-8b30-f9c5f37a152a"
          },
          {
            "reference": "urn:uuid:48c23345-6e98-4975-ac73-fd67d2af3517"
          },
          {
            "reference": "urn:uuid:58a7f3d8-e7e4-4c07-9c92-7f92b0004ae9"
          },
          {
            "reference": "urn:uuid:5d24f7fb-8bb0-4e0e-bdb7-94c3bbf5239a"
          },
          {
            "reference": "urn:uuid:64fcd81f-6be1-4716-9896-9dbed46f776a"
          }
        ],
        "status": "registered",
        "code": {
          "coding": [
            {
              "code": "11502-2",
              "system": "http://loinc.org",
              "display": "Laboratory report"
            }
          ]
        },
        "subject": {
          "reference": "urn:uuid:ade0d60b-f14c-46dc-bbe0-b0f6a9d97183",
          "display": "Lazăr Florea"
        }
      }
    },
    {
      "fullUrl": "urn:uuid:ade0d60b-f14c-46dc-bbe0-b0f6a9d97183",
      "resource": {
        "resourceType": "Patient",
        "id": "ade0d60b-f14c-46dc-bbe0-b0f6a9d97183",
        "meta": {
          "security": [
            {
              "system": "http://terminology.hl7.org/CodeSystem/v3-ActReason",
              "code": "HTEST"
            },
            {
              "system": "http://terminology.hl7.org/CodeSystem/v3-ActReason",
              "code": "TRAIN"
            }
          ],
          "tag": [
            {
              "system": "https://synderai.net/fhir/CodeSystem/tags",
              "code": "synthetic",
              "display": "SYNDERAI Synthetic data"
            }
          ],
          "profile": [
            "http://hl7.eu/fhir/base/StructureDefinition/patient-eu-core"
          ]
        },
        "identifier": [
          {
            "type": {
              "coding": [
                {
                  "code": "PT",
                  "system": "http://terminology.hl7.org/CodeSystem/v2-0203"
                }
              ]
            },
            "system": "http://ec.europa.eu/identifier/eci",
            "value": "8693-862290-8"
          },
          {
            "type": {
              "coding": [
                {
                  "code": "MR",
                  "system": "http://terminology.hl7.org/CodeSystem/v2-0203"
                }
              ]
            },
            "system": "http://local.setting.eu/identifier",
            "value": "602fbbf5-967b-6d86-a533-5cec24b13e71"
          }
        ],
        "name": [
          {
            "family": "Florea"
          },
          {
            "given": [
              "Lazăr"
            ]
          },
          {
            "text": "Lazăr Florea"
          }
        ],
        "address": [
          {
            "line": [
              "Drumul Grațian Nistor"
            ],
            "use": "home",
            "type": "physical",
            "postalCode": "265300",
            "city": "Lupeni",
            "country": "Romania"
          }
        ],
        "telecom": [
          {
            "system": "phone",
            "value": "0753 950 380"
          }
        ],
        "extension": [
          {
            "url": "http://hl7.org/fhir/StructureDefinition/patient-nationality",
            "valueCodeableConcept": {
              "coding": [
                {
                  "code": "RO",
                  "system": "http://hl7.org/fhir/ValueSet/country"
                }
              ]
            }
          }
        ],
        "text": {
          "status": "generated",
          "div": "<div xmlns=\"http://www.w3.org/1999/xhtml\"><table class=\"hl7__ips\"><tr><td>Lazăr Florea</td><td>male</td><td>10-Feb-1946</td></tr></table></div>"
        },
        "gender": "male",
        "birthDate": "1946-02-10"
      }
    },
    {
      "fullUrl": "urn:uuid:98836240-cfe4-4d55-b207-49d86ec295a6",
      "resource": {
        "resourceType": "ServiceRequest",
        "id": "98836240-cfe4-4d55-b207-49d86ec295a6",
        "meta": {
          "profile": [
            "http://hl7.eu/fhir/laboratory/StructureDefinition/ServiceRequest-eu-lab"
          ]
        },
        "identifier": [
          {
            "system": "http://example.org",
            "value": "065d517d-3c32-4dd7-a732-ed0636e5d6dc"
          }
        ],
        "specimen": [
          {
            "reference": "urn:uuid:e32e8771-d7b9-487b-994a-c74c4c6d3c9d"
          }
        ],
        "reasonCode": [
          {
            "coding": [
              {
                "code": "197927001",
                "system": "http://snomed.info/sct",
                "display": "Recurrent urinary tract infection"
              }
            ]
          },
          {
            "coding": [
              {
                "code": "414545008",
                "system": "http://snomed.info/sct",
                "display": "Ischemic heart disease"
              }
            ]
          },
          {
            "coding": [
              {
                "code": "237602007",
                "system": "http://snomed.info/sct",
                "display": "Metabolic syndrome X"
              }
            ]
          },
          {
            "coding": [
              {
                "code": "271737000",
                "system": "http://snomed.info/sct",
                "display": "Anemia"
              }
            ]
          },
          {
            "coding": [
              {
                "code": "15777000",
                "system": "http://snomed.info/sct",
                "display": "Prediabetes"
              }
            ]
          },
          {
            "coding": [
              {
                "code": "59621000",
                "system": "http://snomed.info/sct",
                "display": "Essential hypertension"
              }
            ]
          },
          {
            "coding": [
              {
                "code": "40055000",
                "system": "http://snomed.info/sct",
                "display": "Chronic sinusitis"
              }
            ]
          }
        ],
        "status": "active",
        "intent": "order",
        "code": {
          "coding": [
            {
              "code": "108252007",
              "system": "http://snomed.info/sct",
              "display": "Laboratory procedure"
            }
          ]
        },
        "subject": {
          "reference": "urn:uuid:ade0d60b-f14c-46dc-bbe0-b0f6a9d97183",
          "display": "Lazăr Florea"
        },
        "requester": {
          "reference": "urn:uuid:afd78d25-df04-48fd-9d28-b3edb1df476c"
        }
      }
    },
    {
      "fullUrl": "urn:uuid:afd78d25-df04-48fd-9d28-b3edb1df476c",
      "resource": {
        "resourceType": "PractitionerRole",
        "id": "afd78d25-df04-48fd-9d28-b3edb1df476c",
        "meta": {
          "profile": [
            "http://hl7.eu/fhir/base/StructureDefinition/practitionerRole-eu"
          ]
        },
        "text": {
          "status": "generated",
          "div": "<div xmlns=\"http://www.w3.org/1999/xhtml\">Provider Role Id: afd78d25-df04-48fd-9d28-b3edb1df476c</div>"
        },
        "organization": {
          "reference": "urn:uuid:ece14f23-1c95-4aad-9523-35c5c09b3dc4"
        }
      }
    },
    {
      "fullUrl": "urn:uuid:ece14f23-1c95-4aad-9523-35c5c09b3dc4",
      "resource": {
        "resourceType": "Organization",
        "id": "ece14f23-1c95-4aad-9523-35c5c09b3dc4",
        "meta": {
          "profile": [
            "http://hl7.eu/fhir/base/StructureDefinition/organization-eu"
          ]
        },
        "identifier": [
          {
            "assigner": {
              "display": "HL7 Europe"
            },
            "system": "urn:oid:2.16.840.1.113883.2.51.999",
            "value": "64c64c4e-0398-4be8-b448-155eaaf25475"
          }
        ],
        "address": [
          {
            "line": [
              "Strada 1 Decembrie 1918 137 A"
            ],
            "city": "Petroșani",
            "postalCode": "332019",
            "country": "Romania"
          }
        ],
        "text": {
          "status": "generated",
          "div": "<div xmlns=\"http://www.w3.org/1999/xhtml\">Provider Organization: Spitalul de Urgență</div>"
        },
        "name": "Spitalul de Urgență"
      }
    },
    {
      "fullUrl": "urn:uuid:e32e8771-d7b9-487b-994a-c74c4c6d3c9d",
      "resource": {
        "resourceType": "Specimen",
        "id": "e32e8771-d7b9-487b-994a-c74c4c6d3c9d",
        "meta": {
          "profile": [
            "http://hl7.eu/fhir/laboratory/StructureDefinition/Specimen-eu-lab"
          ]
        },
        "collection": {
          "collectedDateTime": "2020-05-27"
        },
        "text": {
          "status": "generated",
          "div": "<div xmlns=\"http://www.w3.org/1999/xhtml\"><table class=\"hl7__eu__lab__report\"><tr><th>Specimen</th><th>Collection Date</th></tr><tr><td>Whole blood specimen (specimen)</td><td><span class=\"nb\">27-May-2020</span></td></tr></table></div>"
        },
        "type": {
          "coding": [
            {
              "code": "258580003",
              "system": "http://snomed.info/sct",
              "display": "Whole blood specimen (specimen)"
            }
          ]
        }
      }
    },
    {
      "fullUrl": "urn:uuid:e32e8771-d7b9-487b-994a-c74c4c6d3c9d",
      "resource": {
        "resourceType": "Specimen",
        "id": "e32e8771-d7b9-487b-994a-c74c4c6d3c9d",
        "meta": {
          "profile": [
            "http://hl7.eu/fhir/laboratory/StructureDefinition/Specimen-eu-lab"
          ]
        },
        "collection": {
          "collectedDateTime": "2020-05-27"
        },
        "text": {
          "status": "generated",
          "div": "<div xmlns=\"http://www.w3.org/1999/xhtml\"><table class=\"hl7__eu__lab__report\"><tr><th>Specimen</th><th>Collection Date</th></tr><tr><td>Whole blood specimen (specimen)</td><td><span class=\"nb\">27-May-2020</span></td></tr></table></div>"
        },
        "type": {
          "coding": [
            {
              "code": "258580003",
              "system": "http://snomed.info/sct",
              "display": "Whole blood specimen (specimen)"
            }
          ]
        }
      }
    },
    {
      "fullUrl": "urn:uuid:a8f5a3b0-4ff5-442d-a3db-cb36c5fec9a9",
      "resource": {
        "resourceType": "Observation",
        "id": "a8f5a3b0-4ff5-442d-a3db-cb36c5fec9a9",
        "meta": {
          "profile": [
            "http://hl7.eu/fhir/laboratory/StructureDefinition/Observation-resultslab-eu-lab"
          ]
        },
        "performer": [
          {
            "display": "The Central European Lab"
          }
        ],
        "category": [
          {
            "coding": [
              {
                "system": "http://terminology.hl7.org/CodeSystem/observation-category",
                "code": "laboratory"
              }
            ]
          }
        ],
        "code": {
          "coding": [
            {
              "code": "4548-4",
              "system": "http://loinc.org",
              "display": "Hemoglobin A1c/Hemoglobin.total in Blood"
            }
          ],
          "text": "Hemoglobin A1c/Hemoglobin.total in Blood"
        },
        "valueQuantity": {
          "system": "http://unitsofmeasure.org",
          "value": 6.1,
          "unit": "%",
          "code": "%"
        },
        "referenceRange": [
          {
            "low": {
              "value": 3.8,
              "code": "%",
              "system": "http://unitsofmeasure.org"
            }
          },
          {
            "high": {
              "value": 5.7,
              "code": "%",
              "system": "http://unitsofmeasure.org"
            }
          }
        ],
        "interpretation": [
          {
            "coding": [
              {
                "code": "H",
                "system": "http://terminology.hl7.org/CodeSystem/v3-ObservationInterpretation",
                "display": "High"
              }
            ]
          }
        ],
        "text": {
          "status": "generated",
          "div": "<div xmlns=\"http://www.w3.org/1999/xhtml\"><table class=\"hl7__eu__lab__report\"><tr><th>Test</th><th>27-May-2020</th><th>Reference&#xA0;Range</th><th>Unit</th></tr><tr><td>Hemoglobin A1c/Hemoglobin.total in Blood</td><td>6.1</td><td>3.8 - 5.7</td><td>H</td><td>%</td></tr></table></div>"
        },
        "status": "final",
        "subject": {
          "reference": "urn:uuid:ade0d60b-f14c-46dc-bbe0-b0f6a9d97183",
          "display": "Lazăr Florea"
        },
        "effectiveDateTime": "2020-05-27T13:56:29Z",
        "specimen": {
          "reference": "urn:uuid:e32e8771-d7b9-487b-994a-c74c4c6d3c9d"
        }
      }
    },
    {
      "fullUrl": "urn:uuid:f5d6c945-203b-406a-aa1d-e8905a7139d5",
      "resource": {
        "resourceType": "Observation",
        "id": "f5d6c945-203b-406a-aa1d-e8905a7139d5",
        "meta": {
          "profile": [
            "http://hl7.eu/fhir/laboratory/StructureDefinition/Observation-resultslab-eu-lab"
          ]
        },
        "performer": [
          {
            "display": "The Central European Lab"
          }
        ],
        "category": [
          {
            "coding": [
              {
                "system": "http://terminology.hl7.org/CodeSystem/observation-category",
                "code": "laboratory"
              }
            ]
          }
        ],
        "code": {
          "coding": [
            {
              "code": "2339-0",
              "system": "http://loinc.org",
              "display": "Glucose [Mass/volume] in Blood"
            }
          ],
          "text": "Glucose [Mass/volume] in Blood"
        },
        "valueQuantity": {
          "system": "http://unitsofmeasure.org",
          "value": 84.2,
          "unit": "mg/dL",
          "code": "mg/dL"
        },
        "referenceRange": [
          {
            "low": {
              "value": 70,
              "code": "mg/dL",
              "system": "http://unitsofmeasure.org"
            }
          },
          {
            "high": {
              "value": 140,
              "code": "mg/dL",
              "system": "http://unitsofmeasure.org"
            }
          }
        ],
        "text": {
          "status": "generated",
          "div": "<div xmlns=\"http://www.w3.org/1999/xhtml\"><table class=\"hl7__eu__lab__report\"><tr><th>Test</th><th>27-May-2020</th><th>Reference&#xA0;Range</th><th>Unit</th></tr><tr><td>Glucose [Mass/volume] in Blood</td><td>84.2</td><td>70 - 140</td><td></td><td>mg/dL</td></tr></table></div>"
        },
        "status": "final",
        "subject": {
          "reference": "urn:uuid:ade0d60b-f14c-46dc-bbe0-b0f6a9d97183",
          "display": "Lazăr Florea"
        },
        "effectiveDateTime": "2020-05-27T13:56:29Z",
        "specimen": {
          "reference": "urn:uuid:e32e8771-d7b9-487b-994a-c74c4c6d3c9d"
        }
      }
    },
    {
      "fullUrl": "urn:uuid:ded17022-2186-4635-8db4-0fe603a824a3",
      "resource": {
        "resourceType": "Observation",
        "id": "ded17022-2186-4635-8db4-0fe603a824a3",
        "meta": {
          "profile": [
            "http://hl7.eu/fhir/laboratory/StructureDefinition/Observation-resultslab-eu-lab"
          ]
        },
        "performer": [
          {
            "display": "The Central European Lab"
          }
        ],
        "category": [
          {
            "coding": [
              {
                "system": "http://terminology.hl7.org/CodeSystem/observation-category",
                "code": "laboratory"
              }
            ]
          }
        ],
        "code": {
          "coding": [
            {
              "code": "6299-2",
              "system": "http://loinc.org",
              "display": "Urea nitrogen [Mass/volume] in Blood"
            }
          ],
          "text": "Urea nitrogen [Mass/volume] in Blood"
        },
        "valueQuantity": {
          "system": "http://unitsofmeasure.org",
          "value": 8.7,
          "unit": "mg/dL",
          "code": "mg/dL"
        },
        "referenceRange": [
          {
            "low": {
              "value": 7,
              "code": "mg/dL",
              "system": "http://unitsofmeasure.org"
            }
          },
          {
            "high": {
              "value": 20,
              "code": "mg/dL",
              "system": "http://unitsofmeasure.org"
            }
          }
        ],
        "text": {
          "status": "generated",
          "div": "<div xmlns=\"http://www.w3.org/1999/xhtml\"><table class=\"hl7__eu__lab__report\"><tr><th>Test</th><th>27-May-2020</th><th>Reference&#xA0;Range</th><th>Unit</th></tr><tr><td>Urea nitrogen [Mass/volume] in Blood</td><td>8.7</td><td>7 - 20</td><td></td><td>mg/dL</td></tr></table></div>"
        },
        "status": "final",
        "subject": {
          "reference": "urn:uuid:ade0d60b-f14c-46dc-bbe0-b0f6a9d97183",
          "display": "Lazăr Florea"
        },
        "effectiveDateTime": "2020-05-27T13:56:29Z",
        "specimen": {
          "reference": "urn:uuid:e32e8771-d7b9-487b-994a-c74c4c6d3c9d"
        }
      }
    },
    {
      "fullUrl": "urn:uuid:503c3d2e-1e37-4ab7-9c1e-c918112fd4dc",
      "resource": {
        "resourceType": "Observation",
        "id": "503c3d2e-1e37-4ab7-9c1e-c918112fd4dc",
        "meta": {
          "profile": [
            "http://hl7.eu/fhir/laboratory/StructureDefinition/Observation-resultslab-eu-lab"
          ]
        },
        "performer": [
          {
            "display": "The Central European Lab"
          }
        ],
        "category": [
          {
            "coding": [
              {
                "system": "http://terminology.hl7.org/CodeSystem/observation-category",
                "code": "laboratory"
              }
            ]
          }
        ],
        "code": {
          "coding": [
            {
              "code": "38483-4",
              "system": "http://loinc.org",
              "display": "Creatinine [Mass/volume] in Blood"
            }
          ],
          "text": "Creatinine [Mass/volume] in Blood"
        },
        "valueQuantity": {
          "system": "http://unitsofmeasure.org",
          "value": 0.9,
          "unit": "mg/dL",
          "code": "mg/dL"
        },
        "referenceRange": [
          {
            "low": {
              "value": 0.9,
              "code": "mg/dL",
              "system": "http://unitsofmeasure.org"
            }
          },
          {
            "high": {
              "value": 1.3,
              "code": "mg/dL",
              "system": "http://unitsofmeasure.org"
            }
          }
        ],
        "text": {
          "status": "generated",
          "div": "<div xmlns=\"http://www.w3.org/1999/xhtml\"><table class=\"hl7__eu__lab__report\"><tr><th>Test</th><th>27-May-2020</th><th>Reference&#xA0;Range</th><th>Unit</th></tr><tr><td>Creatinine [Mass/volume] in Blood</td><td>0.9</td><td>0.9 - 1.3</td><td></td><td>mg/dL</td></tr></table></div>"
        },
        "status": "final",
        "subject": {
          "reference": "urn:uuid:ade0d60b-f14c-46dc-bbe0-b0f6a9d97183",
          "display": "Lazăr Florea"
        },
        "effectiveDateTime": "2020-05-27T13:56:29Z",
        "specimen": {
          "reference": "urn:uuid:e32e8771-d7b9-487b-994a-c74c4c6d3c9d"
        }
      }
    },
    {
      "fullUrl": "urn:uuid:1eb0e5cc-b21f-4550-8b79-d57deccd1317",
      "resource": {
        "resourceType": "Observation",
        "id": "1eb0e5cc-b21f-4550-8b79-d57deccd1317",
        "meta": {
          "profile": [
            "http://hl7.eu/fhir/laboratory/StructureDefinition/Observation-resultslab-eu-lab"
          ]
        },
        "performer": [
          {
            "display": "The Central European Lab"
          }
        ],
        "category": [
          {
            "coding": [
              {
                "system": "http://terminology.hl7.org/CodeSystem/observation-category",
                "code": "laboratory"
              }
            ]
          }
        ],
        "code": {
          "coding": [
            {
              "code": "49765-1",
              "system": "http://loinc.org",
              "display": "Calcium [Mass/volume] in Blood"
            }
          ],
          "text": "Calcium [Mass/volume] in Blood"
        },
        "valueQuantity": {
          "system": "http://unitsofmeasure.org",
          "value": 9,
          "unit": "mg/dL",
          "code": "mg/dL"
        },
        "referenceRange": [
          {
            "low": {
              "value": 8.5,
              "code": "mg/dL",
              "system": "http://unitsofmeasure.org"
            }
          },
          {
            "high": {
              "value": 10.5,
              "code": "mg/dL",
              "system": "http://unitsofmeasure.org"
            }
          }
        ],
        "text": {
          "status": "generated",
          "div": "<div xmlns=\"http://www.w3.org/1999/xhtml\"><table class=\"hl7__eu__lab__report\"><tr><th>Test</th><th>27-May-2020</th><th>Reference&#xA0;Range</th><th>Unit</th></tr><tr><td>Calcium [Mass/volume] in Blood</td><td>9.0</td><td>8.5 - 10.5</td><td></td><td>mg/dL</td></tr></table></div>"
        },
        "status": "final",
        "subject": {
          "reference": "urn:uuid:ade0d60b-f14c-46dc-bbe0-b0f6a9d97183",
          "display": "Lazăr Florea"
        },
        "effectiveDateTime": "2020-05-27T13:56:29Z",
        "specimen": {
          "reference": "urn:uuid:e32e8771-d7b9-487b-994a-c74c4c6d3c9d"
        }
      }
    },
    {
      "fullUrl": "urn:uuid:62755be0-c4a0-446b-9fe9-9178c73340cd",
      "resource": {
        "resourceType": "Observation",
        "id": "62755be0-c4a0-446b-9fe9-9178c73340cd",
        "meta": {
          "profile": [
            "http://hl7.eu/fhir/laboratory/StructureDefinition/Observation-resultslab-eu-lab"
          ]
        },
        "performer": [
          {
            "display": "The Central European Lab"
          }
        ],
        "category": [
          {
            "coding": [
              {
                "system": "http://terminology.hl7.org/CodeSystem/observation-category",
                "code": "laboratory"
              }
            ]
          }
        ],
        "code": {
          "coding": [
            {
              "code": "2947-0",
              "system": "http://loinc.org",
              "display": "Sodium [Moles/volume] in Blood"
            }
          ],
          "text": "Sodium [Moles/volume] in Blood"
        },
        "valueQuantity": {
          "system": "http://unitsofmeasure.org",
          "value": 139.6,
          "unit": "mmol/L",
          "code": "mmol/L"
        },
        "referenceRange": [
          {
            "low": {
              "value": 135,
              "code": "mmol/L",
              "system": "http://unitsofmeasure.org"
            }
          },
          {
            "high": {
              "value": 145,
              "code": "mmol/L",
              "system": "http://unitsofmeasure.org"
            }
          }
        ],
        "text": {
          "status": "generated",
          "div": "<div xmlns=\"http://www.w3.org/1999/xhtml\"><table class=\"hl7__eu__lab__report\"><tr><th>Test</th><th>27-May-2020</th><th>Reference&#xA0;Range</th><th>Unit</th></tr><tr><td>Sodium [Moles/volume] in Blood</td><td>139.6</td><td>135 - 145</td><td></td><td>mmol/L</td></tr></table></div>"
        },
        "status": "final",
        "subject": {
          "reference": "urn:uuid:ade0d60b-f14c-46dc-bbe0-b0f6a9d97183",
          "display": "Lazăr Florea"
        },
        "effectiveDateTime": "2020-05-27T13:56:29Z",
        "specimen": {
          "reference": "urn:uuid:e32e8771-d7b9-487b-994a-c74c4c6d3c9d"
        }
      }
    },
    {
      "fullUrl": "urn:uuid:43d06787-8f04-43b2-816b-c060f070beff",
      "resource": {
        "resourceType": "Observation",
        "id": "43d06787-8f04-43b2-816b-c060f070beff",
        "meta": {
          "profile": [
            "http://hl7.eu/fhir/laboratory/StructureDefinition/Observation-resultslab-eu-lab"
          ]
        },
        "performer": [
          {
            "display": "The Central European Lab"
          }
        ],
        "category": [
          {
            "coding": [
              {
                "system": "http://terminology.hl7.org/CodeSystem/observation-category",
                "code": "laboratory"
              }
            ]
          }
        ],
        "code": {
          "coding": [
            {
              "code": "6298-4",
              "system": "http://loinc.org",
              "display": "Potassium [Moles/volume] in Blood"
            }
          ],
          "text": "Potassium [Moles/volume] in Blood"
        },
        "valueQuantity": {
          "system": "http://unitsofmeasure.org",
          "value": 5.1,
          "unit": "mmol/L",
          "code": "mmol/L"
        },
        "referenceRange": [
          {
            "low": {
              "value": 3.5,
              "code": "mmol/L",
              "system": "http://unitsofmeasure.org"
            }
          },
          {
            "high": {
              "value": 5.3,
              "code": "mmol/L",
              "system": "http://unitsofmeasure.org"
            }
          }
        ],
        "text": {
          "status": "generated",
          "div": "<div xmlns=\"http://www.w3.org/1999/xhtml\"><table class=\"hl7__eu__lab__report\"><tr><th>Test</th><th>27-May-2020</th><th>Reference&#xA0;Range</th><th>Unit</th></tr><tr><td>Potassium [Moles/volume] in Blood</td><td>5.1</td><td>3.5 - 5.3</td><td></td><td>mmol/L</td></tr></table></div>"
        },
        "status": "final",
        "subject": {
          "reference": "urn:uuid:ade0d60b-f14c-46dc-bbe0-b0f6a9d97183",
          "display": "Lazăr Florea"
        },
        "effectiveDateTime": "2020-05-27T13:56:29Z",
        "specimen": {
          "reference": "urn:uuid:e32e8771-d7b9-487b-994a-c74c4c6d3c9d"
        }
      }
    },
    {
      "fullUrl": "urn:uuid:f0cbd70a-fba2-4aba-a330-726c70000ef2",
      "resource": {
        "resourceType": "Observation",
        "id": "f0cbd70a-fba2-4aba-a330-726c70000ef2",
        "meta": {
          "profile": [
            "http://hl7.eu/fhir/laboratory/StructureDefinition/Observation-resultslab-eu-lab"
          ]
        },
        "performer": [
          {
            "display": "The Central European Lab"
          }
        ],
        "category": [
          {
            "coding": [
              {
                "system": "http://terminology.hl7.org/CodeSystem/observation-category",
                "code": "laboratory"
              }
            ]
          }
        ],
        "code": {
          "coding": [
            {
              "code": "2069-3",
              "system": "http://loinc.org",
              "display": "Chloride [Moles/volume] in Blood"
            }
          ],
          "text": "Chloride [Moles/volume] in Blood"
        },
        "valueQuantity": {
          "system": "http://unitsofmeasure.org",
          "value": 108.2,
          "unit": "mmol/L",
          "code": "mmol/L"
        },
        "referenceRange": [
          {
            "low": {
              "value": 98,
              "code": "mmol/L",
              "system": "http://unitsofmeasure.org"
            }
          },
          {
            "high": {
              "value": 109,
              "code": "mmol/L",
              "system": "http://unitsofmeasure.org"
            }
          }
        ],
        "text": {
          "status": "generated",
          "div": "<div xmlns=\"http://www.w3.org/1999/xhtml\"><table class=\"hl7__eu__lab__report\"><tr><th>Test</th><th>27-May-2020</th><th>Reference&#xA0;Range</th><th>Unit</th></tr><tr><td>Chloride [Moles/volume] in Blood</td><td>108.2</td><td>98 - 109</td><td></td><td>mmol/L</td></tr></table></div>"
        },
        "status": "final",
        "subject": {
          "reference": "urn:uuid:ade0d60b-f14c-46dc-bbe0-b0f6a9d97183",
          "display": "Lazăr Florea"
        },
        "effectiveDateTime": "2020-05-27T13:56:29Z",
        "specimen": {
          "reference": "urn:uuid:e32e8771-d7b9-487b-994a-c74c4c6d3c9d"
        }
      }
    },
    {
      "fullUrl": "urn:uuid:affbff75-3e9a-40b6-9e4a-ebc69078eae3",
      "resource": {
        "resourceType": "Observation",
        "id": "affbff75-3e9a-40b6-9e4a-ebc69078eae3",
        "meta": {
          "profile": [
            "http://hl7.eu/fhir/laboratory/StructureDefinition/Observation-resultslab-eu-lab"
          ]
        },
        "performer": [
          {
            "display": "The Central European Lab"
          }
        ],
        "category": [
          {
            "coding": [
              {
                "system": "http://terminology.hl7.org/CodeSystem/observation-category",
                "code": "laboratory"
              }
            ]
          }
        ],
        "code": {
          "coding": [
            {
              "code": "20565-8",
              "system": "http://loinc.org",
              "display": "Carbon dioxide, total [Moles/volume] in Blood"
            }
          ],
          "text": "Carbon dioxide, total [Moles/volume] in Blood"
        },
        "valueQuantity": {
          "system": "http://unitsofmeasure.org",
          "value": 25.2,
          "unit": "mmol/L",
          "code": "mmol/L"
        },
        "referenceRange": [
          {
            "low": {
              "value": 22,
              "code": "mmol/L",
              "system": "http://unitsofmeasure.org"
            }
          },
          {
            "high": {
              "value": 32,
              "code": "mmol/L",
              "system": "http://unitsofmeasure.org"
            }
          }
        ],
        "text": {
          "status": "generated",
          "div": "<div xmlns=\"http://www.w3.org/1999/xhtml\"><table class=\"hl7__eu__lab__report\"><tr><th>Test</th><th>27-May-2020</th><th>Reference&#xA0;Range</th><th>Unit</th></tr><tr><td>Carbon dioxide, total [Moles/volume] in Blood</td><td>25.2</td><td>22 - 32</td><td></td><td>mmol/L</td></tr></table></div>"
        },
        "status": "final",
        "subject": {
          "reference": "urn:uuid:ade0d60b-f14c-46dc-bbe0-b0f6a9d97183",
          "display": "Lazăr Florea"
        },
        "effectiveDateTime": "2020-05-27T13:56:29Z",
        "specimen": {
          "reference": "urn:uuid:e32e8771-d7b9-487b-994a-c74c4c6d3c9d"
        }
      }
    },
    {
      "fullUrl": "urn:uuid:233dbff9-5dce-4fcd-9918-a308c2c8a523",
      "resource": {
        "resourceType": "Observation",
        "id": "233dbff9-5dce-4fcd-9918-a308c2c8a523",
        "meta": {
          "profile": [
            "http://hl7.eu/fhir/laboratory/StructureDefinition/Observation-resultslab-eu-lab"
          ]
        },
        "performer": [
          {
            "display": "The Central European Lab"
          }
        ],
        "category": [
          {
            "coding": [
              {
                "system": "http://terminology.hl7.org/CodeSystem/observation-category",
                "code": "laboratory"
              }
            ]
          }
        ],
        "code": {
          "coding": [
            {
              "code": "6690-2",
              "system": "http://loinc.org",
              "display": "Leukocytes [#/volume] in Blood by Automated count"
            }
          ],
          "text": "Leukocytes [#/volume] in Blood by Automated count"
        },
        "valueQuantity": {
          "system": "http://unitsofmeasure.org",
          "value": 10.3,
          "unit": "10*3/uL",
          "code": "10*3/uL"
        },
        "referenceRange": [
          {
            "low": {
              "value": 4,
              "code": "10*3/uL",
              "system": "http://unitsofmeasure.org"
            }
          },
          {
            "high": {
              "value": 11,
              "code": "10*3/uL",
              "system": "http://unitsofmeasure.org"
            }
          }
        ],
        "text": {
          "status": "generated",
          "div": "<div xmlns=\"http://www.w3.org/1999/xhtml\"><table class=\"hl7__eu__lab__report\"><tr><th>Test</th><th>27-May-2020</th><th>Reference&#xA0;Range</th><th>Unit</th></tr><tr><td>Leukocytes [#/volume] in Blood by Automated count</td><td>10.3</td><td>4 - 11</td><td></td><td>10*3/uL</td></tr></table></div>"
        },
        "status": "final",
        "subject": {
          "reference": "urn:uuid:ade0d60b-f14c-46dc-bbe0-b0f6a9d97183",
          "display": "Lazăr Florea"
        },
        "effectiveDateTime": "2020-05-27T13:56:29Z",
        "specimen": {
          "reference": "urn:uuid:e32e8771-d7b9-487b-994a-c74c4c6d3c9d"
        }
      }
    },
    {
      "fullUrl": "urn:uuid:009737f1-53ce-4c61-8696-c2b70e098a78",
      "resource": {
        "resourceType": "Observation",
        "id": "009737f1-53ce-4c61-8696-c2b70e098a78",
        "meta": {
          "profile": [
            "http://hl7.eu/fhir/laboratory/StructureDefinition/Observation-resultslab-eu-lab"
          ]
        },
        "performer": [
          {
            "display": "The Central European Lab"
          }
        ],
        "category": [
          {
            "coding": [
              {
                "system": "http://terminology.hl7.org/CodeSystem/observation-category",
                "code": "laboratory"
              }
            ]
          }
        ],
        "code": {
          "coding": [
            {
              "code": "789-8",
              "system": "http://loinc.org",
              "display": "Erythrocytes [#/volume] in Blood by Automated count"
            }
          ],
          "text": "Erythrocytes [#/volume] in Blood by Automated count"
        },
        "valueQuantity": {
          "system": "http://unitsofmeasure.org",
          "value": 4.8,
          "unit": "10*6/uL",
          "code": "10*6/uL"
        },
        "referenceRange": [
          {
            "low": {
              "value": 4.3,
              "code": "10*6/uL",
              "system": "http://unitsofmeasure.org"
            }
          },
          {
            "high": {
              "value": 6.1,
              "code": "10*6/uL",
              "system": "http://unitsofmeasure.org"
            }
          }
        ],
        "text": {
          "status": "generated",
          "div": "<div xmlns=\"http://www.w3.org/1999/xhtml\"><table class=\"hl7__eu__lab__report\"><tr><th>Test</th><th>27-May-2020</th><th>Reference&#xA0;Range</th><th>Unit</th></tr><tr><td>Erythrocytes [#/volume] in Blood by Automated count</td><td>4.8</td><td>4.3 - 6.1</td><td></td><td>10*6/uL</td></tr></table></div>"
        },
        "status": "final",
        "subject": {
          "reference": "urn:uuid:ade0d60b-f14c-46dc-bbe0-b0f6a9d97183",
          "display": "Lazăr Florea"
        },
        "effectiveDateTime": "2020-05-27T13:56:29Z",
        "specimen": {
          "reference": "urn:uuid:e32e8771-d7b9-487b-994a-c74c4c6d3c9d"
        }
      }
    },
    {
      "fullUrl": "urn:uuid:4f6f8399-a835-4d0f-b2a2-a860ad180f40",
      "resource": {
        "resourceType": "Observation",
        "id": "4f6f8399-a835-4d0f-b2a2-a860ad180f40",
        "meta": {
          "profile": [
            "http://hl7.eu/fhir/laboratory/StructureDefinition/Observation-resultslab-eu-lab"
          ]
        },
        "performer": [
          {
            "display": "The Central European Lab"
          }
        ],
        "category": [
          {
            "coding": [
              {
                "system": "http://terminology.hl7.org/CodeSystem/observation-category",
                "code": "laboratory"
              }
            ]
          }
        ],
        "code": {
          "coding": [
            {
              "code": "718-7",
              "system": "http://loinc.org",
              "display": "Hemoglobin [Mass/volume] in Blood"
            }
          ],
          "text": "Hemoglobin [Mass/volume] in Blood"
        },
        "valueQuantity": {
          "system": "http://unitsofmeasure.org",
          "value": 15.5,
          "unit": "g/dL",
          "code": "g/dL"
        },
        "referenceRange": [
          {
            "low": {
              "value": 13.5,
              "code": "g/dL",
              "system": "http://unitsofmeasure.org"
            }
          },
          {
            "high": {
              "value": 17.5,
              "code": "g/dL",
              "system": "http://unitsofmeasure.org"
            }
          }
        ],
        "text": {
          "status": "generated",
          "div": "<div xmlns=\"http://www.w3.org/1999/xhtml\"><table class=\"hl7__eu__lab__report\"><tr><th>Test</th><th>27-May-2020</th><th>Reference&#xA0;Range</th><th>Unit</th></tr><tr><td>Hemoglobin [Mass/volume] in Blood</td><td>15.5</td><td>13.5 - 17.5</td><td></td><td>g/dL</td></tr></table></div>"
        },
        "status": "final",
        "subject": {
          "reference": "urn:uuid:ade0d60b-f14c-46dc-bbe0-b0f6a9d97183",
          "display": "Lazăr Florea"
        },
        "effectiveDateTime": "2020-05-27T13:56:29Z",
        "specimen": {
          "reference": "urn:uuid:e32e8771-d7b9-487b-994a-c74c4c6d3c9d"
        }
      }
    },
    {
      "fullUrl": "urn:uuid:47e832da-7ac9-48d9-80f0-4ea8e9aeeccd",
      "resource": {
        "resourceType": "Observation",
        "id": "47e832da-7ac9-48d9-80f0-4ea8e9aeeccd",
        "meta": {
          "profile": [
            "http://hl7.eu/fhir/laboratory/StructureDefinition/Observation-resultslab-eu-lab"
          ]
        },
        "performer": [
          {
            "display": "The Central European Lab"
          }
        ],
        "category": [
          {
            "coding": [
              {
                "system": "http://terminology.hl7.org/CodeSystem/observation-category",
                "code": "laboratory"
              }
            ]
          }
        ],
        "code": {
          "coding": [
            {
              "code": "4544-3",
              "system": "http://loinc.org",
              "display": "Hematocrit [Volume Fraction] of Blood by Automated count"
            }
          ],
          "text": "Hematocrit [Volume Fraction] of Blood by Automated count"
        },
        "valueQuantity": {
          "system": "http://unitsofmeasure.org",
          "value": 42.1,
          "unit": "%",
          "code": "%"
        },
        "referenceRange": [
          {
            "low": {
              "value": 37,
              "code": "%",
              "system": "http://unitsofmeasure.org"
            }
          },
          {
            "high": {
              "value": 52,
              "code": "%",
              "system": "http://unitsofmeasure.org"
            }
          }
        ],
        "text": {
          "status": "generated",
          "div": "<div xmlns=\"http://www.w3.org/1999/xhtml\"><table class=\"hl7__eu__lab__report\"><tr><th>Test</th><th>27-May-2020</th><th>Reference&#xA0;Range</th><th>Unit</th></tr><tr><td>Hematocrit [Volume Fraction] of Blood by Automated count</td><td>42.1</td><td>37 - 52</td><td></td><td>%</td></tr></table></div>"
        },
        "status": "final",
        "subject": {
          "reference": "urn:uuid:ade0d60b-f14c-46dc-bbe0-b0f6a9d97183",
          "display": "Lazăr Florea"
        },
        "effectiveDateTime": "2020-05-27T13:56:29Z",
        "specimen": {
          "reference": "urn:uuid:e32e8771-d7b9-487b-994a-c74c4c6d3c9d"
        }
      }
    },
    {
      "fullUrl": "urn:uuid:6e3acd55-64cc-4446-a6a9-f6b38dcb4d9e",
      "resource": {
        "resourceType": "Observation",
        "id": "6e3acd55-64cc-4446-a6a9-f6b38dcb4d9e",
        "meta": {
          "profile": [
            "http://hl7.eu/fhir/laboratory/StructureDefinition/Observation-resultslab-eu-lab"
          ]
        },
        "performer": [
          {
            "display": "The Central European Lab"
          }
        ],
        "category": [
          {
            "coding": [
              {
                "system": "http://terminology.hl7.org/CodeSystem/observation-category",
                "code": "laboratory"
              }
            ]
          }
        ],
        "code": {
          "coding": [
            {
              "code": "787-2",
              "system": "http://loinc.org",
              "display": "MCV [Entitic volume] by Automated count"
            }
          ],
          "text": "MCV [Entitic volume] by Automated count"
        },
        "valueQuantity": {
          "system": "http://unitsofmeasure.org",
          "value": 90.9,
          "unit": "fL",
          "code": "fL"
        },
        "referenceRange": [
          {
            "low": {
              "value": 76,
              "code": "fL",
              "system": "http://unitsofmeasure.org"
            }
          },
          {
            "high": {
              "value": 98,
              "code": "fL",
              "system": "http://unitsofmeasure.org"
            }
          }
        ],
        "text": {
          "status": "generated",
          "div": "<div xmlns=\"http://www.w3.org/1999/xhtml\"><table class=\"hl7__eu__lab__report\"><tr><th>Test</th><th>27-May-2020</th><th>Reference&#xA0;Range</th><th>Unit</th></tr><tr><td>MCV [Entitic volume] by Automated count</td><td>90.9</td><td>76 - 98</td><td></td><td>fL</td></tr></table></div>"
        },
        "status": "final",
        "subject": {
          "reference": "urn:uuid:ade0d60b-f14c-46dc-bbe0-b0f6a9d97183",
          "display": "Lazăr Florea"
        },
        "effectiveDateTime": "2020-05-27T13:56:29Z",
        "specimen": {
          "reference": "urn:uuid:e32e8771-d7b9-487b-994a-c74c4c6d3c9d"
        }
      }
    },
    {
      "fullUrl": "urn:uuid:b7d8db05-0508-4486-8132-5d85452c52d0",
      "resource": {
        "resourceType": "Observation",
        "id": "b7d8db05-0508-4486-8132-5d85452c52d0",
        "meta": {
          "profile": [
            "http://hl7.eu/fhir/laboratory/StructureDefinition/Observation-resultslab-eu-lab"
          ]
        },
        "performer": [
          {
            "display": "The Central European Lab"
          }
        ],
        "category": [
          {
            "coding": [
              {
                "system": "http://terminology.hl7.org/CodeSystem/observation-category",
                "code": "laboratory"
              }
            ]
          }
        ],
        "code": {
          "coding": [
            {
              "code": "785-6",
              "system": "http://loinc.org",
              "display": "MCH [Entitic mass] by Automated count"
            }
          ],
          "text": "MCH [Entitic mass] by Automated count"
        },
        "valueQuantity": {
          "system": "http://unitsofmeasure.org",
          "value": 32.7,
          "unit": "pg",
          "code": "pg"
        },
        "referenceRange": [
          {
            "low": {
              "value": 27,
              "code": "pg",
              "system": "http://unitsofmeasure.org"
            }
          },
          {
            "high": {
              "value": 34,
              "code": "pg",
              "system": "http://unitsofmeasure.org"
            }
          }
        ],
        "text": {
          "status": "generated",
          "div": "<div xmlns=\"http://www.w3.org/1999/xhtml\"><table class=\"hl7__eu__lab__report\"><tr><th>Test</th><th>27-May-2020</th><th>Reference&#xA0;Range</th><th>Unit</th></tr><tr><td>MCH [Entitic mass] by Automated count</td><td>32.7</td><td>27 - 34</td><td></td><td>pg</td></tr></table></div>"
        },
        "status": "final",
        "subject": {
          "reference": "urn:uuid:ade0d60b-f14c-46dc-bbe0-b0f6a9d97183",
          "display": "Lazăr Florea"
        },
        "effectiveDateTime": "2020-05-27T13:56:29Z",
        "specimen": {
          "reference": "urn:uuid:e32e8771-d7b9-487b-994a-c74c4c6d3c9d"
        }
      }
    },
    {
      "fullUrl": "urn:uuid:33df1255-4a35-45d5-8b30-f9c5f37a152a",
      "resource": {
        "resourceType": "Observation",
        "id": "33df1255-4a35-45d5-8b30-f9c5f37a152a",
        "meta": {
          "profile": [
            "http://hl7.eu/fhir/laboratory/StructureDefinition/Observation-resultslab-eu-lab"
          ]
        },
        "performer": [
          {
            "display": "The Central European Lab"
          }
        ],
        "category": [
          {
            "coding": [
              {
                "system": "http://terminology.hl7.org/CodeSystem/observation-category",
                "code": "laboratory"
              }
            ]
          }
        ],
        "code": {
          "coding": [
            {
              "code": "786-4",
              "system": "http://loinc.org",
              "display": "MCHC [Mass/volume] by Automated count"
            }
          ],
          "text": "MCHC [Mass/volume] by Automated count"
        },
        "valueQuantity": {
          "system": "http://unitsofmeasure.org",
          "value": 34.6,
          "unit": "g/dL",
          "code": "g/dL"
        },
        "referenceRange": [
          {
            "low": {
              "value": 31,
              "code": "g/dL",
              "system": "http://unitsofmeasure.org"
            }
          },
          {
            "high": {
              "value": 36,
              "code": "g/dL",
              "system": "http://unitsofmeasure.org"
            }
          }
        ],
        "text": {
          "status": "generated",
          "div": "<div xmlns=\"http://www.w3.org/1999/xhtml\"><table class=\"hl7__eu__lab__report\"><tr><th>Test</th><th>27-May-2020</th><th>Reference&#xA0;Range</th><th>Unit</th></tr><tr><td>MCHC [Mass/volume] by Automated count</td><td>34.6</td><td>31 - 36</td><td></td><td>g/dL</td></tr></table></div>"
        },
        "status": "final",
        "subject": {
          "reference": "urn:uuid:ade0d60b-f14c-46dc-bbe0-b0f6a9d97183",
          "display": "Lazăr Florea"
        },
        "effectiveDateTime": "2020-05-27T13:56:29Z",
        "specimen": {
          "reference": "urn:uuid:e32e8771-d7b9-487b-994a-c74c4c6d3c9d"
        }
      }
    },
    {
      "fullUrl": "urn:uuid:48c23345-6e98-4975-ac73-fd67d2af3517",
      "resource": {
        "resourceType": "Observation",
        "id": "48c23345-6e98-4975-ac73-fd67d2af3517",
        "meta": {
          "profile": [
            "http://hl7.eu/fhir/laboratory/StructureDefinition/Observation-resultslab-eu-lab"
          ]
        },
        "performer": [
          {
            "display": "The Central European Lab"
          }
        ],
        "category": [
          {
            "coding": [
              {
                "system": "http://terminology.hl7.org/CodeSystem/observation-category",
                "code": "laboratory"
              }
            ]
          }
        ],
        "code": {
          "coding": [
            {
              "code": "21000-5",
              "system": "http://loinc.org",
              "display": "Erythrocyte distribution width [Entitic volume] by Automated count"
            }
          ],
          "text": "Erythrocyte distribution width [Entitic volume] by Automated count"
        },
        "valueQuantity": {
          "system": "http://unitsofmeasure.org",
          "value": 44,
          "unit": "fL",
          "code": "fL"
        },
        "referenceRange": [
          {
            "low": {
              "value": 39,
              "code": "fL",
              "system": "http://unitsofmeasure.org"
            }
          },
          {
            "high": {
              "value": 55,
              "code": "fL",
              "system": "http://unitsofmeasure.org"
            }
          }
        ],
        "text": {
          "status": "generated",
          "div": "<div xmlns=\"http://www.w3.org/1999/xhtml\"><table class=\"hl7__eu__lab__report\"><tr><th>Test</th><th>27-May-2020</th><th>Reference&#xA0;Range</th><th>Unit</th></tr><tr><td>Erythrocyte distribution width [Entitic volume] by Automated count</td><td>44.0</td><td>39 - 55</td><td></td><td>fL</td></tr></table></div>"
        },
        "status": "final",
        "subject": {
          "reference": "urn:uuid:ade0d60b-f14c-46dc-bbe0-b0f6a9d97183",
          "display": "Lazăr Florea"
        },
        "effectiveDateTime": "2020-05-27T13:56:29Z",
        "specimen": {
          "reference": "urn:uuid:e32e8771-d7b9-487b-994a-c74c4c6d3c9d"
        }
      }
    },
    {
      "fullUrl": "urn:uuid:58a7f3d8-e7e4-4c07-9c92-7f92b0004ae9",
      "resource": {
        "resourceType": "Observation",
        "id": "58a7f3d8-e7e4-4c07-9c92-7f92b0004ae9",
        "meta": {
          "profile": [
            "http://hl7.eu/fhir/laboratory/StructureDefinition/Observation-resultslab-eu-lab"
          ]
        },
        "performer": [
          {
            "display": "The Central European Lab"
          }
        ],
        "category": [
          {
            "coding": [
              {
                "system": "http://terminology.hl7.org/CodeSystem/observation-category",
                "code": "laboratory"
              }
            ]
          }
        ],
        "code": {
          "coding": [
            {
              "code": "777-3",
              "system": "http://loinc.org",
              "display": "Platelets [#/volume] in Blood by Automated count"
            }
          ],
          "text": "Platelets [#/volume] in Blood by Automated count"
        },
        "valueQuantity": {
          "system": "http://unitsofmeasure.org",
          "value": 409,
          "unit": "10*3/uL",
          "code": "10*3/uL"
        },
        "referenceRange": [
          {
            "low": {
              "value": 140,
              "code": "10*3/uL",
              "system": "http://unitsofmeasure.org"
            }
          },
          {
            "high": {
              "value": 424,
              "code": "10*3/uL",
              "system": "http://unitsofmeasure.org"
            }
          }
        ],
        "text": {
          "status": "generated",
          "div": "<div xmlns=\"http://www.w3.org/1999/xhtml\"><table class=\"hl7__eu__lab__report\"><tr><th>Test</th><th>27-May-2020</th><th>Reference&#xA0;Range</th><th>Unit</th></tr><tr><td>Platelets [#/volume] in Blood by Automated count</td><td>409.0</td><td>140 - 424</td><td></td><td>10*3/uL</td></tr></table></div>"
        },
        "status": "final",
        "subject": {
          "reference": "urn:uuid:ade0d60b-f14c-46dc-bbe0-b0f6a9d97183",
          "display": "Lazăr Florea"
        },
        "effectiveDateTime": "2020-05-27T13:56:29Z",
        "specimen": {
          "reference": "urn:uuid:e32e8771-d7b9-487b-994a-c74c4c6d3c9d"
        }
      }
    },
    {
      "fullUrl": "urn:uuid:5d24f7fb-8bb0-4e0e-bdb7-94c3bbf5239a",
      "resource": {
        "resourceType": "Observation",
        "id": "5d24f7fb-8bb0-4e0e-bdb7-94c3bbf5239a",
        "meta": {
          "profile": [
            "http://hl7.eu/fhir/laboratory/StructureDefinition/Observation-resultslab-eu-lab"
          ]
        },
        "performer": [
          {
            "display": "The Central European Lab"
          }
        ],
        "category": [
          {
            "coding": [
              {
                "system": "http://terminology.hl7.org/CodeSystem/observation-category",
                "code": "laboratory"
              }
            ]
          }
        ],
        "code": {
          "coding": [
            {
              "code": "32207-3",
              "system": "http://loinc.org",
              "display": "Platelet distribution width [Entitic volume] in Blood by Automated count"
            }
          ],
          "text": "Platelet distribution width [Entitic volume] in Blood by Automated count"
        },
        "valueQuantity": {
          "system": "http://unitsofmeasure.org",
          "value": 155.5,
          "unit": "fL",
          "code": "fL"
        },
        "referenceRange": [
          {
            "low": {
              "value": 13.4,
              "code": "fL",
              "system": "http://unitsofmeasure.org"
            }
          },
          {
            "high": {
              "value": 17.4,
              "code": "fL",
              "system": "http://unitsofmeasure.org"
            }
          }
        ],
        "interpretation": [
          {
            "coding": [
              {
                "code": "H",
                "system": "http://terminology.hl7.org/CodeSystem/v3-ObservationInterpretation",
                "display": "High"
              }
            ]
          }
        ],
        "text": {
          "status": "generated",
          "div": "<div xmlns=\"http://www.w3.org/1999/xhtml\"><table class=\"hl7__eu__lab__report\"><tr><th>Test</th><th>27-May-2020</th><th>Reference&#xA0;Range</th><th>Unit</th></tr><tr><td>Platelet distribution width [Entitic volume] in Blood by Automated count</td><td>155.5</td><td>13.4 - 17.4</td><td>H</td><td>fL</td></tr></table></div>"
        },
        "status": "final",
        "subject": {
          "reference": "urn:uuid:ade0d60b-f14c-46dc-bbe0-b0f6a9d97183",
          "display": "Lazăr Florea"
        },
        "effectiveDateTime": "2020-05-27T13:56:29Z",
        "specimen": {
          "reference": "urn:uuid:e32e8771-d7b9-487b-994a-c74c4c6d3c9d"
        }
      }
    },
    {
      "fullUrl": "urn:uuid:64fcd81f-6be1-4716-9896-9dbed46f776a",
      "resource": {
        "resourceType": "Observation",
        "id": "64fcd81f-6be1-4716-9896-9dbed46f776a",
        "meta": {
          "profile": [
            "http://hl7.eu/fhir/laboratory/StructureDefinition/Observation-resultslab-eu-lab"
          ]
        },
        "performer": [
          {
            "display": "The Central European Lab"
          }
        ],
        "category": [
          {
            "coding": [
              {
                "system": "http://terminology.hl7.org/CodeSystem/observation-category",
                "code": "laboratory"
              }
            ]
          }
        ],
        "code": {
          "coding": [
            {
              "code": "32623-1",
              "system": "http://loinc.org",
              "display": "Platelet mean volume [Entitic volume] in Blood by Automated count"
            }
          ],
          "text": "Platelet mean volume [Entitic volume] in Blood by Automated count"
        },
        "valueQuantity": {
          "system": "http://unitsofmeasure.org",
          "value": 9.7,
          "unit": "fL",
          "code": "fL"
        },
        "referenceRange": [
          {
            "low": {
              "value": 7.2,
              "code": "fL",
              "system": "http://unitsofmeasure.org"
            }
          },
          {
            "high": {
              "value": 13.8,
              "code": "fL",
              "system": "http://unitsofmeasure.org"
            }
          }
        ],
        "text": {
          "status": "generated",
          "div": "<div xmlns=\"http://www.w3.org/1999/xhtml\"><table class=\"hl7__eu__lab__report\"><tr><th>Test</th><th>27-May-2020</th><th>Reference&#xA0;Range</th><th>Unit</th></tr><tr><td>Platelet mean volume [Entitic volume] in Blood by Automated count</td><td>9.7</td><td>7.2 - 13.8</td><td></td><td>fL</td></tr></table></div>"
        },
        "status": "final",
        "subject": {
          "reference": "urn:uuid:ade0d60b-f14c-46dc-bbe0-b0f6a9d97183",
          "display": "Lazăr Florea"
        },
        "effectiveDateTime": "2020-05-27T13:56:29Z",
        "specimen": {
          "reference": "urn:uuid:e32e8771-d7b9-487b-994a-c74c4c6d3c9d"
        }
      }
    },
    {
      "fullUrl": "urn:uuid:3e31f45a-6f0e-4f8c-bcaa-a28c2ded9195",
      "resource": {
        "resourceType": "Device",
        "id": "3e31f45a-6f0e-4f8c-bcaa-a28c2ded9195",
        "deviceName": [
          {
            "name": "SYNDERAI Synthetic Generator",
            "type": "manufacturer-name"
          }
        ],
        "version": [
          {
            "value": "5.0"
          }
        ],
        "text": {
          "status": "generated",
          "div": "<div xmlns=\"http://www.w3.org/1999/xhtml\">SYNDERAI Synthetic Generator v5.0</div>"
        },
        "status": "active\"",
        "distinctIdentifier": "synderai-generator-50",
        "manufacturer": "SYNDERAI Project"
      }
    },
    {
      "fullUrl": "urn:uuid:14db67f1-396d-4649-bdce-91ba9ff8e4b5",
      "resource": {
        "resourceType": "Provenance",
        "id": "14db67f1-396d-4649-bdce-91ba9ff8e4b5",
        "target": [
          {
            "reference": "Patient/ade0d60b-f14c-46dc-bbe0-b0f6a9d97183"
          },
          {
            "reference": "Bundle/1ebed79a-1978-434d-bead-b09b7eca8c2a"
          },
          {
            "reference": "Composition/6d660aff-3bb8-4e9a-b69b-889212c0d6fb"
          },
          {
            "reference": "PractitionerRole/04abd6c7-29f4-4a80-8cb1-5722dcd93eb3"
          },
          {
            "reference": "Practitioner/9f4471c2-1dca-46b4-bc73-06e00020120f"
          },
          {
            "reference": "PractitionerRole/afd78d25-df04-48fd-9d28-b3edb1df476c"
          },
          {
            "reference": "Organization/ece14f23-1c95-4aad-9523-35c5c09b3dc4"
          }
        ],
        "activity": {
          "text": "Synthetic Example Data Generation"
        },
        "policy": [
          "https://synderai.net/synderai-synthetic-data-policy"
        ],
        "agent": [
          {
            "type": {
              "text": "author"
            },
            "who": {
              "reference": "Device/3e31f45a-6f0e-4f8c-bcaa-a28c2ded9195"
            }
          }
        ],
        "reason": [
          {
            "text": "Interoperability Testing and Training (non-clinical use)"
          }
        ],
        "text": {
          "status": "generated",
          "div": "<div xmlns=\"http://www.w3.org/1999/xhtml\">Provenance for SYNDERAI Synthetic Example Data Resource</div>"
        },
        "recorded": "2020-05-27T15:56:29Z"
      }
    },
    {
      "fullUrl": "urn:uuid:04abd6c7-29f4-4a80-8cb1-5722dcd93eb3",
      "resource": {
        "resourceType": "PractitionerRole",
        "id": "04abd6c7-29f4-4a80-8cb1-5722dcd93eb3",
        "meta": {
          "profile": [
            "http://hl7.eu/fhir/base/StructureDefinition/practitionerRole-eu"
          ]
        },
        "text": {
          "status": "generated",
          "div": "<div xmlns=\"http://www.w3.org/1999/xhtml\">Laboratory Role Id: 04abd6c7-29f4-4a80-8cb1-5722dcd93eb3</div>"
        },
        "practitioner": {
          "reference": "urn:uuid:9f4471c2-1dca-46b4-bc73-06e00020120f"
        }
      }
    },
    {
      "fullUrl": "urn:uuid:9f4471c2-1dca-46b4-bc73-06e00020120f",
      "resource": {
        "resourceType": "Practitioner",
        "id": "9f4471c2-1dca-46b4-bc73-06e00020120f",
        "meta": {
          "profile": [
            "http://hl7.eu/fhir/base/StructureDefinition/practitioner-eu"
          ]
        },
        "identifier": [
          {
            "assigner": {
              "display": "HL7 Europe"
            },
            "system": "urn:oid:2.16.840.1.113883.2.51.999",
            "value": "f0a2cd33-5c5e-4157-969f-b61682bdb3ca"
          }
        ],
        "name": [
          {
            "prefix": [
              "dr"
            ],
            "given": [
              "Ex"
            ],
            "family": "Ample"
          }
        ],
        "address": [
          {
            "line": [
              "Laboratoire Central Européenne",
              "Boulevard du Jardin Botanique 32"
            ],
            "postalCode": "1000",
            "city": "Brussels",
            "country": "Belgium"
          }
        ],
        "text": {
          "status": "generated",
          "div": "<div xmlns=\"http://www.w3.org/1999/xhtml\">Laboratory: Laboratoire Central Européenne, 1000 Brussels, Belgium</div>"
        }
      }
    }
  ],
  "type": "document",
  "timestamp": "2020-05-27T15:56:29Z"
}
