{
  "resourceType": "Bundle",
  "id": "8c5b9dc0-0fd6-4a3d-aea9-4cb2bf536a24",
  "meta": {
    "profile": [
      "http://hl7.eu/fhir/laboratory/StructureDefinition/Bundle-eu-lab"
    ]
  },
  "identifier": {
    "assigner": {
      "display": "HL7 Europe"
    },
    "system": "urn:oid:2.16.840.1.113883.2.51.999",
    "value": "c206216b-120e-4a7d-8ef4-179029056590"
  },
  "entry": [
    {
      "fullUrl": "urn:uuid:17351f1f-63e0-45f9-9ba3-1780692a39bf",
      "resource": {
        "resourceType": "Composition",
        "id": "17351f1f-63e0-45f9-9ba3-1780692a39bf",
        "meta": {
          "profile": [
            "http://hl7.eu/fhir/laboratory/StructureDefinition/Composition-eu-lab"
          ]
        },
        "identifier": {
          "assigner": {
            "display": "HL7 Europe"
          },
          "system": "urn:oid:2.16.840.1.113883.2.51.999",
          "value": "31da3339-2207-4ffd-9a92-395f87a0393c"
        },
        "author": [
          {
            "reference": "urn:uuid:bcec967e-36bb-4bb0-b999-f51b4eb6568c"
          }
        ],
        "category": [
          {
            "coding": [
              {
                "code": "26436-6",
                "system": "http://loinc.org",
                "display": "Laboratory studies (set)"
              }
            ]
          }
        ],
        "type": {
          "coding": [
            {
              "code": "11502-2",
              "system": "http://loinc.org",
              "display": "Laboratory report"
            }
          ],
          "text": "Laboratory Report"
        },
        "section": [
          {
            "code": {
              "coding": [
                {
                  "code": "26436-6",
                  "system": "http://loinc.org",
                  "display": "Laboratory studies (set)"
                }
              ],
              "text": "Laboratory studies"
            },
            "section": [
              {
                "code": {
                  "coding": [
                    {
                      "code": "$18719-5",
                      "system": "http://loinc.org",
                      "display": "Chemistry studies (set)"
                    }
                  ],
                  "text": "Chemistry"
                },
                "entry": [
                  {
                    "reference": "urn:uuid:c6b6922b-22cb-41d8-8d3f-3fe1d4aec850"
                  },
                  {
                    "reference": "urn:uuid:0c383a64-2df2-48cb-bdec-07c76d01c8d0"
                  },
                  {
                    "reference": "urn:uuid:2a57617b-6bd7-4ef7-914f-6fa09e1082bd"
                  },
                  {
                    "reference": "urn:uuid:1cff4bd8-3643-48db-b5ba-4ddf31cf508d"
                  },
                  {
                    "reference": "urn:uuid:7af4c59c-3090-4c56-84c1-b90aecb9f9f5"
                  },
                  {
                    "reference": "urn:uuid:8171706d-6161-4657-862a-f79adc2f6b3d"
                  },
                  {
                    "reference": "urn:uuid:56ca9d7d-57d5-4b97-8997-b1a2a6b8d992"
                  },
                  {
                    "reference": "urn:uuid:f6d63f14-d29c-4214-b493-552005edf7bc"
                  },
                  {
                    "reference": "urn:uuid:1c4075aa-ea10-4d2a-8652-047cbb04fc4f"
                  },
                  {
                    "reference": "urn:uuid:90c1dbba-9be1-4c57-a20d-549c82d4c850"
                  }
                ],
                "text": {
                  "status": "generated",
                  "div": "<div xmlns=\"http://www.w3.org/1999/xhtml\"><h3>Chemistry</h3><table class=\"hl7__eu__lab__report\"><thead><tr><th>Test</th><th>18-JAN-2017</th><th>Reference&#xA0;Range</th><th>Unit</th></tr></thead><tbody><tr><td>Glucose [Mass/volume] in Serum or Plasma</td><td>96.4</td><td>70 - 140</td><td>mg/dL</td></tr><tr><td>Urea nitrogen [Mass/volume] in Serum or Plasma</td><td>19.1</td><td>7 - 20</td><td>mg/dL</td></tr><tr><td>Creatinine [Mass/volume] in Serum or Plasma</td><td><strong>2.4 H</strong></td><td>0.6 - 1.3</td><td>mg/dL</td></tr><tr><td>Calcium [Mass/volume] in Serum or Plasma</td><td>8.8</td><td>8.6 - 10.4</td><td>mg/dL</td></tr><tr><td>Sodium [Moles/volume] in Serum or Plasma</td><td>140.6</td><td>135 - 145</td><td>mmol/L</td></tr><tr><td>Potassium [Moles/volume] in Serum or Plasma</td><td>4.3</td><td>3.5 - 5.1</td><td>mmol/L</td></tr><tr><td>Chloride [Moles/volume] in Serum or Plasma</td><td>106.3</td><td>98 - 108</td><td>mmol/L</td></tr><tr><td>Carbon dioxide, total [Moles/volume] in Serum or Plasma</td><td><strong>20.5 L</strong></td><td>22 - 32</td><td>mmol/L</td></tr><tr><td>Ketones [Presence] in Urine by Test strip</td><td>Urine ketone test = +++</td><td></td><td></td></tr><tr><td>Hemoglobin A1c/Hemoglobin.total in Blood</td><td><strong>3.1 L</strong></td><td>4.5 - 6.4</td><td>%</td></tr></tbody></table></div>"
                },
                "title": "Chemistry"
              },
              {
                "code": {
                  "coding": [
                    {
                      "code": "$18729-4",
                      "system": "http://loinc.org",
                      "display": "Urinalysis studies (set)"
                    }
                  ],
                  "text": "Urinalysis"
                },
                "entry": [
                  {
                    "reference": "urn:uuid:ad68fdee-890c-44cd-b01c-7f1702e57f3f"
                  },
                  {
                    "reference": "urn:uuid:474729df-de2b-4b62-ac52-ac0765ff4d4f"
                  },
                  {
                    "reference": "urn:uuid:5cefe344-87fc-4a46-ae9e-9592966f2f2f"
                  },
                  {
                    "reference": "urn:uuid:79049cf5-426b-4541-bc17-be369eab5cac"
                  },
                  {
                    "reference": "urn:uuid:a0e30f20-b241-476d-b6c3-8a47406853f2"
                  },
                  {
                    "reference": "urn:uuid:a83d0d72-dc8a-4cff-949d-458ce138d104"
                  },
                  {
                    "reference": "urn:uuid:fa4659aa-3650-4b64-9866-81ab83bf9f0f"
                  },
                  {
                    "reference": "urn:uuid:1e96deed-4624-444e-928c-aa856acc84c1"
                  },
                  {
                    "reference": "urn:uuid:cd28ea79-9fc5-4750-b148-df1bec17b6bf"
                  },
                  {
                    "reference": "urn:uuid:aa8207b5-a546-44eb-81d4-cb436f1dbd7d"
                  },
                  {
                    "reference": "urn:uuid:44ff6c9a-8af9-44d5-8150-93cdabb5b48e"
                  },
                  {
                    "reference": "urn:uuid:19a466ef-3434-4fce-bd14-288b4d5f2ff4"
                  }
                ],
                "text": {
                  "status": "generated",
                  "div": "<div xmlns=\"http://www.w3.org/1999/xhtml\"><h3>Urinalysis</h3><table class=\"hl7__eu__lab__report\"><thead><tr><th>Test</th><th>18-JAN-2017</th><th>Reference&#xA0;Range</th><th>Unit</th></tr></thead><tbody><tr><td>Glucose [Mass/volume] in Urine by Test strip</td><td><strong>0.8 H</strong></td><td>0.8 - 0</td><td>mg/dL</td></tr><tr><td>Glucose [Presence] in Urine by Test strip</td><td>++</td><td></td><td></td></tr><tr><td>Bilirubin.total [Mass/volume] in Urine by Test strip</td><td>0.4</td><td>0 - 1.5</td><td>mg/dL</td></tr><tr><td>Bilirubin.total [Presence] in Urine by Test strip</td><td>Finding of bilirubin in urine</td><td></td><td></td></tr><tr><td>Ketones [Mass/volume] in Urine by Test strip</td><td><strong>18.0 H</strong></td><td>0 - 8</td><td>mg/dL</td></tr><tr><td>Specific gravity of Urine by Test strip</td><td><strong>1.0 L</strong></td><td>1.01 - 1.03</td><td>{nominal}</td></tr><tr><td>pH of Urine by Test strip</td><td>5.2</td><td>4.6 - 7.5</td><td>pH</td></tr><tr><td>Protein [Mass/volume] in Urine by Test strip</td><td><strong>436.3 H</strong></td><td>0 - 14</td><td>mg/dL</td></tr><tr><td>Protein [Presence] in Urine by Test strip</td><td>Urine protein test = +++</td><td></td><td></td></tr><tr><td>Nitrite [Presence] in Urine by Test strip</td><td>Urine nitrite negative</td><td></td><td></td></tr><tr><td>Hemoglobin [Presence] in Urine by Test strip</td><td>Urine blood test = negative</td><td></td><td></td></tr><tr><td>Leukocyte esterase [Presence] in Urine by Test strip</td><td>Urine leukocyte test negative</td><td></td><td></td></tr></tbody></table></div>"
                },
                "title": "Urinalysis"
              },
              {
                "code": {
                  "coding": [
                    {
                      "code": "$LP7846-1",
                      "system": "http://loinc.org",
                      "display": "Specimen information"
                    }
                  ],
                  "text": "Specimen information"
                },
                "entry": [
                  {
                    "reference": "urn:uuid:037ca926-470e-4f27-a7e5-2a3d52c8a548"
                  },
                  {
                    "reference": "urn:uuid:cd4faa0e-922b-40de-adac-13c4b24e8a0a"
                  },
                  {
                    "reference": "urn:uuid:f709c165-2585-458f-9027-f2c1a6e60d0a"
                  },
                  {
                    "reference": "urn:uuid:af0a8dc2-6e62-460c-84dd-f71a3f883cae"
                  }
                ],
                "text": {
                  "status": "generated",
                  "div": "<div xmlns=\"http://www.w3.org/1999/xhtml\"><h3>Specimen information</h3><table class=\"hl7__eu__lab__report\"><thead><tr><th>Test</th><th>18-JAN-2017</th><th>Specimen</th><th></th></tr></thead><tbody><tr><td>Appearance of Urine</td><td>Cloudy urine</td><td>Urine</td><td></td></tr><tr><td>Odor of Urine</td><td>Urine smell ammoniacal</td><td>Urine</td><td></td></tr><tr><td>Clarity of Urine</td><td>Translucent</td><td>Urine</td><td></td></tr><tr><td>Color of Urine</td><td>Brown color</td><td>Urine</td><td></td></tr></tbody></table></div>"
                },
                "title": "Specimen information"
              }
            ],
            "title": "Laboratory Report"
          },
          {
            "text": {
              "status": "generated",
              "div": "<div xmlns=\"http://www.w3.org/1999/xhtml\"><h3>Annotation</h3><table class=\"hl7__eu__lab__report\"><tr><th>Conclusion and Recommendations based on this report and previous findings known to us</th></tr><tr><td>The patient shows elevated serum creatinine, indicating impaired renal function, and metabolic acidosis (low CO₂). Urinalysis reveals significant proteinuria, glycosuria, and ketonuria, with low specific gravity and abnormal urine appearance, suggesting possible nephrotic syndrome or diabetic ketoacidosis, though HbA1c is low. No evidence of urinary infection. Further nephrological and metabolic evaluation is recommended.</td></tr></table></div>"
            },
            "code": {
              "coding": [
                {
                  "system": "http://loinc.org",
                  "code": "48767-8",
                  "display": "Annotation comment"
                }
              ]
            },
            "title": "Annotation comment"
          }
        ],
        "status": "final",
        "subject": {
          "reference": "urn:uuid:a95108b7-111c-48fb-b99f-8007cf8dfbd3",
          "display": "Maria Nohlmans"
        },
        "date": "2017-01-18T12:02:39Z",
        "title": "Laboratory Report",
        "confidentiality": "N"
      }
    },
    {
      "fullUrl": "urn:uuid:52b03741-5170-4d5d-ab9f-0941660d914e",
      "resource": {
        "resourceType": "DiagnosticReport",
        "id": "52b03741-5170-4d5d-ab9f-0941660d914e",
        "meta": {
          "profile": [
            "http://hl7.eu/fhir/laboratory/StructureDefinition/DiagnosticReport-eu-lab"
          ]
        },
        "identifier": [
          {
            "assigner": {
              "display": "HL7 Europe"
            },
            "system": "urn:oid:2.16.840.1.113883.2.51.999",
            "value": "6298f95d-10b2-4289-bf40-bb66cb8ede50"
          }
        ],
        "extension": [
          {
            "url": "http://hl7.org/fhir/5.0/StructureDefinition/extension-DiagnosticReport.composition",
            "valueReference": {
              "reference": "urn:uuid:31da3339-2207-4ffd-9a92-395f87a0393c"
            }
          }
        ],
        "category": [
          {
            "coding": [
              {
                "code": "26436-6",
                "system": "http://loinc.org",
                "display": "Laboratory studies (set)"
              }
            ]
          }
        ],
        "specimen": [
          {
            "reference": "urn:uuid:2bbd3a13-3bfb-4945-bcd9-1906731b95d3"
          },
          {
            "reference": "urn:uuid:3706bdc9-1995-4a24-9ab2-eec0753344de"
          },
          {
            "reference": "urn:uuid:fd5706ef-9617-43a2-b1b4-f0c585b40196"
          }
        ],
        "result": [
          {
            "reference": "urn:uuid:c6b6922b-22cb-41d8-8d3f-3fe1d4aec850"
          },
          {
            "reference": "urn:uuid:0c383a64-2df2-48cb-bdec-07c76d01c8d0"
          },
          {
            "reference": "urn:uuid:2a57617b-6bd7-4ef7-914f-6fa09e1082bd"
          },
          {
            "reference": "urn:uuid:1cff4bd8-3643-48db-b5ba-4ddf31cf508d"
          },
          {
            "reference": "urn:uuid:7af4c59c-3090-4c56-84c1-b90aecb9f9f5"
          },
          {
            "reference": "urn:uuid:8171706d-6161-4657-862a-f79adc2f6b3d"
          },
          {
            "reference": "urn:uuid:56ca9d7d-57d5-4b97-8997-b1a2a6b8d992"
          },
          {
            "reference": "urn:uuid:f6d63f14-d29c-4214-b493-552005edf7bc"
          },
          {
            "reference": "urn:uuid:037ca926-470e-4f27-a7e5-2a3d52c8a548"
          },
          {
            "reference": "urn:uuid:cd4faa0e-922b-40de-adac-13c4b24e8a0a"
          },
          {
            "reference": "urn:uuid:f709c165-2585-458f-9027-f2c1a6e60d0a"
          },
          {
            "reference": "urn:uuid:af0a8dc2-6e62-460c-84dd-f71a3f883cae"
          },
          {
            "reference": "urn:uuid:ad68fdee-890c-44cd-b01c-7f1702e57f3f"
          },
          {
            "reference": "urn:uuid:474729df-de2b-4b62-ac52-ac0765ff4d4f"
          },
          {
            "reference": "urn:uuid:5cefe344-87fc-4a46-ae9e-9592966f2f2f"
          },
          {
            "reference": "urn:uuid:79049cf5-426b-4541-bc17-be369eab5cac"
          },
          {
            "reference": "urn:uuid:a0e30f20-b241-476d-b6c3-8a47406853f2"
          },
          {
            "reference": "urn:uuid:1c4075aa-ea10-4d2a-8652-047cbb04fc4f"
          },
          {
            "reference": "urn:uuid:a83d0d72-dc8a-4cff-949d-458ce138d104"
          },
          {
            "reference": "urn:uuid:fa4659aa-3650-4b64-9866-81ab83bf9f0f"
          },
          {
            "reference": "urn:uuid:1e96deed-4624-444e-928c-aa856acc84c1"
          },
          {
            "reference": "urn:uuid:cd28ea79-9fc5-4750-b148-df1bec17b6bf"
          },
          {
            "reference": "urn:uuid:aa8207b5-a546-44eb-81d4-cb436f1dbd7d"
          },
          {
            "reference": "urn:uuid:44ff6c9a-8af9-44d5-8150-93cdabb5b48e"
          },
          {
            "reference": "urn:uuid:19a466ef-3434-4fce-bd14-288b4d5f2ff4"
          },
          {
            "reference": "urn:uuid:90c1dbba-9be1-4c57-a20d-549c82d4c850"
          }
        ],
        "status": "registered",
        "code": {
          "coding": [
            {
              "code": "11502-2",
              "system": "http://loinc.org",
              "display": "Laboratory report"
            }
          ]
        },
        "subject": {
          "reference": "urn:uuid:a95108b7-111c-48fb-b99f-8007cf8dfbd3",
          "display": "Maria Nohlmans"
        }
      }
    },
    {
      "fullUrl": "urn:uuid:a95108b7-111c-48fb-b99f-8007cf8dfbd3",
      "resource": {
        "resourceType": "Patient",
        "id": "a95108b7-111c-48fb-b99f-8007cf8dfbd3",
        "meta": {
          "security": [
            {
              "system": "http://terminology.hl7.org/CodeSystem/v3-ActReason",
              "code": "HTEST"
            },
            {
              "system": "http://terminology.hl7.org/CodeSystem/v3-ActReason",
              "code": "TRAIN"
            }
          ],
          "tag": [
            {
              "system": "https://synderai.net/fhir/CodeSystem/tags",
              "code": "synthetic",
              "display": "SYNDERAI Synthetic data"
            }
          ],
          "profile": [
            "http://hl7.eu/fhir/base/StructureDefinition/patient-eu-core"
          ]
        },
        "identifier": [
          {
            "type": {
              "coding": [
                {
                  "code": "PT",
                  "system": "http://terminology.hl7.org/CodeSystem/v2-0203"
                }
              ]
            },
            "system": "http://ec.europa.eu/identifier/eci",
            "value": "6886-506417-1"
          },
          {
            "type": {
              "coding": [
                {
                  "code": "MR",
                  "system": "http://terminology.hl7.org/CodeSystem/v2-0203"
                }
              ]
            },
            "system": "http://local.setting.eu/identifier",
            "value": "2cb21ed6-b617-b1f3-2290-589a710de5ee"
          }
        ],
        "name": [
          {
            "family": "Nohlmans"
          },
          {
            "given": [
              "Maria"
            ]
          },
          {
            "text": "Maria Nohlmans"
          }
        ],
        "address": [
          {
            "line": [
              "Alfons-Wulff-Weg 1"
            ],
            "use": "home",
            "type": "physical",
            "postalCode": "25813",
            "city": "Husum",
            "country": "Germany"
          }
        ],
        "telecom": [
          {
            "system": "phone",
            "value": "+49(0)1911 105501"
          }
        ],
        "extension": [
          {
            "url": "http://hl7.org/fhir/StructureDefinition/patient-nationality",
            "valueCodeableConcept": {
              "coding": [
                {
                  "code": "DE",
                  "system": "http://hl7.org/fhir/ValueSet/country"
                }
              ]
            }
          }
        ],
        "text": {
          "status": "generated",
          "div": "<div xmlns=\"http://www.w3.org/1999/xhtml\"><table class=\"hl7__ips\"><tr><td>Maria Nohlmans</td><td>female</td><td>11-Jun-1947</td></tr></table></div>"
        },
        "gender": "female",
        "birthDate": "1947-06-11"
      }
    },
    {
      "fullUrl": "urn:uuid:719ec698-3730-48e2-acc8-e0596aa98a79",
      "resource": {
        "resourceType": "ServiceRequest",
        "id": "719ec698-3730-48e2-acc8-e0596aa98a79",
        "meta": {
          "profile": [
            "http://hl7.eu/fhir/laboratory/StructureDefinition/ServiceRequest-eu-lab"
          ]
        },
        "identifier": [
          {
            "system": "http://example.org",
            "value": "306e11a5-7ad7-4187-8318-8e030f0ef18b"
          }
        ],
        "specimen": [
          {
            "reference": "urn:uuid:2bbd3a13-3bfb-4945-bcd9-1906731b95d3"
          },
          {
            "reference": "urn:uuid:3706bdc9-1995-4a24-9ab2-eec0753344de"
          },
          {
            "reference": "urn:uuid:fd5706ef-9617-43a2-b1b4-f0c585b40196"
          }
        ],
        "reasonCode": [
          {
            "coding": [
              {
                "code": "401314000",
                "system": "http://snomed.info/sct",
                "display": "Acute non-ST segment elevation myocardial infarction"
              }
            ]
          },
          {
            "coding": [
              {
                "code": "157141000119108",
                "system": "http://snomed.info/sct",
                "display": "Proteinuria due to type 2 diabetes mellitus"
              }
            ]
          },
          {
            "coding": [
              {
                "code": "237602007",
                "system": "http://snomed.info/sct",
                "display": "Metabolic syndrome X"
              }
            ]
          },
          {
            "coding": [
              {
                "code": "90781000119102",
                "system": "http://snomed.info/sct",
                "display": "Microalbuminuria due to type 2 diabetes mellitus"
              }
            ]
          },
          {
            "coding": [
              {
                "code": "127013003",
                "system": "http://snomed.info/sct",
                "display": "Disorder of kidney due to diabetes mellitus"
              }
            ]
          },
          {
            "coding": [
              {
                "code": "59621000",
                "system": "http://snomed.info/sct",
                "display": "Essential hypertension"
              }
            ]
          },
          {
            "coding": [
              {
                "code": "271737000",
                "system": "http://snomed.info/sct",
                "display": "Anemia"
              }
            ]
          },
          {
            "coding": [
              {
                "code": "15777000",
                "system": "http://snomed.info/sct",
                "display": "Prediabetes"
              }
            ]
          }
        ],
        "status": "active",
        "intent": "order",
        "code": {
          "coding": [
            {
              "code": "108252007",
              "system": "http://snomed.info/sct",
              "display": "Laboratory procedure"
            }
          ]
        },
        "subject": {
          "reference": "urn:uuid:a95108b7-111c-48fb-b99f-8007cf8dfbd3",
          "display": "Maria Nohlmans"
        },
        "requester": {
          "reference": "urn:uuid:35b073b1-0a35-42f1-aaef-a8c12a610f7c"
        }
      }
    },
    {
      "fullUrl": "urn:uuid:35b073b1-0a35-42f1-aaef-a8c12a610f7c",
      "resource": {
        "resourceType": "PractitionerRole",
        "id": "35b073b1-0a35-42f1-aaef-a8c12a610f7c",
        "meta": {
          "profile": [
            "http://hl7.eu/fhir/base/StructureDefinition/practitionerRole-eu"
          ]
        },
        "text": {
          "status": "generated",
          "div": "<div xmlns=\"http://www.w3.org/1999/xhtml\">Provider Role Id: 35b073b1-0a35-42f1-aaef-a8c12a610f7c</div>"
        },
        "organization": {
          "reference": "urn:uuid:9bb154a3-bea9-455d-a628-6bdf646fa5bb"
        }
      }
    },
    {
      "fullUrl": "urn:uuid:9bb154a3-bea9-455d-a628-6bdf646fa5bb",
      "resource": {
        "resourceType": "Organization",
        "id": "9bb154a3-bea9-455d-a628-6bdf646fa5bb",
        "meta": {
          "profile": [
            "http://hl7.eu/fhir/base/StructureDefinition/organization-eu"
          ]
        },
        "identifier": [
          {
            "assigner": {
              "display": "HL7 Europe"
            },
            "system": "urn:oid:2.16.840.1.113883.2.51.999",
            "value": "230c055f-6570-4864-917f-acd8fa46b38a"
          }
        ],
        "address": [
          {
            "line": [
              "Brinckmannstraße 35"
            ],
            "city": "Husum",
            "postalCode": "25813",
            "country": "Germany"
          }
        ],
        "text": {
          "status": "generated",
          "div": "<div xmlns=\"http://www.w3.org/1999/xhtml\">Provider Organization: Dr. Wolfram Hussels Kieferorthopäde</div>"
        },
        "name": "Dr. Wolfram Hussels Kieferorthopäde"
      }
    },
    {
      "fullUrl": "urn:uuid:2bbd3a13-3bfb-4945-bcd9-1906731b95d3",
      "resource": {
        "resourceType": "Specimen",
        "id": "2bbd3a13-3bfb-4945-bcd9-1906731b95d3",
        "meta": {
          "profile": [
            "http://hl7.eu/fhir/laboratory/StructureDefinition/Specimen-eu-lab"
          ]
        },
        "collection": {
          "collectedDateTime": "2017-01-18"
        },
        "text": {
          "status": "generated",
          "div": "<div xmlns=\"http://www.w3.org/1999/xhtml\"><table class=\"hl7__eu__lab__report\"><tr><th>Specimen</th><th>Collection Date</th></tr><tr><td>Acellular blood (serum or plasma) specimen</td><td><span class=\"nb\">18-Jan-2017</span></td></tr></table></div>"
        },
        "type": {
          "coding": [
            {
              "code": "122592007",
              "system": "http://snomed.info/sct",
              "display": "Acellular blood (serum or plasma) specimen"
            }
          ]
        }
      }
    },
    {
      "fullUrl": "urn:uuid:3706bdc9-1995-4a24-9ab2-eec0753344de",
      "resource": {
        "resourceType": "Specimen",
        "id": "3706bdc9-1995-4a24-9ab2-eec0753344de",
        "meta": {
          "profile": [
            "http://hl7.eu/fhir/laboratory/StructureDefinition/Specimen-eu-lab"
          ]
        },
        "collection": {
          "collectedDateTime": "2017-01-18"
        },
        "text": {
          "status": "generated",
          "div": "<div xmlns=\"http://www.w3.org/1999/xhtml\"><table class=\"hl7__eu__lab__report\"><tr><th>Specimen</th><th>Collection Date</th></tr><tr><td>Urine specimen</td><td><span class=\"nb\">18-Jan-2017</span></td></tr></table></div>"
        },
        "type": {
          "coding": [
            {
              "code": "122575003",
              "system": "http://snomed.info/sct",
              "display": "Urine specimen"
            }
          ]
        }
      }
    },
    {
      "fullUrl": "urn:uuid:fd5706ef-9617-43a2-b1b4-f0c585b40196",
      "resource": {
        "resourceType": "Specimen",
        "id": "fd5706ef-9617-43a2-b1b4-f0c585b40196",
        "meta": {
          "profile": [
            "http://hl7.eu/fhir/laboratory/StructureDefinition/Specimen-eu-lab"
          ]
        },
        "collection": {
          "collectedDateTime": "2017-01-18"
        },
        "text": {
          "status": "generated",
          "div": "<div xmlns=\"http://www.w3.org/1999/xhtml\"><table class=\"hl7__eu__lab__report\"><tr><th>Specimen</th><th>Collection Date</th></tr><tr><td>Whole blood specimen (specimen)</td><td><span class=\"nb\">18-Jan-2017</span></td></tr></table></div>"
        },
        "type": {
          "coding": [
            {
              "code": "258580003",
              "system": "http://snomed.info/sct",
              "display": "Whole blood specimen (specimen)"
            }
          ]
        }
      }
    },
    {
      "fullUrl": "urn:uuid:c6b6922b-22cb-41d8-8d3f-3fe1d4aec850",
      "resource": {
        "resourceType": "Observation",
        "id": "c6b6922b-22cb-41d8-8d3f-3fe1d4aec850",
        "meta": {
          "profile": [
            "http://hl7.eu/fhir/laboratory/StructureDefinition/Observation-resultslab-eu-lab"
          ]
        },
        "performer": [
          {
            "display": "The Central European Lab"
          }
        ],
        "category": [
          {
            "coding": [
              {
                "system": "http://terminology.hl7.org/CodeSystem/observation-category",
                "code": "laboratory"
              }
            ]
          }
        ],
        "code": {
          "coding": [
            {
              "code": "2345-7",
              "system": "http://loinc.org",
              "display": "Glucose [Mass/volume] in Serum or Plasma"
            }
          ],
          "text": "Glucose [Mass/volume] in Serum or Plasma"
        },
        "valueQuantity": {
          "system": "http://unitsofmeasure.org",
          "value": 96.4,
          "unit": "mg/dL",
          "code": "mg/dL"
        },
        "referenceRange": [
          {
            "low": {
              "value": 70,
              "code": "mg/dL",
              "system": "http://unitsofmeasure.org"
            }
          },
          {
            "high": {
              "value": 140,
              "code": "mg/dL",
              "system": "http://unitsofmeasure.org"
            }
          }
        ],
        "text": {
          "status": "generated",
          "div": "<div xmlns=\"http://www.w3.org/1999/xhtml\"><table class=\"hl7__eu__lab__report\"><tr><th>Test</th><th>18-Jan-2017</th><th>Reference&#xA0;Range</th><th>Unit</th></tr><tr><td>Glucose [Mass/volume] in Serum or Plasma</td><td>96.4</td><td>70 - 140</td><td></td><td>mg/dL</td></tr></table></div>"
        },
        "status": "final",
        "subject": {
          "reference": "urn:uuid:a95108b7-111c-48fb-b99f-8007cf8dfbd3",
          "display": "Maria Nohlmans"
        },
        "effectiveDateTime": "2017-01-18T11:02:39Z",
        "specimen": {
          "reference": "urn:uuid:2bbd3a13-3bfb-4945-bcd9-1906731b95d3"
        }
      }
    },
    {
      "fullUrl": "urn:uuid:0c383a64-2df2-48cb-bdec-07c76d01c8d0",
      "resource": {
        "resourceType": "Observation",
        "id": "0c383a64-2df2-48cb-bdec-07c76d01c8d0",
        "meta": {
          "profile": [
            "http://hl7.eu/fhir/laboratory/StructureDefinition/Observation-resultslab-eu-lab"
          ]
        },
        "performer": [
          {
            "display": "The Central European Lab"
          }
        ],
        "category": [
          {
            "coding": [
              {
                "system": "http://terminology.hl7.org/CodeSystem/observation-category",
                "code": "laboratory"
              }
            ]
          }
        ],
        "code": {
          "coding": [
            {
              "code": "3094-0",
              "system": "http://loinc.org",
              "display": "Urea nitrogen [Mass/volume] in Serum or Plasma"
            }
          ],
          "text": "Urea nitrogen [Mass/volume] in Serum or Plasma"
        },
        "valueQuantity": {
          "system": "http://unitsofmeasure.org",
          "value": 19.1,
          "unit": "mg/dL",
          "code": "mg/dL"
        },
        "referenceRange": [
          {
            "low": {
              "value": 7,
              "code": "mg/dL",
              "system": "http://unitsofmeasure.org"
            }
          },
          {
            "high": {
              "value": 20,
              "code": "mg/dL",
              "system": "http://unitsofmeasure.org"
            }
          }
        ],
        "text": {
          "status": "generated",
          "div": "<div xmlns=\"http://www.w3.org/1999/xhtml\"><table class=\"hl7__eu__lab__report\"><tr><th>Test</th><th>18-Jan-2017</th><th>Reference&#xA0;Range</th><th>Unit</th></tr><tr><td>Urea nitrogen [Mass/volume] in Serum or Plasma</td><td>19.1</td><td>7 - 20</td><td></td><td>mg/dL</td></tr></table></div>"
        },
        "status": "final",
        "subject": {
          "reference": "urn:uuid:a95108b7-111c-48fb-b99f-8007cf8dfbd3",
          "display": "Maria Nohlmans"
        },
        "effectiveDateTime": "2017-01-18T11:02:39Z",
        "specimen": {
          "reference": "urn:uuid:2bbd3a13-3bfb-4945-bcd9-1906731b95d3"
        }
      }
    },
    {
      "fullUrl": "urn:uuid:2a57617b-6bd7-4ef7-914f-6fa09e1082bd",
      "resource": {
        "resourceType": "Observation",
        "id": "2a57617b-6bd7-4ef7-914f-6fa09e1082bd",
        "meta": {
          "profile": [
            "http://hl7.eu/fhir/laboratory/StructureDefinition/Observation-resultslab-eu-lab"
          ]
        },
        "performer": [
          {
            "display": "The Central European Lab"
          }
        ],
        "category": [
          {
            "coding": [
              {
                "system": "http://terminology.hl7.org/CodeSystem/observation-category",
                "code": "laboratory"
              }
            ]
          }
        ],
        "code": {
          "coding": [
            {
              "code": "2160-0",
              "system": "http://loinc.org",
              "display": "Creatinine [Mass/volume] in Serum or Plasma"
            }
          ],
          "text": "Creatinine [Mass/volume] in Serum or Plasma"
        },
        "valueQuantity": {
          "system": "http://unitsofmeasure.org",
          "value": 2.4,
          "unit": "mg/dL",
          "code": "mg/dL"
        },
        "referenceRange": [
          {
            "low": {
              "value": 0.6,
              "code": "mg/dL",
              "system": "http://unitsofmeasure.org"
            }
          },
          {
            "high": {
              "value": 1.3,
              "code": "mg/dL",
              "system": "http://unitsofmeasure.org"
            }
          }
        ],
        "interpretation": [
          {
            "coding": [
              {
                "code": "H",
                "system": "http://terminology.hl7.org/CodeSystem/v3-ObservationInterpretation",
                "display": "High"
              }
            ]
          }
        ],
        "text": {
          "status": "generated",
          "div": "<div xmlns=\"http://www.w3.org/1999/xhtml\"><table class=\"hl7__eu__lab__report\"><tr><th>Test</th><th>18-Jan-2017</th><th>Reference&#xA0;Range</th><th>Unit</th></tr><tr><td>Creatinine [Mass/volume] in Serum or Plasma</td><td>2.4</td><td>0.6 - 1.3</td><td>H</td><td>mg/dL</td></tr></table></div>"
        },
        "status": "final",
        "subject": {
          "reference": "urn:uuid:a95108b7-111c-48fb-b99f-8007cf8dfbd3",
          "display": "Maria Nohlmans"
        },
        "effectiveDateTime": "2017-01-18T11:02:39Z",
        "specimen": {
          "reference": "urn:uuid:2bbd3a13-3bfb-4945-bcd9-1906731b95d3"
        }
      }
    },
    {
      "fullUrl": "urn:uuid:1cff4bd8-3643-48db-b5ba-4ddf31cf508d",
      "resource": {
        "resourceType": "Observation",
        "id": "1cff4bd8-3643-48db-b5ba-4ddf31cf508d",
        "meta": {
          "profile": [
            "http://hl7.eu/fhir/laboratory/StructureDefinition/Observation-resultslab-eu-lab"
          ]
        },
        "performer": [
          {
            "display": "The Central European Lab"
          }
        ],
        "category": [
          {
            "coding": [
              {
                "system": "http://terminology.hl7.org/CodeSystem/observation-category",
                "code": "laboratory"
              }
            ]
          }
        ],
        "code": {
          "coding": [
            {
              "code": "17861-6",
              "system": "http://loinc.org",
              "display": "Calcium [Mass/volume] in Serum or Plasma"
            }
          ],
          "text": "Calcium [Mass/volume] in Serum or Plasma"
        },
        "valueQuantity": {
          "system": "http://unitsofmeasure.org",
          "value": 8.8,
          "unit": "mg/dL",
          "code": "mg/dL"
        },
        "referenceRange": [
          {
            "low": {
              "value": 8.6,
              "code": "mg/dL",
              "system": "http://unitsofmeasure.org"
            }
          },
          {
            "high": {
              "value": 10.4,
              "code": "mg/dL",
              "system": "http://unitsofmeasure.org"
            }
          }
        ],
        "text": {
          "status": "generated",
          "div": "<div xmlns=\"http://www.w3.org/1999/xhtml\"><table class=\"hl7__eu__lab__report\"><tr><th>Test</th><th>18-Jan-2017</th><th>Reference&#xA0;Range</th><th>Unit</th></tr><tr><td>Calcium [Mass/volume] in Serum or Plasma</td><td>8.8</td><td>8.6 - 10.4</td><td></td><td>mg/dL</td></tr></table></div>"
        },
        "status": "final",
        "subject": {
          "reference": "urn:uuid:a95108b7-111c-48fb-b99f-8007cf8dfbd3",
          "display": "Maria Nohlmans"
        },
        "effectiveDateTime": "2017-01-18T11:02:39Z",
        "specimen": {
          "reference": "urn:uuid:2bbd3a13-3bfb-4945-bcd9-1906731b95d3"
        }
      }
    },
    {
      "fullUrl": "urn:uuid:7af4c59c-3090-4c56-84c1-b90aecb9f9f5",
      "resource": {
        "resourceType": "Observation",
        "id": "7af4c59c-3090-4c56-84c1-b90aecb9f9f5",
        "meta": {
          "profile": [
            "http://hl7.eu/fhir/laboratory/StructureDefinition/Observation-resultslab-eu-lab"
          ]
        },
        "performer": [
          {
            "display": "The Central European Lab"
          }
        ],
        "category": [
          {
            "coding": [
              {
                "system": "http://terminology.hl7.org/CodeSystem/observation-category",
                "code": "laboratory"
              }
            ]
          }
        ],
        "code": {
          "coding": [
            {
              "code": "2951-2",
              "system": "http://loinc.org",
              "display": "Sodium [Moles/volume] in Serum or Plasma"
            }
          ],
          "text": "Sodium [Moles/volume] in Serum or Plasma"
        },
        "valueQuantity": {
          "system": "http://unitsofmeasure.org",
          "value": 140.6,
          "unit": "mmol/L",
          "code": "mmol/L"
        },
        "referenceRange": [
          {
            "low": {
              "value": 135,
              "code": "mmol/L",
              "system": "http://unitsofmeasure.org"
            }
          },
          {
            "high": {
              "value": 145,
              "code": "mmol/L",
              "system": "http://unitsofmeasure.org"
            }
          }
        ],
        "text": {
          "status": "generated",
          "div": "<div xmlns=\"http://www.w3.org/1999/xhtml\"><table class=\"hl7__eu__lab__report\"><tr><th>Test</th><th>18-Jan-2017</th><th>Reference&#xA0;Range</th><th>Unit</th></tr><tr><td>Sodium [Moles/volume] in Serum or Plasma</td><td>140.6</td><td>135 - 145</td><td></td><td>mmol/L</td></tr></table></div>"
        },
        "status": "final",
        "subject": {
          "reference": "urn:uuid:a95108b7-111c-48fb-b99f-8007cf8dfbd3",
          "display": "Maria Nohlmans"
        },
        "effectiveDateTime": "2017-01-18T11:02:39Z",
        "specimen": {
          "reference": "urn:uuid:2bbd3a13-3bfb-4945-bcd9-1906731b95d3"
        }
      }
    },
    {
      "fullUrl": "urn:uuid:8171706d-6161-4657-862a-f79adc2f6b3d",
      "resource": {
        "resourceType": "Observation",
        "id": "8171706d-6161-4657-862a-f79adc2f6b3d",
        "meta": {
          "profile": [
            "http://hl7.eu/fhir/laboratory/StructureDefinition/Observation-resultslab-eu-lab"
          ]
        },
        "performer": [
          {
            "display": "The Central European Lab"
          }
        ],
        "category": [
          {
            "coding": [
              {
                "system": "http://terminology.hl7.org/CodeSystem/observation-category",
                "code": "laboratory"
              }
            ]
          }
        ],
        "code": {
          "coding": [
            {
              "code": "2823-3",
              "system": "http://loinc.org",
              "display": "Potassium [Moles/volume] in Serum or Plasma"
            }
          ],
          "text": "Potassium [Moles/volume] in Serum or Plasma"
        },
        "valueQuantity": {
          "system": "http://unitsofmeasure.org",
          "value": 4.3,
          "unit": "mmol/L",
          "code": "mmol/L"
        },
        "referenceRange": [
          {
            "low": {
              "value": 3.5,
              "code": "mmol/L",
              "system": "http://unitsofmeasure.org"
            }
          },
          {
            "high": {
              "value": 5.1,
              "code": "mmol/L",
              "system": "http://unitsofmeasure.org"
            }
          }
        ],
        "text": {
          "status": "generated",
          "div": "<div xmlns=\"http://www.w3.org/1999/xhtml\"><table class=\"hl7__eu__lab__report\"><tr><th>Test</th><th>18-Jan-2017</th><th>Reference&#xA0;Range</th><th>Unit</th></tr><tr><td>Potassium [Moles/volume] in Serum or Plasma</td><td>4.3</td><td>3.5 - 5.1</td><td></td><td>mmol/L</td></tr></table></div>"
        },
        "status": "final",
        "subject": {
          "reference": "urn:uuid:a95108b7-111c-48fb-b99f-8007cf8dfbd3",
          "display": "Maria Nohlmans"
        },
        "effectiveDateTime": "2017-01-18T11:02:39Z",
        "specimen": {
          "reference": "urn:uuid:2bbd3a13-3bfb-4945-bcd9-1906731b95d3"
        }
      }
    },
    {
      "fullUrl": "urn:uuid:56ca9d7d-57d5-4b97-8997-b1a2a6b8d992",
      "resource": {
        "resourceType": "Observation",
        "id": "56ca9d7d-57d5-4b97-8997-b1a2a6b8d992",
        "meta": {
          "profile": [
            "http://hl7.eu/fhir/laboratory/StructureDefinition/Observation-resultslab-eu-lab"
          ]
        },
        "performer": [
          {
            "display": "The Central European Lab"
          }
        ],
        "category": [
          {
            "coding": [
              {
                "system": "http://terminology.hl7.org/CodeSystem/observation-category",
                "code": "laboratory"
              }
            ]
          }
        ],
        "code": {
          "coding": [
            {
              "code": "2075-0",
              "system": "http://loinc.org",
              "display": "Chloride [Moles/volume] in Serum or Plasma"
            }
          ],
          "text": "Chloride [Moles/volume] in Serum or Plasma"
        },
        "valueQuantity": {
          "system": "http://unitsofmeasure.org",
          "value": 106.3,
          "unit": "mmol/L",
          "code": "mmol/L"
        },
        "referenceRange": [
          {
            "low": {
              "value": 98,
              "code": "mmol/L",
              "system": "http://unitsofmeasure.org"
            }
          },
          {
            "high": {
              "value": 108,
              "code": "mmol/L",
              "system": "http://unitsofmeasure.org"
            }
          }
        ],
        "text": {
          "status": "generated",
          "div": "<div xmlns=\"http://www.w3.org/1999/xhtml\"><table class=\"hl7__eu__lab__report\"><tr><th>Test</th><th>18-Jan-2017</th><th>Reference&#xA0;Range</th><th>Unit</th></tr><tr><td>Chloride [Moles/volume] in Serum or Plasma</td><td>106.3</td><td>98 - 108</td><td></td><td>mmol/L</td></tr></table></div>"
        },
        "status": "final",
        "subject": {
          "reference": "urn:uuid:a95108b7-111c-48fb-b99f-8007cf8dfbd3",
          "display": "Maria Nohlmans"
        },
        "effectiveDateTime": "2017-01-18T11:02:39Z",
        "specimen": {
          "reference": "urn:uuid:2bbd3a13-3bfb-4945-bcd9-1906731b95d3"
        }
      }
    },
    {
      "fullUrl": "urn:uuid:f6d63f14-d29c-4214-b493-552005edf7bc",
      "resource": {
        "resourceType": "Observation",
        "id": "f6d63f14-d29c-4214-b493-552005edf7bc",
        "meta": {
          "profile": [
            "http://hl7.eu/fhir/laboratory/StructureDefinition/Observation-resultslab-eu-lab"
          ]
        },
        "performer": [
          {
            "display": "The Central European Lab"
          }
        ],
        "category": [
          {
            "coding": [
              {
                "system": "http://terminology.hl7.org/CodeSystem/observation-category",
                "code": "laboratory"
              }
            ]
          }
        ],
        "code": {
          "coding": [
            {
              "code": "2028-9",
              "system": "http://loinc.org",
              "display": "Carbon dioxide, total [Moles/volume] in Serum or Plasma"
            }
          ],
          "text": "Carbon dioxide, total [Moles/volume] in Serum or Plasma"
        },
        "valueQuantity": {
          "system": "http://unitsofmeasure.org",
          "value": 20.5,
          "unit": "mmol/L",
          "code": "mmol/L"
        },
        "referenceRange": [
          {
            "low": {
              "value": 22,
              "code": "mmol/L",
              "system": "http://unitsofmeasure.org"
            }
          },
          {
            "high": {
              "value": 32,
              "code": "mmol/L",
              "system": "http://unitsofmeasure.org"
            }
          }
        ],
        "interpretation": [
          {
            "coding": [
              {
                "code": "L",
                "system": "http://terminology.hl7.org/CodeSystem/v3-ObservationInterpretation",
                "display": "Low"
              }
            ]
          }
        ],
        "text": {
          "status": "generated",
          "div": "<div xmlns=\"http://www.w3.org/1999/xhtml\"><table class=\"hl7__eu__lab__report\"><tr><th>Test</th><th>18-Jan-2017</th><th>Reference&#xA0;Range</th><th>Unit</th></tr><tr><td>Carbon dioxide, total [Moles/volume] in Serum or Plasma</td><td>20.5</td><td>22 - 32</td><td>L</td><td>mmol/L</td></tr></table></div>"
        },
        "status": "final",
        "subject": {
          "reference": "urn:uuid:a95108b7-111c-48fb-b99f-8007cf8dfbd3",
          "display": "Maria Nohlmans"
        },
        "effectiveDateTime": "2017-01-18T11:02:39Z",
        "specimen": {
          "reference": "urn:uuid:2bbd3a13-3bfb-4945-bcd9-1906731b95d3"
        }
      }
    },
    {
      "fullUrl": "urn:uuid:037ca926-470e-4f27-a7e5-2a3d52c8a548",
      "resource": {
        "resourceType": "Observation",
        "id": "037ca926-470e-4f27-a7e5-2a3d52c8a548",
        "meta": {
          "profile": [
            "http://hl7.eu/fhir/laboratory/StructureDefinition/Observation-resultslab-eu-lab"
          ]
        },
        "performer": [
          {
            "display": "The Central European Lab"
          }
        ],
        "category": [
          {
            "coding": [
              {
                "system": "http://terminology.hl7.org/CodeSystem/observation-category",
                "code": "laboratory"
              }
            ]
          }
        ],
        "code": {
          "coding": [
            {
              "code": "5767-9",
              "system": "http://loinc.org",
              "display": "Appearance of Urine"
            }
          ],
          "text": "Appearance of Urine"
        },
        "text": {
          "status": "generated",
          "div": "<div xmlns=\"http://www.w3.org/1999/xhtml\"><table class=\"hl7__eu__lab__report\"><tr><th>Test</th><th>18-Jan-2017</th><th>Reference&#xA0;Range</th><th>Unit</th></tr><tr><td>Appearance of Urine</td></tr></table></div>"
        },
        "status": "final",
        "subject": {
          "reference": "urn:uuid:a95108b7-111c-48fb-b99f-8007cf8dfbd3",
          "display": "Maria Nohlmans"
        },
        "effectiveDateTime": "2017-01-18T11:02:39Z",
        "specimen": {
          "reference": "urn:uuid:3706bdc9-1995-4a24-9ab2-eec0753344de"
        }
      }
    },
    {
      "fullUrl": "urn:uuid:cd4faa0e-922b-40de-adac-13c4b24e8a0a",
      "resource": {
        "resourceType": "Observation",
        "id": "cd4faa0e-922b-40de-adac-13c4b24e8a0a",
        "meta": {
          "profile": [
            "http://hl7.eu/fhir/laboratory/StructureDefinition/Observation-resultslab-eu-lab"
          ]
        },
        "performer": [
          {
            "display": "The Central European Lab"
          }
        ],
        "category": [
          {
            "coding": [
              {
                "system": "http://terminology.hl7.org/CodeSystem/observation-category",
                "code": "laboratory"
              }
            ]
          }
        ],
        "code": {
          "coding": [
            {
              "code": "34533-0",
              "system": "http://loinc.org",
              "display": "Odor of Urine"
            }
          ],
          "text": "Odor of Urine"
        },
        "text": {
          "status": "generated",
          "div": "<div xmlns=\"http://www.w3.org/1999/xhtml\"><table class=\"hl7__eu__lab__report\"><tr><th>Test</th><th>18-Jan-2017</th><th>Reference&#xA0;Range</th><th>Unit</th></tr><tr><td>Odor of Urine</td></tr></table></div>"
        },
        "status": "final",
        "subject": {
          "reference": "urn:uuid:a95108b7-111c-48fb-b99f-8007cf8dfbd3",
          "display": "Maria Nohlmans"
        },
        "effectiveDateTime": "2017-01-18T11:02:39Z",
        "specimen": {
          "reference": "urn:uuid:3706bdc9-1995-4a24-9ab2-eec0753344de"
        }
      }
    },
    {
      "fullUrl": "urn:uuid:f709c165-2585-458f-9027-f2c1a6e60d0a",
      "resource": {
        "resourceType": "Observation",
        "id": "f709c165-2585-458f-9027-f2c1a6e60d0a",
        "meta": {
          "profile": [
            "http://hl7.eu/fhir/laboratory/StructureDefinition/Observation-resultslab-eu-lab"
          ]
        },
        "performer": [
          {
            "display": "The Central European Lab"
          }
        ],
        "category": [
          {
            "coding": [
              {
                "system": "http://terminology.hl7.org/CodeSystem/observation-category",
                "code": "laboratory"
              }
            ]
          }
        ],
        "code": {
          "coding": [
            {
              "code": "32167-9",
              "system": "http://loinc.org",
              "display": "Clarity of Urine"
            }
          ],
          "text": "Clarity of Urine"
        },
        "text": {
          "status": "generated",
          "div": "<div xmlns=\"http://www.w3.org/1999/xhtml\"><table class=\"hl7__eu__lab__report\"><tr><th>Test</th><th>18-Jan-2017</th><th>Reference&#xA0;Range</th><th>Unit</th></tr><tr><td>Clarity of Urine</td></tr></table></div>"
        },
        "status": "final",
        "subject": {
          "reference": "urn:uuid:a95108b7-111c-48fb-b99f-8007cf8dfbd3",
          "display": "Maria Nohlmans"
        },
        "effectiveDateTime": "2017-01-18T11:02:39Z",
        "specimen": {
          "reference": "urn:uuid:3706bdc9-1995-4a24-9ab2-eec0753344de"
        }
      }
    },
    {
      "fullUrl": "urn:uuid:af0a8dc2-6e62-460c-84dd-f71a3f883cae",
      "resource": {
        "resourceType": "Observation",
        "id": "af0a8dc2-6e62-460c-84dd-f71a3f883cae",
        "meta": {
          "profile": [
            "http://hl7.eu/fhir/laboratory/StructureDefinition/Observation-resultslab-eu-lab"
          ]
        },
        "performer": [
          {
            "display": "The Central European Lab"
          }
        ],
        "category": [
          {
            "coding": [
              {
                "system": "http://terminology.hl7.org/CodeSystem/observation-category",
                "code": "laboratory"
              }
            ]
          }
        ],
        "code": {
          "coding": [
            {
              "code": "5778-6",
              "system": "http://loinc.org",
              "display": "Color of Urine"
            }
          ],
          "text": "Color of Urine"
        },
        "text": {
          "status": "generated",
          "div": "<div xmlns=\"http://www.w3.org/1999/xhtml\"><table class=\"hl7__eu__lab__report\"><tr><th>Test</th><th>18-Jan-2017</th><th>Reference&#xA0;Range</th><th>Unit</th></tr><tr><td>Color of Urine</td></tr></table></div>"
        },
        "status": "final",
        "subject": {
          "reference": "urn:uuid:a95108b7-111c-48fb-b99f-8007cf8dfbd3",
          "display": "Maria Nohlmans"
        },
        "effectiveDateTime": "2017-01-18T11:02:39Z",
        "specimen": {
          "reference": "urn:uuid:3706bdc9-1995-4a24-9ab2-eec0753344de"
        }
      }
    },
    {
      "fullUrl": "urn:uuid:ad68fdee-890c-44cd-b01c-7f1702e57f3f",
      "resource": {
        "resourceType": "Observation",
        "id": "ad68fdee-890c-44cd-b01c-7f1702e57f3f",
        "meta": {
          "profile": [
            "http://hl7.eu/fhir/laboratory/StructureDefinition/Observation-resultslab-eu-lab"
          ]
        },
        "performer": [
          {
            "display": "The Central European Lab"
          }
        ],
        "category": [
          {
            "coding": [
              {
                "system": "http://terminology.hl7.org/CodeSystem/observation-category",
                "code": "laboratory"
              }
            ]
          }
        ],
        "code": {
          "coding": [
            {
              "code": "5792-7",
              "system": "http://loinc.org",
              "display": "Glucose [Mass/volume] in Urine by Test strip"
            }
          ],
          "text": "Glucose [Mass/volume] in Urine by Test strip"
        },
        "valueQuantity": {
          "system": "http://unitsofmeasure.org",
          "value": 0.8,
          "unit": "mg/dL",
          "code": "mg/dL"
        },
        "referenceRange": [
          {
            "low": {
              "value": 0.8,
              "code": "mg/dL",
              "system": "http://unitsofmeasure.org"
            }
          },
          {
            "high": {
              "value": 0,
              "code": "mg/dL",
              "system": "http://unitsofmeasure.org"
            }
          }
        ],
        "interpretation": [
          {
            "coding": [
              {
                "code": "H",
                "system": "http://terminology.hl7.org/CodeSystem/v3-ObservationInterpretation",
                "display": "High"
              }
            ]
          }
        ],
        "text": {
          "status": "generated",
          "div": "<div xmlns=\"http://www.w3.org/1999/xhtml\"><table class=\"hl7__eu__lab__report\"><tr><th>Test</th><th>18-Jan-2017</th><th>Reference&#xA0;Range</th><th>Unit</th></tr><tr><td>Glucose [Mass/volume] in Urine by Test strip</td><td>0.8</td><td>0.8 - 0</td><td>H</td><td>mg/dL</td></tr></table></div>"
        },
        "status": "final",
        "subject": {
          "reference": "urn:uuid:a95108b7-111c-48fb-b99f-8007cf8dfbd3",
          "display": "Maria Nohlmans"
        },
        "effectiveDateTime": "2017-01-18T11:02:39Z",
        "specimen": {
          "reference": "urn:uuid:3706bdc9-1995-4a24-9ab2-eec0753344de"
        }
      }
    },
    {
      "fullUrl": "urn:uuid:474729df-de2b-4b62-ac52-ac0765ff4d4f",
      "resource": {
        "resourceType": "Observation",
        "id": "474729df-de2b-4b62-ac52-ac0765ff4d4f",
        "meta": {
          "profile": [
            "http://hl7.eu/fhir/laboratory/StructureDefinition/Observation-resultslab-eu-lab"
          ]
        },
        "performer": [
          {
            "display": "The Central European Lab"
          }
        ],
        "category": [
          {
            "coding": [
              {
                "system": "http://terminology.hl7.org/CodeSystem/observation-category",
                "code": "laboratory"
              }
            ]
          }
        ],
        "code": {
          "coding": [
            {
              "code": "25428-4",
              "system": "http://loinc.org",
              "display": "Glucose [Presence] in Urine by Test strip"
            }
          ],
          "text": "Glucose [Presence] in Urine by Test strip"
        },
        "text": {
          "status": "generated",
          "div": "<div xmlns=\"http://www.w3.org/1999/xhtml\"><table class=\"hl7__eu__lab__report\"><tr><th>Test</th><th>18-Jan-2017</th><th>Reference&#xA0;Range</th><th>Unit</th></tr><tr><td>Glucose [Presence] in Urine by Test strip</td></tr></table></div>"
        },
        "status": "final",
        "subject": {
          "reference": "urn:uuid:a95108b7-111c-48fb-b99f-8007cf8dfbd3",
          "display": "Maria Nohlmans"
        },
        "effectiveDateTime": "2017-01-18T11:02:39Z",
        "specimen": {
          "reference": "urn:uuid:3706bdc9-1995-4a24-9ab2-eec0753344de"
        }
      }
    },
    {
      "fullUrl": "urn:uuid:5cefe344-87fc-4a46-ae9e-9592966f2f2f",
      "resource": {
        "resourceType": "Observation",
        "id": "5cefe344-87fc-4a46-ae9e-9592966f2f2f",
        "meta": {
          "profile": [
            "http://hl7.eu/fhir/laboratory/StructureDefinition/Observation-resultslab-eu-lab"
          ]
        },
        "performer": [
          {
            "display": "The Central European Lab"
          }
        ],
        "category": [
          {
            "coding": [
              {
                "system": "http://terminology.hl7.org/CodeSystem/observation-category",
                "code": "laboratory"
              }
            ]
          }
        ],
        "code": {
          "coding": [
            {
              "code": "20505-4",
              "system": "http://loinc.org",
              "display": "Bilirubin.total [Mass/volume] in Urine by Test strip"
            }
          ],
          "text": "Bilirubin.total [Mass/volume] in Urine by Test strip"
        },
        "valueQuantity": {
          "system": "http://unitsofmeasure.org",
          "value": 0.4,
          "unit": "mg/dL",
          "code": "mg/dL"
        },
        "referenceRange": [
          {
            "low": {
              "value": 0,
              "code": "mg/dL",
              "system": "http://unitsofmeasure.org"
            }
          },
          {
            "high": {
              "value": 1.5,
              "code": "mg/dL",
              "system": "http://unitsofmeasure.org"
            }
          }
        ],
        "text": {
          "status": "generated",
          "div": "<div xmlns=\"http://www.w3.org/1999/xhtml\"><table class=\"hl7__eu__lab__report\"><tr><th>Test</th><th>18-Jan-2017</th><th>Reference&#xA0;Range</th><th>Unit</th></tr><tr><td>Bilirubin.total [Mass/volume] in Urine by Test strip</td><td>0.4</td><td>0 - 1.5</td><td></td><td>mg/dL</td></tr></table></div>"
        },
        "status": "final",
        "subject": {
          "reference": "urn:uuid:a95108b7-111c-48fb-b99f-8007cf8dfbd3",
          "display": "Maria Nohlmans"
        },
        "effectiveDateTime": "2017-01-18T11:02:39Z",
        "specimen": {
          "reference": "urn:uuid:3706bdc9-1995-4a24-9ab2-eec0753344de"
        }
      }
    },
    {
      "fullUrl": "urn:uuid:79049cf5-426b-4541-bc17-be369eab5cac",
      "resource": {
        "resourceType": "Observation",
        "id": "79049cf5-426b-4541-bc17-be369eab5cac",
        "meta": {
          "profile": [
            "http://hl7.eu/fhir/laboratory/StructureDefinition/Observation-resultslab-eu-lab"
          ]
        },
        "performer": [
          {
            "display": "The Central European Lab"
          }
        ],
        "category": [
          {
            "coding": [
              {
                "system": "http://terminology.hl7.org/CodeSystem/observation-category",
                "code": "laboratory"
              }
            ]
          }
        ],
        "code": {
          "coding": [
            {
              "code": "5770-3",
              "system": "http://loinc.org",
              "display": "Bilirubin.total [Presence] in Urine by Test strip"
            }
          ],
          "text": "Bilirubin.total [Presence] in Urine by Test strip"
        },
        "text": {
          "status": "generated",
          "div": "<div xmlns=\"http://www.w3.org/1999/xhtml\"><table class=\"hl7__eu__lab__report\"><tr><th>Test</th><th>18-Jan-2017</th><th>Reference&#xA0;Range</th><th>Unit</th></tr><tr><td>Bilirubin.total [Presence] in Urine by Test strip</td></tr></table></div>"
        },
        "status": "final",
        "subject": {
          "reference": "urn:uuid:a95108b7-111c-48fb-b99f-8007cf8dfbd3",
          "display": "Maria Nohlmans"
        },
        "effectiveDateTime": "2017-01-18T11:02:39Z",
        "specimen": {
          "reference": "urn:uuid:3706bdc9-1995-4a24-9ab2-eec0753344de"
        }
      }
    },
    {
      "fullUrl": "urn:uuid:a0e30f20-b241-476d-b6c3-8a47406853f2",
      "resource": {
        "resourceType": "Observation",
        "id": "a0e30f20-b241-476d-b6c3-8a47406853f2",
        "meta": {
          "profile": [
            "http://hl7.eu/fhir/laboratory/StructureDefinition/Observation-resultslab-eu-lab"
          ]
        },
        "performer": [
          {
            "display": "The Central European Lab"
          }
        ],
        "category": [
          {
            "coding": [
              {
                "system": "http://terminology.hl7.org/CodeSystem/observation-category",
                "code": "laboratory"
              }
            ]
          }
        ],
        "code": {
          "coding": [
            {
              "code": "5797-6",
              "system": "http://loinc.org",
              "display": "Ketones [Mass/volume] in Urine by Test strip"
            }
          ],
          "text": "Ketones [Mass/volume] in Urine by Test strip"
        },
        "valueQuantity": {
          "system": "http://unitsofmeasure.org",
          "value": 18,
          "unit": "mg/dL",
          "code": "mg/dL"
        },
        "referenceRange": [
          {
            "low": {
              "value": 0,
              "code": "mg/dL",
              "system": "http://unitsofmeasure.org"
            }
          },
          {
            "high": {
              "value": 8,
              "code": "mg/dL",
              "system": "http://unitsofmeasure.org"
            }
          }
        ],
        "interpretation": [
          {
            "coding": [
              {
                "code": "H",
                "system": "http://terminology.hl7.org/CodeSystem/v3-ObservationInterpretation",
                "display": "High"
              }
            ]
          }
        ],
        "text": {
          "status": "generated",
          "div": "<div xmlns=\"http://www.w3.org/1999/xhtml\"><table class=\"hl7__eu__lab__report\"><tr><th>Test</th><th>18-Jan-2017</th><th>Reference&#xA0;Range</th><th>Unit</th></tr><tr><td>Ketones [Mass/volume] in Urine by Test strip</td><td>18.0</td><td>0 - 8</td><td>H</td><td>mg/dL</td></tr></table></div>"
        },
        "status": "final",
        "subject": {
          "reference": "urn:uuid:a95108b7-111c-48fb-b99f-8007cf8dfbd3",
          "display": "Maria Nohlmans"
        },
        "effectiveDateTime": "2017-01-18T11:02:39Z",
        "specimen": {
          "reference": "urn:uuid:3706bdc9-1995-4a24-9ab2-eec0753344de"
        }
      }
    },
    {
      "fullUrl": "urn:uuid:1c4075aa-ea10-4d2a-8652-047cbb04fc4f",
      "resource": {
        "resourceType": "Observation",
        "id": "1c4075aa-ea10-4d2a-8652-047cbb04fc4f",
        "meta": {
          "profile": [
            "http://hl7.eu/fhir/laboratory/StructureDefinition/Observation-resultslab-eu-lab"
          ]
        },
        "performer": [
          {
            "display": "The Central European Lab"
          }
        ],
        "category": [
          {
            "coding": [
              {
                "system": "http://terminology.hl7.org/CodeSystem/observation-category",
                "code": "laboratory"
              }
            ]
          }
        ],
        "code": {
          "coding": [
            {
              "code": "2514-8",
              "system": "http://loinc.org",
              "display": "Ketones [Presence] in Urine by Test strip"
            }
          ],
          "text": "Ketones [Presence] in Urine by Test strip"
        },
        "text": {
          "status": "generated",
          "div": "<div xmlns=\"http://www.w3.org/1999/xhtml\"><table class=\"hl7__eu__lab__report\"><tr><th>Test</th><th>18-Jan-2017</th><th>Reference&#xA0;Range</th><th>Unit</th></tr><tr><td>Ketones [Presence] in Urine by Test strip</td></tr></table></div>"
        },
        "status": "final",
        "subject": {
          "reference": "urn:uuid:a95108b7-111c-48fb-b99f-8007cf8dfbd3",
          "display": "Maria Nohlmans"
        },
        "effectiveDateTime": "2017-01-18T11:02:39Z",
        "specimen": {
          "reference": "urn:uuid:3706bdc9-1995-4a24-9ab2-eec0753344de"
        }
      }
    },
    {
      "fullUrl": "urn:uuid:a83d0d72-dc8a-4cff-949d-458ce138d104",
      "resource": {
        "resourceType": "Observation",
        "id": "a83d0d72-dc8a-4cff-949d-458ce138d104",
        "meta": {
          "profile": [
            "http://hl7.eu/fhir/laboratory/StructureDefinition/Observation-resultslab-eu-lab"
          ]
        },
        "performer": [
          {
            "display": "The Central European Lab"
          }
        ],
        "category": [
          {
            "coding": [
              {
                "system": "http://terminology.hl7.org/CodeSystem/observation-category",
                "code": "laboratory"
              }
            ]
          }
        ],
        "code": {
          "coding": [
            {
              "code": "5811-5",
              "system": "http://loinc.org",
              "display": "Specific gravity of Urine by Test strip"
            }
          ],
          "text": "Specific gravity of Urine by Test strip"
        },
        "valueQuantity": {
          "system": "http://unitsofmeasure.org",
          "value": 1,
          "unit": "{nominal}",
          "code": "{nominal}"
        },
        "referenceRange": [
          {
            "low": {
              "value": 1.01,
              "code": "g/mL",
              "system": "http://unitsofmeasure.org"
            }
          },
          {
            "high": {
              "value": 1.03,
              "code": "g/mL",
              "system": "http://unitsofmeasure.org"
            }
          }
        ],
        "interpretation": [
          {
            "coding": [
              {
                "code": "L",
                "system": "http://terminology.hl7.org/CodeSystem/v3-ObservationInterpretation",
                "display": "Low"
              }
            ]
          }
        ],
        "text": {
          "status": "generated",
          "div": "<div xmlns=\"http://www.w3.org/1999/xhtml\"><table class=\"hl7__eu__lab__report\"><tr><th>Test</th><th>18-Jan-2017</th><th>Reference&#xA0;Range</th><th>Unit</th></tr><tr><td>Specific gravity of Urine by Test strip</td><td>1.0</td><td>1.01 - 1.03</td><td>L</td><td>{nominal}</td></tr></table></div>"
        },
        "status": "final",
        "subject": {
          "reference": "urn:uuid:a95108b7-111c-48fb-b99f-8007cf8dfbd3",
          "display": "Maria Nohlmans"
        },
        "effectiveDateTime": "2017-01-18T11:02:39Z",
        "specimen": {
          "reference": "urn:uuid:3706bdc9-1995-4a24-9ab2-eec0753344de"
        }
      }
    },
    {
      "fullUrl": "urn:uuid:fa4659aa-3650-4b64-9866-81ab83bf9f0f",
      "resource": {
        "resourceType": "Observation",
        "id": "fa4659aa-3650-4b64-9866-81ab83bf9f0f",
        "meta": {
          "profile": [
            "http://hl7.eu/fhir/laboratory/StructureDefinition/Observation-resultslab-eu-lab"
          ]
        },
        "performer": [
          {
            "display": "The Central European Lab"
          }
        ],
        "category": [
          {
            "coding": [
              {
                "system": "http://terminology.hl7.org/CodeSystem/observation-category",
                "code": "laboratory"
              }
            ]
          }
        ],
        "code": {
          "coding": [
            {
              "code": "5803-2",
              "system": "http://loinc.org",
              "display": "pH of Urine by Test strip"
            }
          ],
          "text": "pH of Urine by Test strip"
        },
        "valueQuantity": {
          "system": "http://unitsofmeasure.org",
          "value": 5.2,
          "unit": "pH",
          "code": "pH"
        },
        "referenceRange": [
          {
            "low": {
              "value": 4.6,
              "code": "pH",
              "system": "http://unitsofmeasure.org"
            }
          },
          {
            "high": {
              "value": 7.5,
              "code": "pH",
              "system": "http://unitsofmeasure.org"
            }
          }
        ],
        "text": {
          "status": "generated",
          "div": "<div xmlns=\"http://www.w3.org/1999/xhtml\"><table class=\"hl7__eu__lab__report\"><tr><th>Test</th><th>18-Jan-2017</th><th>Reference&#xA0;Range</th><th>Unit</th></tr><tr><td>pH of Urine by Test strip</td><td>5.2</td><td>4.6 - 7.5</td><td></td><td>pH</td></tr></table></div>"
        },
        "status": "final",
        "subject": {
          "reference": "urn:uuid:a95108b7-111c-48fb-b99f-8007cf8dfbd3",
          "display": "Maria Nohlmans"
        },
        "effectiveDateTime": "2017-01-18T11:02:39Z",
        "specimen": {
          "reference": "urn:uuid:3706bdc9-1995-4a24-9ab2-eec0753344de"
        }
      }
    },
    {
      "fullUrl": "urn:uuid:1e96deed-4624-444e-928c-aa856acc84c1",
      "resource": {
        "resourceType": "Observation",
        "id": "1e96deed-4624-444e-928c-aa856acc84c1",
        "meta": {
          "profile": [
            "http://hl7.eu/fhir/laboratory/StructureDefinition/Observation-resultslab-eu-lab"
          ]
        },
        "performer": [
          {
            "display": "The Central European Lab"
          }
        ],
        "category": [
          {
            "coding": [
              {
                "system": "http://terminology.hl7.org/CodeSystem/observation-category",
                "code": "laboratory"
              }
            ]
          }
        ],
        "code": {
          "coding": [
            {
              "code": "5804-0",
              "system": "http://loinc.org",
              "display": "Protein [Mass/volume] in Urine by Test strip"
            }
          ],
          "text": "Protein [Mass/volume] in Urine by Test strip"
        },
        "valueQuantity": {
          "system": "http://unitsofmeasure.org",
          "value": 436.3,
          "unit": "mg/dL",
          "code": "mg/dL"
        },
        "referenceRange": [
          {
            "low": {
              "value": 0,
              "code": "mg/dL",
              "system": "http://unitsofmeasure.org"
            }
          },
          {
            "high": {
              "value": 14,
              "code": "mg/dL",
              "system": "http://unitsofmeasure.org"
            }
          }
        ],
        "interpretation": [
          {
            "coding": [
              {
                "code": "H",
                "system": "http://terminology.hl7.org/CodeSystem/v3-ObservationInterpretation",
                "display": "High"
              }
            ]
          }
        ],
        "text": {
          "status": "generated",
          "div": "<div xmlns=\"http://www.w3.org/1999/xhtml\"><table class=\"hl7__eu__lab__report\"><tr><th>Test</th><th>18-Jan-2017</th><th>Reference&#xA0;Range</th><th>Unit</th></tr><tr><td>Protein [Mass/volume] in Urine by Test strip</td><td>436.3</td><td>0 - 14</td><td>H</td><td>mg/dL</td></tr></table></div>"
        },
        "status": "final",
        "subject": {
          "reference": "urn:uuid:a95108b7-111c-48fb-b99f-8007cf8dfbd3",
          "display": "Maria Nohlmans"
        },
        "effectiveDateTime": "2017-01-18T11:02:39Z",
        "specimen": {
          "reference": "urn:uuid:3706bdc9-1995-4a24-9ab2-eec0753344de"
        }
      }
    },
    {
      "fullUrl": "urn:uuid:cd28ea79-9fc5-4750-b148-df1bec17b6bf",
      "resource": {
        "resourceType": "Observation",
        "id": "cd28ea79-9fc5-4750-b148-df1bec17b6bf",
        "meta": {
          "profile": [
            "http://hl7.eu/fhir/laboratory/StructureDefinition/Observation-resultslab-eu-lab"
          ]
        },
        "performer": [
          {
            "display": "The Central European Lab"
          }
        ],
        "category": [
          {
            "coding": [
              {
                "system": "http://terminology.hl7.org/CodeSystem/observation-category",
                "code": "laboratory"
              }
            ]
          }
        ],
        "code": {
          "coding": [
            {
              "code": "20454-5",
              "system": "http://loinc.org",
              "display": "Protein [Presence] in Urine by Test strip"
            }
          ],
          "text": "Protein [Presence] in Urine by Test strip"
        },
        "text": {
          "status": "generated",
          "div": "<div xmlns=\"http://www.w3.org/1999/xhtml\"><table class=\"hl7__eu__lab__report\"><tr><th>Test</th><th>18-Jan-2017</th><th>Reference&#xA0;Range</th><th>Unit</th></tr><tr><td>Protein [Presence] in Urine by Test strip</td></tr></table></div>"
        },
        "status": "final",
        "subject": {
          "reference": "urn:uuid:a95108b7-111c-48fb-b99f-8007cf8dfbd3",
          "display": "Maria Nohlmans"
        },
        "effectiveDateTime": "2017-01-18T11:02:39Z",
        "specimen": {
          "reference": "urn:uuid:3706bdc9-1995-4a24-9ab2-eec0753344de"
        }
      }
    },
    {
      "fullUrl": "urn:uuid:aa8207b5-a546-44eb-81d4-cb436f1dbd7d",
      "resource": {
        "resourceType": "Observation",
        "id": "aa8207b5-a546-44eb-81d4-cb436f1dbd7d",
        "meta": {
          "profile": [
            "http://hl7.eu/fhir/laboratory/StructureDefinition/Observation-resultslab-eu-lab"
          ]
        },
        "performer": [
          {
            "display": "The Central European Lab"
          }
        ],
        "category": [
          {
            "coding": [
              {
                "system": "http://terminology.hl7.org/CodeSystem/observation-category",
                "code": "laboratory"
              }
            ]
          }
        ],
        "code": {
          "coding": [
            {
              "code": "5802-4",
              "system": "http://loinc.org",
              "display": "Nitrite [Presence] in Urine by Test strip"
            }
          ],
          "text": "Nitrite [Presence] in Urine by Test strip"
        },
        "text": {
          "status": "generated",
          "div": "<div xmlns=\"http://www.w3.org/1999/xhtml\"><table class=\"hl7__eu__lab__report\"><tr><th>Test</th><th>18-Jan-2017</th><th>Reference&#xA0;Range</th><th>Unit</th></tr><tr><td>Nitrite [Presence] in Urine by Test strip</td></tr></table></div>"
        },
        "status": "final",
        "subject": {
          "reference": "urn:uuid:a95108b7-111c-48fb-b99f-8007cf8dfbd3",
          "display": "Maria Nohlmans"
        },
        "effectiveDateTime": "2017-01-18T11:02:39Z",
        "specimen": {
          "reference": "urn:uuid:3706bdc9-1995-4a24-9ab2-eec0753344de"
        }
      }
    },
    {
      "fullUrl": "urn:uuid:44ff6c9a-8af9-44d5-8150-93cdabb5b48e",
      "resource": {
        "resourceType": "Observation",
        "id": "44ff6c9a-8af9-44d5-8150-93cdabb5b48e",
        "meta": {
          "profile": [
            "http://hl7.eu/fhir/laboratory/StructureDefinition/Observation-resultslab-eu-lab"
          ]
        },
        "performer": [
          {
            "display": "The Central European Lab"
          }
        ],
        "category": [
          {
            "coding": [
              {
                "system": "http://terminology.hl7.org/CodeSystem/observation-category",
                "code": "laboratory"
              }
            ]
          }
        ],
        "code": {
          "coding": [
            {
              "code": "5794-3",
              "system": "http://loinc.org",
              "display": "Hemoglobin [Presence] in Urine by Test strip"
            }
          ],
          "text": "Hemoglobin [Presence] in Urine by Test strip"
        },
        "text": {
          "status": "generated",
          "div": "<div xmlns=\"http://www.w3.org/1999/xhtml\"><table class=\"hl7__eu__lab__report\"><tr><th>Test</th><th>18-Jan-2017</th><th>Reference&#xA0;Range</th><th>Unit</th></tr><tr><td>Hemoglobin [Presence] in Urine by Test strip</td></tr></table></div>"
        },
        "status": "final",
        "subject": {
          "reference": "urn:uuid:a95108b7-111c-48fb-b99f-8007cf8dfbd3",
          "display": "Maria Nohlmans"
        },
        "effectiveDateTime": "2017-01-18T11:02:39Z",
        "specimen": {
          "reference": "urn:uuid:3706bdc9-1995-4a24-9ab2-eec0753344de"
        }
      }
    },
    {
      "fullUrl": "urn:uuid:19a466ef-3434-4fce-bd14-288b4d5f2ff4",
      "resource": {
        "resourceType": "Observation",
        "id": "19a466ef-3434-4fce-bd14-288b4d5f2ff4",
        "meta": {
          "profile": [
            "http://hl7.eu/fhir/laboratory/StructureDefinition/Observation-resultslab-eu-lab"
          ]
        },
        "performer": [
          {
            "display": "The Central European Lab"
          }
        ],
        "category": [
          {
            "coding": [
              {
                "system": "http://terminology.hl7.org/CodeSystem/observation-category",
                "code": "laboratory"
              }
            ]
          }
        ],
        "code": {
          "coding": [
            {
              "code": "5799-2",
              "system": "http://loinc.org",
              "display": "Leukocyte esterase [Presence] in Urine by Test strip"
            }
          ],
          "text": "Leukocyte esterase [Presence] in Urine by Test strip"
        },
        "text": {
          "status": "generated",
          "div": "<div xmlns=\"http://www.w3.org/1999/xhtml\"><table class=\"hl7__eu__lab__report\"><tr><th>Test</th><th>18-Jan-2017</th><th>Reference&#xA0;Range</th><th>Unit</th></tr><tr><td>Leukocyte esterase [Presence] in Urine by Test strip</td></tr></table></div>"
        },
        "status": "final",
        "subject": {
          "reference": "urn:uuid:a95108b7-111c-48fb-b99f-8007cf8dfbd3",
          "display": "Maria Nohlmans"
        },
        "effectiveDateTime": "2017-01-18T11:02:39Z",
        "specimen": {
          "reference": "urn:uuid:3706bdc9-1995-4a24-9ab2-eec0753344de"
        }
      }
    },
    {
      "fullUrl": "urn:uuid:90c1dbba-9be1-4c57-a20d-549c82d4c850",
      "resource": {
        "resourceType": "Observation",
        "id": "90c1dbba-9be1-4c57-a20d-549c82d4c850",
        "meta": {
          "profile": [
            "http://hl7.eu/fhir/laboratory/StructureDefinition/Observation-resultslab-eu-lab"
          ]
        },
        "performer": [
          {
            "display": "The Central European Lab"
          }
        ],
        "category": [
          {
            "coding": [
              {
                "system": "http://terminology.hl7.org/CodeSystem/observation-category",
                "code": "laboratory"
              }
            ]
          }
        ],
        "code": {
          "coding": [
            {
              "code": "4548-4",
              "system": "http://loinc.org",
              "display": "Hemoglobin A1c/Hemoglobin.total in Blood"
            }
          ],
          "text": "Hemoglobin A1c/Hemoglobin.total in Blood"
        },
        "valueQuantity": {
          "system": "http://unitsofmeasure.org",
          "value": 3.1,
          "unit": "%",
          "code": "%"
        },
        "referenceRange": [
          {
            "low": {
              "value": 4.5,
              "code": "%",
              "system": "http://unitsofmeasure.org"
            }
          },
          {
            "high": {
              "value": 6.4,
              "code": "%",
              "system": "http://unitsofmeasure.org"
            }
          }
        ],
        "interpretation": [
          {
            "coding": [
              {
                "code": "L",
                "system": "http://terminology.hl7.org/CodeSystem/v3-ObservationInterpretation",
                "display": "Low"
              }
            ]
          }
        ],
        "text": {
          "status": "generated",
          "div": "<div xmlns=\"http://www.w3.org/1999/xhtml\"><table class=\"hl7__eu__lab__report\"><tr><th>Test</th><th>18-Jan-2017</th><th>Reference&#xA0;Range</th><th>Unit</th></tr><tr><td>Hemoglobin A1c/Hemoglobin.total in Blood</td><td>3.1</td><td>4.5 - 6.4</td><td>L</td><td>%</td></tr></table></div>"
        },
        "status": "final",
        "subject": {
          "reference": "urn:uuid:a95108b7-111c-48fb-b99f-8007cf8dfbd3",
          "display": "Maria Nohlmans"
        },
        "effectiveDateTime": "2017-01-18T11:02:39Z",
        "specimen": {
          "reference": "urn:uuid:fd5706ef-9617-43a2-b1b4-f0c585b40196"
        }
      }
    },
    {
      "fullUrl": "urn:uuid:8ba092b0-4918-4c24-86ce-b5640d3c25fd",
      "resource": {
        "resourceType": "Device",
        "id": "8ba092b0-4918-4c24-86ce-b5640d3c25fd",
        "deviceName": [
          {
            "name": "SYNDERAI Synthetic Generator",
            "type": "manufacturer-name"
          }
        ],
        "version": [
          {
            "value": "5.0"
          }
        ],
        "text": {
          "status": "generated",
          "div": "<div xmlns=\"http://www.w3.org/1999/xhtml\">SYNDERAI Synthetic Generator v5.0</div>"
        },
        "status": "active\"",
        "distinctIdentifier": "synderai-generator-50",
        "manufacturer": "SYNDERAI Project"
      }
    },
    {
      "fullUrl": "urn:uuid:c2235722-b1f4-471a-9f3f-f515409523e4",
      "resource": {
        "resourceType": "Provenance",
        "id": "c2235722-b1f4-471a-9f3f-f515409523e4",
        "target": [
          {
            "reference": "Patient/a95108b7-111c-48fb-b99f-8007cf8dfbd3"
          },
          {
            "reference": "Bundle/8c5b9dc0-0fd6-4a3d-aea9-4cb2bf536a24"
          },
          {
            "reference": "Composition/17351f1f-63e0-45f9-9ba3-1780692a39bf"
          },
          {
            "reference": "PractitionerRole/bcec967e-36bb-4bb0-b999-f51b4eb6568c"
          },
          {
            "reference": "Practitioner/9274b031-130d-44e6-a314-56d0bc0a2a02"
          },
          {
            "reference": "PractitionerRole/35b073b1-0a35-42f1-aaef-a8c12a610f7c"
          },
          {
            "reference": "Organization/9bb154a3-bea9-455d-a628-6bdf646fa5bb"
          }
        ],
        "activity": {
          "text": "Synthetic Example Data Generation"
        },
        "policy": [
          "https://synderai.net/synderai-synthetic-data-policy"
        ],
        "agent": [
          {
            "type": {
              "text": "author"
            },
            "who": {
              "reference": "Device/8ba092b0-4918-4c24-86ce-b5640d3c25fd"
            }
          }
        ],
        "reason": [
          {
            "text": "Interoperability Testing and Training (non-clinical use)"
          }
        ],
        "text": {
          "status": "generated",
          "div": "<div xmlns=\"http://www.w3.org/1999/xhtml\">Provenance for SYNDERAI Synthetic Example Data Resource</div>"
        },
        "recorded": "2017-01-18T12:02:39Z"
      }
    },
    {
      "fullUrl": "urn:uuid:bcec967e-36bb-4bb0-b999-f51b4eb6568c",
      "resource": {
        "resourceType": "PractitionerRole",
        "id": "bcec967e-36bb-4bb0-b999-f51b4eb6568c",
        "meta": {
          "profile": [
            "http://hl7.eu/fhir/base/StructureDefinition/practitionerRole-eu"
          ]
        },
        "text": {
          "status": "generated",
          "div": "<div xmlns=\"http://www.w3.org/1999/xhtml\">Laboratory Role Id: bcec967e-36bb-4bb0-b999-f51b4eb6568c</div>"
        },
        "practitioner": {
          "reference": "urn:uuid:9274b031-130d-44e6-a314-56d0bc0a2a02"
        }
      }
    },
    {
      "fullUrl": "urn:uuid:9274b031-130d-44e6-a314-56d0bc0a2a02",
      "resource": {
        "resourceType": "Practitioner",
        "id": "9274b031-130d-44e6-a314-56d0bc0a2a02",
        "meta": {
          "profile": [
            "http://hl7.eu/fhir/base/StructureDefinition/practitioner-eu"
          ]
        },
        "identifier": [
          {
            "assigner": {
              "display": "HL7 Europe"
            },
            "system": "urn:oid:2.16.840.1.113883.2.51.999",
            "value": "f06ec35e-0c26-4f59-b014-d52c1b02efd8"
          }
        ],
        "name": [
          {
            "prefix": [
              "dr"
            ],
            "given": [
              "Ex"
            ],
            "family": "Ample"
          }
        ],
        "address": [
          {
            "line": [
              "Laboratoire Central Européenne",
              "Boulevard du Jardin Botanique 32"
            ],
            "postalCode": "1000",
            "city": "Brussels",
            "country": "Belgium"
          }
        ],
        "text": {
          "status": "generated",
          "div": "<div xmlns=\"http://www.w3.org/1999/xhtml\">Laboratory: Laboratoire Central Européenne, 1000 Brussels, Belgium</div>"
        }
      }
    }
  ],
  "type": "document",
  "timestamp": "2017-01-18T12:02:39Z"
}
