{
  "resourceType": "Bundle",
  "id": "d8f5a049-2f3f-4c38-8b9f-ee727542b0ac",
  "meta": {
    "profile": [
      "http://hl7.eu/fhir/laboratory/StructureDefinition/Bundle-eu-lab"
    ]
  },
  "identifier": {
    "assigner": {
      "display": "HL7 Europe"
    },
    "system": "urn:oid:2.16.840.1.113883.2.51.999",
    "value": "90d26ae1-1c0e-4527-8999-e5671f0e0961"
  },
  "entry": [
    {
      "fullUrl": "urn:uuid:15ff3518-4259-4cfc-9f11-7e9948a41d9e",
      "resource": {
        "resourceType": "Composition",
        "id": "15ff3518-4259-4cfc-9f11-7e9948a41d9e",
        "meta": {
          "profile": [
            "http://hl7.eu/fhir/laboratory/StructureDefinition/Composition-eu-lab"
          ]
        },
        "identifier": {
          "assigner": {
            "display": "HL7 Europe"
          },
          "system": "urn:oid:2.16.840.1.113883.2.51.999",
          "value": "ed23e2b5-78c9-4f99-8892-0596fb534417"
        },
        "author": [
          {
            "reference": "urn:uuid:57addb66-052e-4e48-9249-719b8f17dd63"
          }
        ],
        "category": [
          {
            "coding": [
              {
                "code": "26436-6",
                "system": "http://loinc.org",
                "display": "Laboratory studies (set)"
              }
            ]
          }
        ],
        "type": {
          "coding": [
            {
              "code": "11502-2",
              "system": "http://loinc.org",
              "display": "Laboratory report"
            }
          ],
          "text": "Laboratory Report"
        },
        "section": [
          {
            "code": {
              "coding": [
                {
                  "code": "26436-6",
                  "system": "http://loinc.org",
                  "display": "Laboratory studies (set)"
                }
              ],
              "text": "Laboratory studies"
            },
            "section": [
              {
                "code": {
                  "coding": [
                    {
                      "code": "$18723-7",
                      "system": "http://loinc.org",
                      "display": "Hematology studies (set)"
                    }
                  ],
                  "text": "Hematology"
                },
                "entry": [
                  {
                    "reference": "urn:uuid:0d1b43bf-cc04-4389-8e5b-56f930245e7c"
                  },
                  {
                    "reference": "urn:uuid:fe5755f0-94a4-4c9f-8320-72c2258c32e9"
                  },
                  {
                    "reference": "urn:uuid:de6991f2-7e39-4657-9d82-4b64c80aad1f"
                  },
                  {
                    "reference": "urn:uuid:6287f750-74b1-4328-9b7a-a980701a021c"
                  },
                  {
                    "reference": "urn:uuid:2e2816a6-9013-449a-a0d5-23d5ad158d46"
                  },
                  {
                    "reference": "urn:uuid:058e36fc-f2d4-4e32-aadd-5b1e08ee2037"
                  },
                  {
                    "reference": "urn:uuid:25d09660-ad75-4b01-907e-be36f9eab494"
                  },
                  {
                    "reference": "urn:uuid:9cc1ed4a-cfc5-4432-a27f-a570f2445344"
                  },
                  {
                    "reference": "urn:uuid:f24caa7b-8426-4fa8-84c3-ca9fb2fe00b6"
                  },
                  {
                    "reference": "urn:uuid:d7e42a0a-7b85-470a-9cbf-fd0784447909"
                  },
                  {
                    "reference": "urn:uuid:a91b6c79-f6fe-4eb9-a018-2113222b3964"
                  }
                ],
                "text": {
                  "status": "generated",
                  "div": "<div xmlns=\"http://www.w3.org/1999/xhtml\"><h3>Hematology</h3><table class=\"hl7__eu__lab__report\"><thead><tr><th>Test</th><th>31-JUL-2021</th><th>Reference&#xA0;Range</th><th>Unit</th></tr></thead><tbody><tr><td>Leukocytes [#/volume] in Blood by Automated count</td><td>8.1</td><td>3.5 - 10.5</td><td>10*3/uL</td></tr><tr><td>Erythrocytes [#/volume] in Blood by Automated count</td><td>4.7</td><td>4.5 - 5.7</td><td>10*6/uL</td></tr><tr><td>Hemoglobin [Mass/volume] in Blood</td><td>17.1</td><td>14 - 18</td><td>g/dL</td></tr><tr><td>Hematocrit [Volume Fraction] of Blood by Automated count</td><td><strong>36.9 L</strong></td><td>38 - 50</td><td>%</td></tr><tr><td>MCV [Entitic volume] by Automated count</td><td>90.7</td><td>82 - 98</td><td>fL</td></tr><tr><td>MCH [Entitic mass] by Automated count</td><td>29.1</td><td>27 - 33</td><td>pg</td></tr><tr><td>MCHC [Mass/volume] by Automated count</td><td>34.1</td><td>31 - 36</td><td>g/dL</td></tr><tr><td>Erythrocyte distribution width [Entitic volume] by Automated count</td><td>44.2</td><td>39 - 55</td><td>fL</td></tr><tr><td>Platelets [#/volume] in Blood by Automated count</td><td>302.2</td><td>150 - 350</td><td>10*3/uL</td></tr><tr><td>Platelet distribution width [Entitic volume] in Blood by Automated count</td><td>202.9</td><td>144 - 366</td><td>fL</td></tr><tr><td>Platelet mean volume [Entitic volume] in Blood by Automated count</td><td>12.0</td><td>9.8 - 13.8</td><td>fL</td></tr></tbody></table></div>"
                },
                "title": "Hematology"
              },
              {
                "code": {
                  "coding": [
                    {
                      "code": "$18719-5",
                      "system": "http://loinc.org",
                      "display": "Chemistry studies (set)"
                    }
                  ],
                  "text": "Chemistry"
                },
                "entry": [
                  {
                    "reference": "urn:uuid:14de04b3-cd78-4a2c-84ba-fda35a59736f"
                  },
                  {
                    "reference": "urn:uuid:3a8589c8-caad-457e-bf56-99cf38453a95"
                  },
                  {
                    "reference": "urn:uuid:44cbac27-f626-4576-97e5-ac19fe9fb26a"
                  },
                  {
                    "reference": "urn:uuid:47f90144-78d8-4d12-8c20-704882ef08b7"
                  },
                  {
                    "reference": "urn:uuid:6b99e043-2fd8-4107-b1af-d3efd17ee456"
                  },
                  {
                    "reference": "urn:uuid:3b44f694-a8c0-42a0-a007-859c486a9e8d"
                  },
                  {
                    "reference": "urn:uuid:671e6577-a87a-44b0-a775-e4643c9b64f2"
                  },
                  {
                    "reference": "urn:uuid:eaa44dde-94b2-4be8-b3b9-5b7fb812f191"
                  },
                  {
                    "reference": "urn:uuid:65d0f4c6-d26f-4120-8076-9810a85c0c96"
                  }
                ],
                "text": {
                  "status": "generated",
                  "div": "<div xmlns=\"http://www.w3.org/1999/xhtml\"><h3>Chemistry</h3><table class=\"hl7__eu__lab__report\"><thead><tr><th>Test</th><th>31-JUL-2021</th><th>Reference&#xA0;Range</th><th>Unit</th></tr></thead><tbody><tr><td>Hemoglobin A1c/Hemoglobin.total in Blood</td><td>6.0</td><td>4.3 - 6.4</td><td>%</td></tr><tr><td>Glucose [Mass/volume] in Blood</td><td>70.7</td><td>70 - 140</td><td>mg/dL</td></tr><tr><td>Urea nitrogen [Mass/volume] in Blood</td><td>11.2</td><td>7 - 20</td><td>mg/dL</td></tr><tr><td>Creatinine [Mass/volume] in Blood</td><td><strong>1.4 H</strong></td><td>0.6 - 1.3</td><td>mg/dL</td></tr><tr><td>Calcium [Mass/volume] in Blood</td><td>9.3</td><td>8.5 - 10.5</td><td>mg/dL</td></tr><tr><td>Sodium [Moles/volume] in Blood</td><td>143.8</td><td>135 - 145</td><td>mmol/L</td></tr><tr><td>Potassium [Moles/volume] in Blood</td><td>4.1</td><td>3.5 - 5.3</td><td>mmol/L</td></tr><tr><td>Chloride [Moles/volume] in Blood</td><td>109.4</td><td>98 - 110</td><td>mmol/L</td></tr><tr><td>Carbon dioxide, total [Moles/volume] in Blood</td><td>22.1</td><td>22 - 29</td><td>mmol/L</td></tr></tbody></table></div>"
                },
                "title": "Chemistry"
              }
            ],
            "title": "Laboratory Report"
          },
          {
            "text": {
              "status": "generated",
              "div": "<div xmlns=\"http://www.w3.org/1999/xhtml\"><h3>Annotation</h3><table class=\"hl7__eu__lab__report\"><tr><th>Conclusion and Recommendations based on this report and previous findings known to us</th></tr><tr><td>Most parameters are within normal limits. There is a mildly elevated creatinine, which may suggest reduced renal function, and a slightly low hematocrit, though other red cell indices are normal. Glucose control (HbA1c) is within target. No evidence of acute infection or hematologic abnormality. Recommend monitoring renal function and considering further evaluation if creatinine remains elevated.</td></tr></table></div>"
            },
            "code": {
              "coding": [
                {
                  "system": "http://loinc.org",
                  "code": "48767-8",
                  "display": "Annotation comment"
                }
              ]
            },
            "title": "Annotation comment"
          }
        ],
        "status": "final",
        "subject": {
          "reference": "urn:uuid:1c273157-fc1f-4894-9ff8-586dd15aa741",
          "display": "Andrzej Frydrychowicz"
        },
        "date": "2021-07-31T23:33:04Z",
        "title": "Laboratory Report",
        "confidentiality": "N"
      }
    },
    {
      "fullUrl": "urn:uuid:583aac3d-55bf-4f3e-b97c-8b0f28bca3df",
      "resource": {
        "resourceType": "DiagnosticReport",
        "id": "583aac3d-55bf-4f3e-b97c-8b0f28bca3df",
        "meta": {
          "profile": [
            "http://hl7.eu/fhir/laboratory/StructureDefinition/DiagnosticReport-eu-lab"
          ]
        },
        "identifier": [
          {
            "assigner": {
              "display": "HL7 Europe"
            },
            "system": "urn:oid:2.16.840.1.113883.2.51.999",
            "value": "66988027-a4a7-4b27-8558-42af286746fd"
          }
        ],
        "extension": [
          {
            "url": "http://hl7.org/fhir/5.0/StructureDefinition/extension-DiagnosticReport.composition",
            "valueReference": {
              "reference": "urn:uuid:ed23e2b5-78c9-4f99-8892-0596fb534417"
            }
          }
        ],
        "category": [
          {
            "coding": [
              {
                "code": "26436-6",
                "system": "http://loinc.org",
                "display": "Laboratory studies (set)"
              }
            ]
          }
        ],
        "specimen": [
          {
            "reference": "urn:uuid:7510eecc-f196-4dd6-a692-1ca82902e086"
          },
          {
            "reference": "urn:uuid:7510eecc-f196-4dd6-a692-1ca82902e086"
          }
        ],
        "result": [
          {
            "reference": "urn:uuid:14de04b3-cd78-4a2c-84ba-fda35a59736f"
          },
          {
            "reference": "urn:uuid:3a8589c8-caad-457e-bf56-99cf38453a95"
          },
          {
            "reference": "urn:uuid:44cbac27-f626-4576-97e5-ac19fe9fb26a"
          },
          {
            "reference": "urn:uuid:47f90144-78d8-4d12-8c20-704882ef08b7"
          },
          {
            "reference": "urn:uuid:6b99e043-2fd8-4107-b1af-d3efd17ee456"
          },
          {
            "reference": "urn:uuid:3b44f694-a8c0-42a0-a007-859c486a9e8d"
          },
          {
            "reference": "urn:uuid:671e6577-a87a-44b0-a775-e4643c9b64f2"
          },
          {
            "reference": "urn:uuid:eaa44dde-94b2-4be8-b3b9-5b7fb812f191"
          },
          {
            "reference": "urn:uuid:65d0f4c6-d26f-4120-8076-9810a85c0c96"
          },
          {
            "reference": "urn:uuid:0d1b43bf-cc04-4389-8e5b-56f930245e7c"
          },
          {
            "reference": "urn:uuid:fe5755f0-94a4-4c9f-8320-72c2258c32e9"
          },
          {
            "reference": "urn:uuid:de6991f2-7e39-4657-9d82-4b64c80aad1f"
          },
          {
            "reference": "urn:uuid:6287f750-74b1-4328-9b7a-a980701a021c"
          },
          {
            "reference": "urn:uuid:2e2816a6-9013-449a-a0d5-23d5ad158d46"
          },
          {
            "reference": "urn:uuid:058e36fc-f2d4-4e32-aadd-5b1e08ee2037"
          },
          {
            "reference": "urn:uuid:25d09660-ad75-4b01-907e-be36f9eab494"
          },
          {
            "reference": "urn:uuid:9cc1ed4a-cfc5-4432-a27f-a570f2445344"
          },
          {
            "reference": "urn:uuid:f24caa7b-8426-4fa8-84c3-ca9fb2fe00b6"
          },
          {
            "reference": "urn:uuid:d7e42a0a-7b85-470a-9cbf-fd0784447909"
          },
          {
            "reference": "urn:uuid:a91b6c79-f6fe-4eb9-a018-2113222b3964"
          }
        ],
        "status": "registered",
        "code": {
          "coding": [
            {
              "code": "11502-2",
              "system": "http://loinc.org",
              "display": "Laboratory report"
            }
          ]
        },
        "subject": {
          "reference": "urn:uuid:1c273157-fc1f-4894-9ff8-586dd15aa741",
          "display": "Andrzej Frydrychowicz"
        }
      }
    },
    {
      "fullUrl": "urn:uuid:1c273157-fc1f-4894-9ff8-586dd15aa741",
      "resource": {
        "resourceType": "Patient",
        "id": "1c273157-fc1f-4894-9ff8-586dd15aa741",
        "meta": {
          "security": [
            {
              "system": "http://terminology.hl7.org/CodeSystem/v3-ActReason",
              "code": "HTEST"
            },
            {
              "system": "http://terminology.hl7.org/CodeSystem/v3-ActReason",
              "code": "TRAIN"
            }
          ],
          "tag": [
            {
              "system": "https://synderai.net/fhir/CodeSystem/tags",
              "code": "synthetic",
              "display": "SYNDERAI Synthetic data"
            }
          ],
          "profile": [
            "http://hl7.eu/fhir/base/StructureDefinition/patient-eu-core"
          ]
        },
        "identifier": [
          {
            "type": {
              "coding": [
                {
                  "code": "PT",
                  "system": "http://terminology.hl7.org/CodeSystem/v2-0203"
                }
              ]
            },
            "system": "http://ec.europa.eu/identifier/eci",
            "value": "7036-931598-4"
          },
          {
            "type": {
              "coding": [
                {
                  "code": "MR",
                  "system": "http://terminology.hl7.org/CodeSystem/v2-0203"
                }
              ]
            },
            "system": "http://local.setting.eu/identifier",
            "value": "c84bd820-cdcf-9bc1-d9ba-aa083a5eb400"
          }
        ],
        "name": [
          {
            "family": "Frydrychowicz"
          },
          {
            "given": [
              "Andrzej"
            ]
          },
          {
            "text": "Andrzej Frydrychowicz"
          }
        ],
        "address": [
          {
            "line": [
              "aleja Tulipanowa 94"
            ],
            "use": "home",
            "type": "physical",
            "postalCode": "21-040",
            "city": "Świdnik",
            "country": "Poland"
          }
        ],
        "telecom": [
          {
            "system": "phone",
            "value": "516 092 560"
          }
        ],
        "extension": [
          {
            "url": "http://hl7.org/fhir/StructureDefinition/patient-nationality",
            "valueCodeableConcept": {
              "coding": [
                {
                  "code": "PL",
                  "system": "http://hl7.org/fhir/ValueSet/country"
                }
              ]
            }
          }
        ],
        "text": {
          "status": "generated",
          "div": "<div xmlns=\"http://www.w3.org/1999/xhtml\"><table class=\"hl7__ips\"><tr><td>Andrzej Frydrychowicz</td><td>male</td><td>12-Apr-1974</td></tr></table></div>"
        },
        "gender": "male",
        "birthDate": "1974-04-12"
      }
    },
    {
      "fullUrl": "urn:uuid:6f007f72-979e-454a-b0eb-0bfbef969109",
      "resource": {
        "resourceType": "ServiceRequest",
        "id": "6f007f72-979e-454a-b0eb-0bfbef969109",
        "meta": {
          "profile": [
            "http://hl7.eu/fhir/laboratory/StructureDefinition/ServiceRequest-eu-lab"
          ]
        },
        "identifier": [
          {
            "system": "http://example.org",
            "value": "9b8d7335-1824-48ac-9032-6acff1d5379b"
          }
        ],
        "specimen": [
          {
            "reference": "urn:uuid:7510eecc-f196-4dd6-a692-1ca82902e086"
          }
        ],
        "reasonCode": [
          {
            "coding": [
              {
                "code": "414545008",
                "system": "http://snomed.info/sct",
                "display": "Ischemic heart disease"
              }
            ]
          },
          {
            "coding": [
              {
                "code": "239873007",
                "system": "http://snomed.info/sct",
                "display": "Osteoarthritis of knee"
              }
            ]
          },
          {
            "coding": [
              {
                "code": "15777000",
                "system": "http://snomed.info/sct",
                "display": "Prediabetes"
              }
            ]
          },
          {
            "coding": [
              {
                "code": "271737000",
                "system": "http://snomed.info/sct",
                "display": "Anemia"
              }
            ]
          }
        ],
        "status": "active",
        "intent": "order",
        "code": {
          "coding": [
            {
              "code": "108252007",
              "system": "http://snomed.info/sct",
              "display": "Laboratory procedure"
            }
          ]
        },
        "subject": {
          "reference": "urn:uuid:1c273157-fc1f-4894-9ff8-586dd15aa741",
          "display": "Andrzej Frydrychowicz"
        },
        "requester": {
          "reference": "urn:uuid:c19be0f8-41fe-4fe9-86ae-2559c0acf7a9"
        }
      }
    },
    {
      "fullUrl": "urn:uuid:c19be0f8-41fe-4fe9-86ae-2559c0acf7a9",
      "resource": {
        "resourceType": "PractitionerRole",
        "id": "c19be0f8-41fe-4fe9-86ae-2559c0acf7a9",
        "meta": {
          "profile": [
            "http://hl7.eu/fhir/base/StructureDefinition/practitionerRole-eu"
          ]
        },
        "text": {
          "status": "generated",
          "div": "<div xmlns=\"http://www.w3.org/1999/xhtml\">Provider Role Id: c19be0f8-41fe-4fe9-86ae-2559c0acf7a9</div>"
        },
        "organization": {
          "reference": "urn:uuid:36daae1b-1676-49a9-a3d4-ef07db6daed1"
        }
      }
    },
    {
      "fullUrl": "urn:uuid:36daae1b-1676-49a9-a3d4-ef07db6daed1",
      "resource": {
        "resourceType": "Organization",
        "id": "36daae1b-1676-49a9-a3d4-ef07db6daed1",
        "meta": {
          "profile": [
            "http://hl7.eu/fhir/base/StructureDefinition/organization-eu"
          ]
        },
        "identifier": [
          {
            "assigner": {
              "display": "HL7 Europe"
            },
            "system": "urn:oid:2.16.840.1.113883.2.51.999",
            "value": "58ba14c7-e049-49c3-af72-be7b180631d6"
          }
        ],
        "address": [
          {
            "line": [
              "Aleja Lotników Polskich 82"
            ],
            "city": "Świdnik",
            "postalCode": "21-040",
            "country": "Poland"
          }
        ],
        "text": {
          "status": "generated",
          "div": "<div xmlns=\"http://www.w3.org/1999/xhtml\">Provider Organization: Lubelskie Centrum Diagnostyczne</div>"
        },
        "name": "Lubelskie Centrum Diagnostyczne"
      }
    },
    {
      "fullUrl": "urn:uuid:7510eecc-f196-4dd6-a692-1ca82902e086",
      "resource": {
        "resourceType": "Specimen",
        "id": "7510eecc-f196-4dd6-a692-1ca82902e086",
        "meta": {
          "profile": [
            "http://hl7.eu/fhir/laboratory/StructureDefinition/Specimen-eu-lab"
          ]
        },
        "collection": {
          "collectedDateTime": "2021-07-31"
        },
        "text": {
          "status": "generated",
          "div": "<div xmlns=\"http://www.w3.org/1999/xhtml\"><table class=\"hl7__eu__lab__report\"><tr><th>Specimen</th><th>Collection Date</th></tr><tr><td>Whole blood specimen (specimen)</td><td><span class=\"nb\">31-Jul-2021</span></td></tr></table></div>"
        },
        "type": {
          "coding": [
            {
              "code": "258580003",
              "system": "http://snomed.info/sct",
              "display": "Whole blood specimen (specimen)"
            }
          ]
        }
      }
    },
    {
      "fullUrl": "urn:uuid:7510eecc-f196-4dd6-a692-1ca82902e086",
      "resource": {
        "resourceType": "Specimen",
        "id": "7510eecc-f196-4dd6-a692-1ca82902e086",
        "meta": {
          "profile": [
            "http://hl7.eu/fhir/laboratory/StructureDefinition/Specimen-eu-lab"
          ]
        },
        "collection": {
          "collectedDateTime": "2021-07-31"
        },
        "text": {
          "status": "generated",
          "div": "<div xmlns=\"http://www.w3.org/1999/xhtml\"><table class=\"hl7__eu__lab__report\"><tr><th>Specimen</th><th>Collection Date</th></tr><tr><td>Whole blood specimen (specimen)</td><td><span class=\"nb\">31-Jul-2021</span></td></tr></table></div>"
        },
        "type": {
          "coding": [
            {
              "code": "258580003",
              "system": "http://snomed.info/sct",
              "display": "Whole blood specimen (specimen)"
            }
          ]
        }
      }
    },
    {
      "fullUrl": "urn:uuid:14de04b3-cd78-4a2c-84ba-fda35a59736f",
      "resource": {
        "resourceType": "Observation",
        "id": "14de04b3-cd78-4a2c-84ba-fda35a59736f",
        "meta": {
          "profile": [
            "http://hl7.eu/fhir/laboratory/StructureDefinition/Observation-resultslab-eu-lab"
          ]
        },
        "performer": [
          {
            "display": "The Central European Lab"
          }
        ],
        "category": [
          {
            "coding": [
              {
                "system": "http://terminology.hl7.org/CodeSystem/observation-category",
                "code": "laboratory"
              }
            ]
          }
        ],
        "code": {
          "coding": [
            {
              "code": "4548-4",
              "system": "http://loinc.org",
              "display": "Hemoglobin A1c/Hemoglobin.total in Blood"
            }
          ],
          "text": "Hemoglobin A1c/Hemoglobin.total in Blood"
        },
        "valueQuantity": {
          "system": "http://unitsofmeasure.org",
          "value": 6,
          "unit": "%",
          "code": "%"
        },
        "referenceRange": [
          {
            "low": {
              "value": 4.3,
              "code": "%",
              "system": "http://unitsofmeasure.org"
            }
          },
          {
            "high": {
              "value": 6.4,
              "code": "%",
              "system": "http://unitsofmeasure.org"
            }
          }
        ],
        "text": {
          "status": "generated",
          "div": "<div xmlns=\"http://www.w3.org/1999/xhtml\"><table class=\"hl7__eu__lab__report\"><tr><th>Test</th><th>31-Jul-2021</th><th>Reference&#xA0;Range</th><th>Unit</th></tr><tr><td>Hemoglobin A1c/Hemoglobin.total in Blood</td><td>6.0</td><td>4.3 - 6.4</td><td></td><td>%</td></tr></table></div>"
        },
        "status": "final",
        "subject": {
          "reference": "urn:uuid:1c273157-fc1f-4894-9ff8-586dd15aa741",
          "display": "Andrzej Frydrychowicz"
        },
        "effectiveDateTime": "2021-07-31T21:33:04Z",
        "specimen": {
          "reference": "urn:uuid:7510eecc-f196-4dd6-a692-1ca82902e086"
        }
      }
    },
    {
      "fullUrl": "urn:uuid:3a8589c8-caad-457e-bf56-99cf38453a95",
      "resource": {
        "resourceType": "Observation",
        "id": "3a8589c8-caad-457e-bf56-99cf38453a95",
        "meta": {
          "profile": [
            "http://hl7.eu/fhir/laboratory/StructureDefinition/Observation-resultslab-eu-lab"
          ]
        },
        "performer": [
          {
            "display": "The Central European Lab"
          }
        ],
        "category": [
          {
            "coding": [
              {
                "system": "http://terminology.hl7.org/CodeSystem/observation-category",
                "code": "laboratory"
              }
            ]
          }
        ],
        "code": {
          "coding": [
            {
              "code": "2339-0",
              "system": "http://loinc.org",
              "display": "Glucose [Mass/volume] in Blood"
            }
          ],
          "text": "Glucose [Mass/volume] in Blood"
        },
        "valueQuantity": {
          "system": "http://unitsofmeasure.org",
          "value": 70.7,
          "unit": "mg/dL",
          "code": "mg/dL"
        },
        "referenceRange": [
          {
            "low": {
              "value": 70,
              "code": "mg/dL",
              "system": "http://unitsofmeasure.org"
            }
          },
          {
            "high": {
              "value": 140,
              "code": "mg/dL",
              "system": "http://unitsofmeasure.org"
            }
          }
        ],
        "text": {
          "status": "generated",
          "div": "<div xmlns=\"http://www.w3.org/1999/xhtml\"><table class=\"hl7__eu__lab__report\"><tr><th>Test</th><th>31-Jul-2021</th><th>Reference&#xA0;Range</th><th>Unit</th></tr><tr><td>Glucose [Mass/volume] in Blood</td><td>70.7</td><td>70 - 140</td><td></td><td>mg/dL</td></tr></table></div>"
        },
        "status": "final",
        "subject": {
          "reference": "urn:uuid:1c273157-fc1f-4894-9ff8-586dd15aa741",
          "display": "Andrzej Frydrychowicz"
        },
        "effectiveDateTime": "2021-07-31T21:33:04Z",
        "specimen": {
          "reference": "urn:uuid:7510eecc-f196-4dd6-a692-1ca82902e086"
        }
      }
    },
    {
      "fullUrl": "urn:uuid:44cbac27-f626-4576-97e5-ac19fe9fb26a",
      "resource": {
        "resourceType": "Observation",
        "id": "44cbac27-f626-4576-97e5-ac19fe9fb26a",
        "meta": {
          "profile": [
            "http://hl7.eu/fhir/laboratory/StructureDefinition/Observation-resultslab-eu-lab"
          ]
        },
        "performer": [
          {
            "display": "The Central European Lab"
          }
        ],
        "category": [
          {
            "coding": [
              {
                "system": "http://terminology.hl7.org/CodeSystem/observation-category",
                "code": "laboratory"
              }
            ]
          }
        ],
        "code": {
          "coding": [
            {
              "code": "6299-2",
              "system": "http://loinc.org",
              "display": "Urea nitrogen [Mass/volume] in Blood"
            }
          ],
          "text": "Urea nitrogen [Mass/volume] in Blood"
        },
        "valueQuantity": {
          "system": "http://unitsofmeasure.org",
          "value": 11.2,
          "unit": "mg/dL",
          "code": "mg/dL"
        },
        "referenceRange": [
          {
            "low": {
              "value": 7,
              "code": "mg/dL",
              "system": "http://unitsofmeasure.org"
            }
          },
          {
            "high": {
              "value": 20,
              "code": "mg/dL",
              "system": "http://unitsofmeasure.org"
            }
          }
        ],
        "text": {
          "status": "generated",
          "div": "<div xmlns=\"http://www.w3.org/1999/xhtml\"><table class=\"hl7__eu__lab__report\"><tr><th>Test</th><th>31-Jul-2021</th><th>Reference&#xA0;Range</th><th>Unit</th></tr><tr><td>Urea nitrogen [Mass/volume] in Blood</td><td>11.2</td><td>7 - 20</td><td></td><td>mg/dL</td></tr></table></div>"
        },
        "status": "final",
        "subject": {
          "reference": "urn:uuid:1c273157-fc1f-4894-9ff8-586dd15aa741",
          "display": "Andrzej Frydrychowicz"
        },
        "effectiveDateTime": "2021-07-31T21:33:04Z",
        "specimen": {
          "reference": "urn:uuid:7510eecc-f196-4dd6-a692-1ca82902e086"
        }
      }
    },
    {
      "fullUrl": "urn:uuid:47f90144-78d8-4d12-8c20-704882ef08b7",
      "resource": {
        "resourceType": "Observation",
        "id": "47f90144-78d8-4d12-8c20-704882ef08b7",
        "meta": {
          "profile": [
            "http://hl7.eu/fhir/laboratory/StructureDefinition/Observation-resultslab-eu-lab"
          ]
        },
        "performer": [
          {
            "display": "The Central European Lab"
          }
        ],
        "category": [
          {
            "coding": [
              {
                "system": "http://terminology.hl7.org/CodeSystem/observation-category",
                "code": "laboratory"
              }
            ]
          }
        ],
        "code": {
          "coding": [
            {
              "code": "38483-4",
              "system": "http://loinc.org",
              "display": "Creatinine [Mass/volume] in Blood"
            }
          ],
          "text": "Creatinine [Mass/volume] in Blood"
        },
        "valueQuantity": {
          "system": "http://unitsofmeasure.org",
          "value": 1.4,
          "unit": "mg/dL",
          "code": "mg/dL"
        },
        "referenceRange": [
          {
            "low": {
              "value": 0.6,
              "code": "mg/dL",
              "system": "http://unitsofmeasure.org"
            }
          },
          {
            "high": {
              "value": 1.3,
              "code": "mg/dL",
              "system": "http://unitsofmeasure.org"
            }
          }
        ],
        "interpretation": [
          {
            "coding": [
              {
                "code": "H",
                "system": "http://terminology.hl7.org/CodeSystem/v3-ObservationInterpretation",
                "display": "High"
              }
            ]
          }
        ],
        "text": {
          "status": "generated",
          "div": "<div xmlns=\"http://www.w3.org/1999/xhtml\"><table class=\"hl7__eu__lab__report\"><tr><th>Test</th><th>31-Jul-2021</th><th>Reference&#xA0;Range</th><th>Unit</th></tr><tr><td>Creatinine [Mass/volume] in Blood</td><td>1.4</td><td>0.6 - 1.3</td><td>H</td><td>mg/dL</td></tr></table></div>"
        },
        "status": "final",
        "subject": {
          "reference": "urn:uuid:1c273157-fc1f-4894-9ff8-586dd15aa741",
          "display": "Andrzej Frydrychowicz"
        },
        "effectiveDateTime": "2021-07-31T21:33:04Z",
        "specimen": {
          "reference": "urn:uuid:7510eecc-f196-4dd6-a692-1ca82902e086"
        }
      }
    },
    {
      "fullUrl": "urn:uuid:6b99e043-2fd8-4107-b1af-d3efd17ee456",
      "resource": {
        "resourceType": "Observation",
        "id": "6b99e043-2fd8-4107-b1af-d3efd17ee456",
        "meta": {
          "profile": [
            "http://hl7.eu/fhir/laboratory/StructureDefinition/Observation-resultslab-eu-lab"
          ]
        },
        "performer": [
          {
            "display": "The Central European Lab"
          }
        ],
        "category": [
          {
            "coding": [
              {
                "system": "http://terminology.hl7.org/CodeSystem/observation-category",
                "code": "laboratory"
              }
            ]
          }
        ],
        "code": {
          "coding": [
            {
              "code": "49765-1",
              "system": "http://loinc.org",
              "display": "Calcium [Mass/volume] in Blood"
            }
          ],
          "text": "Calcium [Mass/volume] in Blood"
        },
        "valueQuantity": {
          "system": "http://unitsofmeasure.org",
          "value": 9.3,
          "unit": "mg/dL",
          "code": "mg/dL"
        },
        "referenceRange": [
          {
            "low": {
              "value": 8.5,
              "code": "mg/dL",
              "system": "http://unitsofmeasure.org"
            }
          },
          {
            "high": {
              "value": 10.5,
              "code": "mg/dL",
              "system": "http://unitsofmeasure.org"
            }
          }
        ],
        "text": {
          "status": "generated",
          "div": "<div xmlns=\"http://www.w3.org/1999/xhtml\"><table class=\"hl7__eu__lab__report\"><tr><th>Test</th><th>31-Jul-2021</th><th>Reference&#xA0;Range</th><th>Unit</th></tr><tr><td>Calcium [Mass/volume] in Blood</td><td>9.3</td><td>8.5 - 10.5</td><td></td><td>mg/dL</td></tr></table></div>"
        },
        "status": "final",
        "subject": {
          "reference": "urn:uuid:1c273157-fc1f-4894-9ff8-586dd15aa741",
          "display": "Andrzej Frydrychowicz"
        },
        "effectiveDateTime": "2021-07-31T21:33:04Z",
        "specimen": {
          "reference": "urn:uuid:7510eecc-f196-4dd6-a692-1ca82902e086"
        }
      }
    },
    {
      "fullUrl": "urn:uuid:3b44f694-a8c0-42a0-a007-859c486a9e8d",
      "resource": {
        "resourceType": "Observation",
        "id": "3b44f694-a8c0-42a0-a007-859c486a9e8d",
        "meta": {
          "profile": [
            "http://hl7.eu/fhir/laboratory/StructureDefinition/Observation-resultslab-eu-lab"
          ]
        },
        "performer": [
          {
            "display": "The Central European Lab"
          }
        ],
        "category": [
          {
            "coding": [
              {
                "system": "http://terminology.hl7.org/CodeSystem/observation-category",
                "code": "laboratory"
              }
            ]
          }
        ],
        "code": {
          "coding": [
            {
              "code": "2947-0",
              "system": "http://loinc.org",
              "display": "Sodium [Moles/volume] in Blood"
            }
          ],
          "text": "Sodium [Moles/volume] in Blood"
        },
        "valueQuantity": {
          "system": "http://unitsofmeasure.org",
          "value": 143.8,
          "unit": "mmol/L",
          "code": "mmol/L"
        },
        "referenceRange": [
          {
            "low": {
              "value": 135,
              "code": "mmol/L",
              "system": "http://unitsofmeasure.org"
            }
          },
          {
            "high": {
              "value": 145,
              "code": "mmol/L",
              "system": "http://unitsofmeasure.org"
            }
          }
        ],
        "text": {
          "status": "generated",
          "div": "<div xmlns=\"http://www.w3.org/1999/xhtml\"><table class=\"hl7__eu__lab__report\"><tr><th>Test</th><th>31-Jul-2021</th><th>Reference&#xA0;Range</th><th>Unit</th></tr><tr><td>Sodium [Moles/volume] in Blood</td><td>143.8</td><td>135 - 145</td><td></td><td>mmol/L</td></tr></table></div>"
        },
        "status": "final",
        "subject": {
          "reference": "urn:uuid:1c273157-fc1f-4894-9ff8-586dd15aa741",
          "display": "Andrzej Frydrychowicz"
        },
        "effectiveDateTime": "2021-07-31T21:33:04Z",
        "specimen": {
          "reference": "urn:uuid:7510eecc-f196-4dd6-a692-1ca82902e086"
        }
      }
    },
    {
      "fullUrl": "urn:uuid:671e6577-a87a-44b0-a775-e4643c9b64f2",
      "resource": {
        "resourceType": "Observation",
        "id": "671e6577-a87a-44b0-a775-e4643c9b64f2",
        "meta": {
          "profile": [
            "http://hl7.eu/fhir/laboratory/StructureDefinition/Observation-resultslab-eu-lab"
          ]
        },
        "performer": [
          {
            "display": "The Central European Lab"
          }
        ],
        "category": [
          {
            "coding": [
              {
                "system": "http://terminology.hl7.org/CodeSystem/observation-category",
                "code": "laboratory"
              }
            ]
          }
        ],
        "code": {
          "coding": [
            {
              "code": "6298-4",
              "system": "http://loinc.org",
              "display": "Potassium [Moles/volume] in Blood"
            }
          ],
          "text": "Potassium [Moles/volume] in Blood"
        },
        "valueQuantity": {
          "system": "http://unitsofmeasure.org",
          "value": 4.1,
          "unit": "mmol/L",
          "code": "mmol/L"
        },
        "referenceRange": [
          {
            "low": {
              "value": 3.5,
              "code": "mmol/L",
              "system": "http://unitsofmeasure.org"
            }
          },
          {
            "high": {
              "value": 5.3,
              "code": "mmol/L",
              "system": "http://unitsofmeasure.org"
            }
          }
        ],
        "text": {
          "status": "generated",
          "div": "<div xmlns=\"http://www.w3.org/1999/xhtml\"><table class=\"hl7__eu__lab__report\"><tr><th>Test</th><th>31-Jul-2021</th><th>Reference&#xA0;Range</th><th>Unit</th></tr><tr><td>Potassium [Moles/volume] in Blood</td><td>4.1</td><td>3.5 - 5.3</td><td></td><td>mmol/L</td></tr></table></div>"
        },
        "status": "final",
        "subject": {
          "reference": "urn:uuid:1c273157-fc1f-4894-9ff8-586dd15aa741",
          "display": "Andrzej Frydrychowicz"
        },
        "effectiveDateTime": "2021-07-31T21:33:04Z",
        "specimen": {
          "reference": "urn:uuid:7510eecc-f196-4dd6-a692-1ca82902e086"
        }
      }
    },
    {
      "fullUrl": "urn:uuid:eaa44dde-94b2-4be8-b3b9-5b7fb812f191",
      "resource": {
        "resourceType": "Observation",
        "id": "eaa44dde-94b2-4be8-b3b9-5b7fb812f191",
        "meta": {
          "profile": [
            "http://hl7.eu/fhir/laboratory/StructureDefinition/Observation-resultslab-eu-lab"
          ]
        },
        "performer": [
          {
            "display": "The Central European Lab"
          }
        ],
        "category": [
          {
            "coding": [
              {
                "system": "http://terminology.hl7.org/CodeSystem/observation-category",
                "code": "laboratory"
              }
            ]
          }
        ],
        "code": {
          "coding": [
            {
              "code": "2069-3",
              "system": "http://loinc.org",
              "display": "Chloride [Moles/volume] in Blood"
            }
          ],
          "text": "Chloride [Moles/volume] in Blood"
        },
        "valueQuantity": {
          "system": "http://unitsofmeasure.org",
          "value": 109.4,
          "unit": "mmol/L",
          "code": "mmol/L"
        },
        "referenceRange": [
          {
            "low": {
              "value": 98,
              "code": "mmol/L",
              "system": "http://unitsofmeasure.org"
            }
          },
          {
            "high": {
              "value": 110,
              "code": "mmol/L",
              "system": "http://unitsofmeasure.org"
            }
          }
        ],
        "text": {
          "status": "generated",
          "div": "<div xmlns=\"http://www.w3.org/1999/xhtml\"><table class=\"hl7__eu__lab__report\"><tr><th>Test</th><th>31-Jul-2021</th><th>Reference&#xA0;Range</th><th>Unit</th></tr><tr><td>Chloride [Moles/volume] in Blood</td><td>109.4</td><td>98 - 110</td><td></td><td>mmol/L</td></tr></table></div>"
        },
        "status": "final",
        "subject": {
          "reference": "urn:uuid:1c273157-fc1f-4894-9ff8-586dd15aa741",
          "display": "Andrzej Frydrychowicz"
        },
        "effectiveDateTime": "2021-07-31T21:33:04Z",
        "specimen": {
          "reference": "urn:uuid:7510eecc-f196-4dd6-a692-1ca82902e086"
        }
      }
    },
    {
      "fullUrl": "urn:uuid:65d0f4c6-d26f-4120-8076-9810a85c0c96",
      "resource": {
        "resourceType": "Observation",
        "id": "65d0f4c6-d26f-4120-8076-9810a85c0c96",
        "meta": {
          "profile": [
            "http://hl7.eu/fhir/laboratory/StructureDefinition/Observation-resultslab-eu-lab"
          ]
        },
        "performer": [
          {
            "display": "The Central European Lab"
          }
        ],
        "category": [
          {
            "coding": [
              {
                "system": "http://terminology.hl7.org/CodeSystem/observation-category",
                "code": "laboratory"
              }
            ]
          }
        ],
        "code": {
          "coding": [
            {
              "code": "20565-8",
              "system": "http://loinc.org",
              "display": "Carbon dioxide, total [Moles/volume] in Blood"
            }
          ],
          "text": "Carbon dioxide, total [Moles/volume] in Blood"
        },
        "valueQuantity": {
          "system": "http://unitsofmeasure.org",
          "value": 22.1,
          "unit": "mmol/L",
          "code": "mmol/L"
        },
        "referenceRange": [
          {
            "low": {
              "value": 22,
              "code": "mmol/L",
              "system": "http://unitsofmeasure.org"
            }
          },
          {
            "high": {
              "value": 29,
              "code": "mmol/L",
              "system": "http://unitsofmeasure.org"
            }
          }
        ],
        "text": {
          "status": "generated",
          "div": "<div xmlns=\"http://www.w3.org/1999/xhtml\"><table class=\"hl7__eu__lab__report\"><tr><th>Test</th><th>31-Jul-2021</th><th>Reference&#xA0;Range</th><th>Unit</th></tr><tr><td>Carbon dioxide, total [Moles/volume] in Blood</td><td>22.1</td><td>22 - 29</td><td></td><td>mmol/L</td></tr></table></div>"
        },
        "status": "final",
        "subject": {
          "reference": "urn:uuid:1c273157-fc1f-4894-9ff8-586dd15aa741",
          "display": "Andrzej Frydrychowicz"
        },
        "effectiveDateTime": "2021-07-31T21:33:04Z",
        "specimen": {
          "reference": "urn:uuid:7510eecc-f196-4dd6-a692-1ca82902e086"
        }
      }
    },
    {
      "fullUrl": "urn:uuid:0d1b43bf-cc04-4389-8e5b-56f930245e7c",
      "resource": {
        "resourceType": "Observation",
        "id": "0d1b43bf-cc04-4389-8e5b-56f930245e7c",
        "meta": {
          "profile": [
            "http://hl7.eu/fhir/laboratory/StructureDefinition/Observation-resultslab-eu-lab"
          ]
        },
        "performer": [
          {
            "display": "The Central European Lab"
          }
        ],
        "category": [
          {
            "coding": [
              {
                "system": "http://terminology.hl7.org/CodeSystem/observation-category",
                "code": "laboratory"
              }
            ]
          }
        ],
        "code": {
          "coding": [
            {
              "code": "6690-2",
              "system": "http://loinc.org",
              "display": "Leukocytes [#/volume] in Blood by Automated count"
            }
          ],
          "text": "Leukocytes [#/volume] in Blood by Automated count"
        },
        "valueQuantity": {
          "system": "http://unitsofmeasure.org",
          "value": 8.1,
          "unit": "10*3/uL",
          "code": "10*3/uL"
        },
        "referenceRange": [
          {
            "low": {
              "value": 3.5,
              "code": "10*3/uL",
              "system": "http://unitsofmeasure.org"
            }
          },
          {
            "high": {
              "value": 10.5,
              "code": "10*3/uL",
              "system": "http://unitsofmeasure.org"
            }
          }
        ],
        "text": {
          "status": "generated",
          "div": "<div xmlns=\"http://www.w3.org/1999/xhtml\"><table class=\"hl7__eu__lab__report\"><tr><th>Test</th><th>31-Jul-2021</th><th>Reference&#xA0;Range</th><th>Unit</th></tr><tr><td>Leukocytes [#/volume] in Blood by Automated count</td><td>8.1</td><td>3.5 - 10.5</td><td></td><td>10*3/uL</td></tr></table></div>"
        },
        "status": "final",
        "subject": {
          "reference": "urn:uuid:1c273157-fc1f-4894-9ff8-586dd15aa741",
          "display": "Andrzej Frydrychowicz"
        },
        "effectiveDateTime": "2021-07-31T21:33:04Z",
        "specimen": {
          "reference": "urn:uuid:7510eecc-f196-4dd6-a692-1ca82902e086"
        }
      }
    },
    {
      "fullUrl": "urn:uuid:fe5755f0-94a4-4c9f-8320-72c2258c32e9",
      "resource": {
        "resourceType": "Observation",
        "id": "fe5755f0-94a4-4c9f-8320-72c2258c32e9",
        "meta": {
          "profile": [
            "http://hl7.eu/fhir/laboratory/StructureDefinition/Observation-resultslab-eu-lab"
          ]
        },
        "performer": [
          {
            "display": "The Central European Lab"
          }
        ],
        "category": [
          {
            "coding": [
              {
                "system": "http://terminology.hl7.org/CodeSystem/observation-category",
                "code": "laboratory"
              }
            ]
          }
        ],
        "code": {
          "coding": [
            {
              "code": "789-8",
              "system": "http://loinc.org",
              "display": "Erythrocytes [#/volume] in Blood by Automated count"
            }
          ],
          "text": "Erythrocytes [#/volume] in Blood by Automated count"
        },
        "valueQuantity": {
          "system": "http://unitsofmeasure.org",
          "value": 4.7,
          "unit": "10*6/uL",
          "code": "10*6/uL"
        },
        "referenceRange": [
          {
            "low": {
              "value": 4.5,
              "code": "10*6/uL",
              "system": "http://unitsofmeasure.org"
            }
          },
          {
            "high": {
              "value": 5.7,
              "code": "10*6/uL",
              "system": "http://unitsofmeasure.org"
            }
          }
        ],
        "text": {
          "status": "generated",
          "div": "<div xmlns=\"http://www.w3.org/1999/xhtml\"><table class=\"hl7__eu__lab__report\"><tr><th>Test</th><th>31-Jul-2021</th><th>Reference&#xA0;Range</th><th>Unit</th></tr><tr><td>Erythrocytes [#/volume] in Blood by Automated count</td><td>4.7</td><td>4.5 - 5.7</td><td></td><td>10*6/uL</td></tr></table></div>"
        },
        "status": "final",
        "subject": {
          "reference": "urn:uuid:1c273157-fc1f-4894-9ff8-586dd15aa741",
          "display": "Andrzej Frydrychowicz"
        },
        "effectiveDateTime": "2021-07-31T21:33:04Z",
        "specimen": {
          "reference": "urn:uuid:7510eecc-f196-4dd6-a692-1ca82902e086"
        }
      }
    },
    {
      "fullUrl": "urn:uuid:de6991f2-7e39-4657-9d82-4b64c80aad1f",
      "resource": {
        "resourceType": "Observation",
        "id": "de6991f2-7e39-4657-9d82-4b64c80aad1f",
        "meta": {
          "profile": [
            "http://hl7.eu/fhir/laboratory/StructureDefinition/Observation-resultslab-eu-lab"
          ]
        },
        "performer": [
          {
            "display": "The Central European Lab"
          }
        ],
        "category": [
          {
            "coding": [
              {
                "system": "http://terminology.hl7.org/CodeSystem/observation-category",
                "code": "laboratory"
              }
            ]
          }
        ],
        "code": {
          "coding": [
            {
              "code": "718-7",
              "system": "http://loinc.org",
              "display": "Hemoglobin [Mass/volume] in Blood"
            }
          ],
          "text": "Hemoglobin [Mass/volume] in Blood"
        },
        "valueQuantity": {
          "system": "http://unitsofmeasure.org",
          "value": 17.1,
          "unit": "g/dL",
          "code": "g/dL"
        },
        "referenceRange": [
          {
            "low": {
              "value": 14,
              "code": "g/dL",
              "system": "http://unitsofmeasure.org"
            }
          },
          {
            "high": {
              "value": 18,
              "code": "g/dL",
              "system": "http://unitsofmeasure.org"
            }
          }
        ],
        "text": {
          "status": "generated",
          "div": "<div xmlns=\"http://www.w3.org/1999/xhtml\"><table class=\"hl7__eu__lab__report\"><tr><th>Test</th><th>31-Jul-2021</th><th>Reference&#xA0;Range</th><th>Unit</th></tr><tr><td>Hemoglobin [Mass/volume] in Blood</td><td>17.1</td><td>14 - 18</td><td></td><td>g/dL</td></tr></table></div>"
        },
        "status": "final",
        "subject": {
          "reference": "urn:uuid:1c273157-fc1f-4894-9ff8-586dd15aa741",
          "display": "Andrzej Frydrychowicz"
        },
        "effectiveDateTime": "2021-07-31T21:33:04Z",
        "specimen": {
          "reference": "urn:uuid:7510eecc-f196-4dd6-a692-1ca82902e086"
        }
      }
    },
    {
      "fullUrl": "urn:uuid:6287f750-74b1-4328-9b7a-a980701a021c",
      "resource": {
        "resourceType": "Observation",
        "id": "6287f750-74b1-4328-9b7a-a980701a021c",
        "meta": {
          "profile": [
            "http://hl7.eu/fhir/laboratory/StructureDefinition/Observation-resultslab-eu-lab"
          ]
        },
        "performer": [
          {
            "display": "The Central European Lab"
          }
        ],
        "category": [
          {
            "coding": [
              {
                "system": "http://terminology.hl7.org/CodeSystem/observation-category",
                "code": "laboratory"
              }
            ]
          }
        ],
        "code": {
          "coding": [
            {
              "code": "4544-3",
              "system": "http://loinc.org",
              "display": "Hematocrit [Volume Fraction] of Blood by Automated count"
            }
          ],
          "text": "Hematocrit [Volume Fraction] of Blood by Automated count"
        },
        "valueQuantity": {
          "system": "http://unitsofmeasure.org",
          "value": 36.9,
          "unit": "%",
          "code": "%"
        },
        "referenceRange": [
          {
            "low": {
              "value": 38,
              "code": "%",
              "system": "http://unitsofmeasure.org"
            }
          },
          {
            "high": {
              "value": 50,
              "code": "%",
              "system": "http://unitsofmeasure.org"
            }
          }
        ],
        "interpretation": [
          {
            "coding": [
              {
                "code": "L",
                "system": "http://terminology.hl7.org/CodeSystem/v3-ObservationInterpretation",
                "display": "Low"
              }
            ]
          }
        ],
        "text": {
          "status": "generated",
          "div": "<div xmlns=\"http://www.w3.org/1999/xhtml\"><table class=\"hl7__eu__lab__report\"><tr><th>Test</th><th>31-Jul-2021</th><th>Reference&#xA0;Range</th><th>Unit</th></tr><tr><td>Hematocrit [Volume Fraction] of Blood by Automated count</td><td>36.9</td><td>38 - 50</td><td>L</td><td>%</td></tr></table></div>"
        },
        "status": "final",
        "subject": {
          "reference": "urn:uuid:1c273157-fc1f-4894-9ff8-586dd15aa741",
          "display": "Andrzej Frydrychowicz"
        },
        "effectiveDateTime": "2021-07-31T21:33:04Z",
        "specimen": {
          "reference": "urn:uuid:7510eecc-f196-4dd6-a692-1ca82902e086"
        }
      }
    },
    {
      "fullUrl": "urn:uuid:2e2816a6-9013-449a-a0d5-23d5ad158d46",
      "resource": {
        "resourceType": "Observation",
        "id": "2e2816a6-9013-449a-a0d5-23d5ad158d46",
        "meta": {
          "profile": [
            "http://hl7.eu/fhir/laboratory/StructureDefinition/Observation-resultslab-eu-lab"
          ]
        },
        "performer": [
          {
            "display": "The Central European Lab"
          }
        ],
        "category": [
          {
            "coding": [
              {
                "system": "http://terminology.hl7.org/CodeSystem/observation-category",
                "code": "laboratory"
              }
            ]
          }
        ],
        "code": {
          "coding": [
            {
              "code": "787-2",
              "system": "http://loinc.org",
              "display": "MCV [Entitic volume] by Automated count"
            }
          ],
          "text": "MCV [Entitic volume] by Automated count"
        },
        "valueQuantity": {
          "system": "http://unitsofmeasure.org",
          "value": 90.7,
          "unit": "fL",
          "code": "fL"
        },
        "referenceRange": [
          {
            "low": {
              "value": 82,
              "code": "fL",
              "system": "http://unitsofmeasure.org"
            }
          },
          {
            "high": {
              "value": 98,
              "code": "fL",
              "system": "http://unitsofmeasure.org"
            }
          }
        ],
        "text": {
          "status": "generated",
          "div": "<div xmlns=\"http://www.w3.org/1999/xhtml\"><table class=\"hl7__eu__lab__report\"><tr><th>Test</th><th>31-Jul-2021</th><th>Reference&#xA0;Range</th><th>Unit</th></tr><tr><td>MCV [Entitic volume] by Automated count</td><td>90.7</td><td>82 - 98</td><td></td><td>fL</td></tr></table></div>"
        },
        "status": "final",
        "subject": {
          "reference": "urn:uuid:1c273157-fc1f-4894-9ff8-586dd15aa741",
          "display": "Andrzej Frydrychowicz"
        },
        "effectiveDateTime": "2021-07-31T21:33:04Z",
        "specimen": {
          "reference": "urn:uuid:7510eecc-f196-4dd6-a692-1ca82902e086"
        }
      }
    },
    {
      "fullUrl": "urn:uuid:058e36fc-f2d4-4e32-aadd-5b1e08ee2037",
      "resource": {
        "resourceType": "Observation",
        "id": "058e36fc-f2d4-4e32-aadd-5b1e08ee2037",
        "meta": {
          "profile": [
            "http://hl7.eu/fhir/laboratory/StructureDefinition/Observation-resultslab-eu-lab"
          ]
        },
        "performer": [
          {
            "display": "The Central European Lab"
          }
        ],
        "category": [
          {
            "coding": [
              {
                "system": "http://terminology.hl7.org/CodeSystem/observation-category",
                "code": "laboratory"
              }
            ]
          }
        ],
        "code": {
          "coding": [
            {
              "code": "785-6",
              "system": "http://loinc.org",
              "display": "MCH [Entitic mass] by Automated count"
            }
          ],
          "text": "MCH [Entitic mass] by Automated count"
        },
        "valueQuantity": {
          "system": "http://unitsofmeasure.org",
          "value": 29.1,
          "unit": "pg",
          "code": "pg"
        },
        "referenceRange": [
          {
            "low": {
              "value": 27,
              "code": "pg",
              "system": "http://unitsofmeasure.org"
            }
          },
          {
            "high": {
              "value": 33,
              "code": "pg",
              "system": "http://unitsofmeasure.org"
            }
          }
        ],
        "text": {
          "status": "generated",
          "div": "<div xmlns=\"http://www.w3.org/1999/xhtml\"><table class=\"hl7__eu__lab__report\"><tr><th>Test</th><th>31-Jul-2021</th><th>Reference&#xA0;Range</th><th>Unit</th></tr><tr><td>MCH [Entitic mass] by Automated count</td><td>29.1</td><td>27 - 33</td><td></td><td>pg</td></tr></table></div>"
        },
        "status": "final",
        "subject": {
          "reference": "urn:uuid:1c273157-fc1f-4894-9ff8-586dd15aa741",
          "display": "Andrzej Frydrychowicz"
        },
        "effectiveDateTime": "2021-07-31T21:33:04Z",
        "specimen": {
          "reference": "urn:uuid:7510eecc-f196-4dd6-a692-1ca82902e086"
        }
      }
    },
    {
      "fullUrl": "urn:uuid:25d09660-ad75-4b01-907e-be36f9eab494",
      "resource": {
        "resourceType": "Observation",
        "id": "25d09660-ad75-4b01-907e-be36f9eab494",
        "meta": {
          "profile": [
            "http://hl7.eu/fhir/laboratory/StructureDefinition/Observation-resultslab-eu-lab"
          ]
        },
        "performer": [
          {
            "display": "The Central European Lab"
          }
        ],
        "category": [
          {
            "coding": [
              {
                "system": "http://terminology.hl7.org/CodeSystem/observation-category",
                "code": "laboratory"
              }
            ]
          }
        ],
        "code": {
          "coding": [
            {
              "code": "786-4",
              "system": "http://loinc.org",
              "display": "MCHC [Mass/volume] by Automated count"
            }
          ],
          "text": "MCHC [Mass/volume] by Automated count"
        },
        "valueQuantity": {
          "system": "http://unitsofmeasure.org",
          "value": 34.1,
          "unit": "g/dL",
          "code": "g/dL"
        },
        "referenceRange": [
          {
            "low": {
              "value": 31,
              "code": "g/dL",
              "system": "http://unitsofmeasure.org"
            }
          },
          {
            "high": {
              "value": 36,
              "code": "g/dL",
              "system": "http://unitsofmeasure.org"
            }
          }
        ],
        "text": {
          "status": "generated",
          "div": "<div xmlns=\"http://www.w3.org/1999/xhtml\"><table class=\"hl7__eu__lab__report\"><tr><th>Test</th><th>31-Jul-2021</th><th>Reference&#xA0;Range</th><th>Unit</th></tr><tr><td>MCHC [Mass/volume] by Automated count</td><td>34.1</td><td>31 - 36</td><td></td><td>g/dL</td></tr></table></div>"
        },
        "status": "final",
        "subject": {
          "reference": "urn:uuid:1c273157-fc1f-4894-9ff8-586dd15aa741",
          "display": "Andrzej Frydrychowicz"
        },
        "effectiveDateTime": "2021-07-31T21:33:04Z",
        "specimen": {
          "reference": "urn:uuid:7510eecc-f196-4dd6-a692-1ca82902e086"
        }
      }
    },
    {
      "fullUrl": "urn:uuid:9cc1ed4a-cfc5-4432-a27f-a570f2445344",
      "resource": {
        "resourceType": "Observation",
        "id": "9cc1ed4a-cfc5-4432-a27f-a570f2445344",
        "meta": {
          "profile": [
            "http://hl7.eu/fhir/laboratory/StructureDefinition/Observation-resultslab-eu-lab"
          ]
        },
        "performer": [
          {
            "display": "The Central European Lab"
          }
        ],
        "category": [
          {
            "coding": [
              {
                "system": "http://terminology.hl7.org/CodeSystem/observation-category",
                "code": "laboratory"
              }
            ]
          }
        ],
        "code": {
          "coding": [
            {
              "code": "21000-5",
              "system": "http://loinc.org",
              "display": "Erythrocyte distribution width [Entitic volume] by Automated count"
            }
          ],
          "text": "Erythrocyte distribution width [Entitic volume] by Automated count"
        },
        "valueQuantity": {
          "system": "http://unitsofmeasure.org",
          "value": 44.2,
          "unit": "fL",
          "code": "fL"
        },
        "referenceRange": [
          {
            "low": {
              "value": 39,
              "code": "fL",
              "system": "http://unitsofmeasure.org"
            }
          },
          {
            "high": {
              "value": 55,
              "code": "fL",
              "system": "http://unitsofmeasure.org"
            }
          }
        ],
        "text": {
          "status": "generated",
          "div": "<div xmlns=\"http://www.w3.org/1999/xhtml\"><table class=\"hl7__eu__lab__report\"><tr><th>Test</th><th>31-Jul-2021</th><th>Reference&#xA0;Range</th><th>Unit</th></tr><tr><td>Erythrocyte distribution width [Entitic volume] by Automated count</td><td>44.2</td><td>39 - 55</td><td></td><td>fL</td></tr></table></div>"
        },
        "status": "final",
        "subject": {
          "reference": "urn:uuid:1c273157-fc1f-4894-9ff8-586dd15aa741",
          "display": "Andrzej Frydrychowicz"
        },
        "effectiveDateTime": "2021-07-31T21:33:04Z",
        "specimen": {
          "reference": "urn:uuid:7510eecc-f196-4dd6-a692-1ca82902e086"
        }
      }
    },
    {
      "fullUrl": "urn:uuid:f24caa7b-8426-4fa8-84c3-ca9fb2fe00b6",
      "resource": {
        "resourceType": "Observation",
        "id": "f24caa7b-8426-4fa8-84c3-ca9fb2fe00b6",
        "meta": {
          "profile": [
            "http://hl7.eu/fhir/laboratory/StructureDefinition/Observation-resultslab-eu-lab"
          ]
        },
        "performer": [
          {
            "display": "The Central European Lab"
          }
        ],
        "category": [
          {
            "coding": [
              {
                "system": "http://terminology.hl7.org/CodeSystem/observation-category",
                "code": "laboratory"
              }
            ]
          }
        ],
        "code": {
          "coding": [
            {
              "code": "777-3",
              "system": "http://loinc.org",
              "display": "Platelets [#/volume] in Blood by Automated count"
            }
          ],
          "text": "Platelets [#/volume] in Blood by Automated count"
        },
        "valueQuantity": {
          "system": "http://unitsofmeasure.org",
          "value": 302.2,
          "unit": "10*3/uL",
          "code": "10*3/uL"
        },
        "referenceRange": [
          {
            "low": {
              "value": 150,
              "code": "10*3/uL",
              "system": "http://unitsofmeasure.org"
            }
          },
          {
            "high": {
              "value": 350,
              "code": "10*3/uL",
              "system": "http://unitsofmeasure.org"
            }
          }
        ],
        "text": {
          "status": "generated",
          "div": "<div xmlns=\"http://www.w3.org/1999/xhtml\"><table class=\"hl7__eu__lab__report\"><tr><th>Test</th><th>31-Jul-2021</th><th>Reference&#xA0;Range</th><th>Unit</th></tr><tr><td>Platelets [#/volume] in Blood by Automated count</td><td>302.2</td><td>150 - 350</td><td></td><td>10*3/uL</td></tr></table></div>"
        },
        "status": "final",
        "subject": {
          "reference": "urn:uuid:1c273157-fc1f-4894-9ff8-586dd15aa741",
          "display": "Andrzej Frydrychowicz"
        },
        "effectiveDateTime": "2021-07-31T21:33:04Z",
        "specimen": {
          "reference": "urn:uuid:7510eecc-f196-4dd6-a692-1ca82902e086"
        }
      }
    },
    {
      "fullUrl": "urn:uuid:d7e42a0a-7b85-470a-9cbf-fd0784447909",
      "resource": {
        "resourceType": "Observation",
        "id": "d7e42a0a-7b85-470a-9cbf-fd0784447909",
        "meta": {
          "profile": [
            "http://hl7.eu/fhir/laboratory/StructureDefinition/Observation-resultslab-eu-lab"
          ]
        },
        "performer": [
          {
            "display": "The Central European Lab"
          }
        ],
        "category": [
          {
            "coding": [
              {
                "system": "http://terminology.hl7.org/CodeSystem/observation-category",
                "code": "laboratory"
              }
            ]
          }
        ],
        "code": {
          "coding": [
            {
              "code": "32207-3",
              "system": "http://loinc.org",
              "display": "Platelet distribution width [Entitic volume] in Blood by Automated count"
            }
          ],
          "text": "Platelet distribution width [Entitic volume] in Blood by Automated count"
        },
        "valueQuantity": {
          "system": "http://unitsofmeasure.org",
          "value": 202.9,
          "unit": "fL",
          "code": "fL"
        },
        "referenceRange": [
          {
            "low": {
              "value": 144,
              "code": "fL",
              "system": "http://unitsofmeasure.org"
            }
          },
          {
            "high": {
              "value": 366,
              "code": "fL",
              "system": "http://unitsofmeasure.org"
            }
          }
        ],
        "text": {
          "status": "generated",
          "div": "<div xmlns=\"http://www.w3.org/1999/xhtml\"><table class=\"hl7__eu__lab__report\"><tr><th>Test</th><th>31-Jul-2021</th><th>Reference&#xA0;Range</th><th>Unit</th></tr><tr><td>Platelet distribution width [Entitic volume] in Blood by Automated count</td><td>202.9</td><td>144 - 366</td><td></td><td>fL</td></tr></table></div>"
        },
        "status": "final",
        "subject": {
          "reference": "urn:uuid:1c273157-fc1f-4894-9ff8-586dd15aa741",
          "display": "Andrzej Frydrychowicz"
        },
        "effectiveDateTime": "2021-07-31T21:33:04Z",
        "specimen": {
          "reference": "urn:uuid:7510eecc-f196-4dd6-a692-1ca82902e086"
        }
      }
    },
    {
      "fullUrl": "urn:uuid:a91b6c79-f6fe-4eb9-a018-2113222b3964",
      "resource": {
        "resourceType": "Observation",
        "id": "a91b6c79-f6fe-4eb9-a018-2113222b3964",
        "meta": {
          "profile": [
            "http://hl7.eu/fhir/laboratory/StructureDefinition/Observation-resultslab-eu-lab"
          ]
        },
        "performer": [
          {
            "display": "The Central European Lab"
          }
        ],
        "category": [
          {
            "coding": [
              {
                "system": "http://terminology.hl7.org/CodeSystem/observation-category",
                "code": "laboratory"
              }
            ]
          }
        ],
        "code": {
          "coding": [
            {
              "code": "32623-1",
              "system": "http://loinc.org",
              "display": "Platelet mean volume [Entitic volume] in Blood by Automated count"
            }
          ],
          "text": "Platelet mean volume [Entitic volume] in Blood by Automated count"
        },
        "valueQuantity": {
          "system": "http://unitsofmeasure.org",
          "value": 12,
          "unit": "fL",
          "code": "fL"
        },
        "referenceRange": [
          {
            "low": {
              "value": 9.8,
              "code": "fL",
              "system": "http://unitsofmeasure.org"
            }
          },
          {
            "high": {
              "value": 13.8,
              "code": "fL",
              "system": "http://unitsofmeasure.org"
            }
          }
        ],
        "text": {
          "status": "generated",
          "div": "<div xmlns=\"http://www.w3.org/1999/xhtml\"><table class=\"hl7__eu__lab__report\"><tr><th>Test</th><th>31-Jul-2021</th><th>Reference&#xA0;Range</th><th>Unit</th></tr><tr><td>Platelet mean volume [Entitic volume] in Blood by Automated count</td><td>12.0</td><td>9.8 - 13.8</td><td></td><td>fL</td></tr></table></div>"
        },
        "status": "final",
        "subject": {
          "reference": "urn:uuid:1c273157-fc1f-4894-9ff8-586dd15aa741",
          "display": "Andrzej Frydrychowicz"
        },
        "effectiveDateTime": "2021-07-31T21:33:04Z",
        "specimen": {
          "reference": "urn:uuid:7510eecc-f196-4dd6-a692-1ca82902e086"
        }
      }
    },
    {
      "fullUrl": "urn:uuid:8c773a04-be4b-4d76-82c4-9e0a451242f6",
      "resource": {
        "resourceType": "Device",
        "id": "8c773a04-be4b-4d76-82c4-9e0a451242f6",
        "deviceName": [
          {
            "name": "SYNDERAI Synthetic Generator",
            "type": "manufacturer-name"
          }
        ],
        "version": [
          {
            "value": "5.0"
          }
        ],
        "text": {
          "status": "generated",
          "div": "<div xmlns=\"http://www.w3.org/1999/xhtml\">SYNDERAI Synthetic Generator v5.0</div>"
        },
        "status": "active\"",
        "distinctIdentifier": "synderai-generator-50",
        "manufacturer": "SYNDERAI Project"
      }
    },
    {
      "fullUrl": "urn:uuid:d2eba377-ed7c-4016-bea2-ef354412dec3",
      "resource": {
        "resourceType": "Provenance",
        "id": "d2eba377-ed7c-4016-bea2-ef354412dec3",
        "target": [
          {
            "reference": "Patient/1c273157-fc1f-4894-9ff8-586dd15aa741"
          },
          {
            "reference": "Bundle/d8f5a049-2f3f-4c38-8b9f-ee727542b0ac"
          },
          {
            "reference": "Composition/15ff3518-4259-4cfc-9f11-7e9948a41d9e"
          },
          {
            "reference": "PractitionerRole/57addb66-052e-4e48-9249-719b8f17dd63"
          },
          {
            "reference": "Practitioner/5fc762be-b77b-4b1e-84e6-f3dda21d7d1d"
          },
          {
            "reference": "PractitionerRole/c19be0f8-41fe-4fe9-86ae-2559c0acf7a9"
          },
          {
            "reference": "Organization/36daae1b-1676-49a9-a3d4-ef07db6daed1"
          }
        ],
        "activity": {
          "text": "Synthetic Example Data Generation"
        },
        "policy": [
          "https://synderai.net/synderai-synthetic-data-policy"
        ],
        "agent": [
          {
            "type": {
              "text": "author"
            },
            "who": {
              "reference": "Device/8c773a04-be4b-4d76-82c4-9e0a451242f6"
            }
          }
        ],
        "reason": [
          {
            "text": "Interoperability Testing and Training (non-clinical use)"
          }
        ],
        "text": {
          "status": "generated",
          "div": "<div xmlns=\"http://www.w3.org/1999/xhtml\">Provenance for SYNDERAI Synthetic Example Data Resource</div>"
        },
        "recorded": "2021-07-31T23:33:04Z"
      }
    },
    {
      "fullUrl": "urn:uuid:57addb66-052e-4e48-9249-719b8f17dd63",
      "resource": {
        "resourceType": "PractitionerRole",
        "id": "57addb66-052e-4e48-9249-719b8f17dd63",
        "meta": {
          "profile": [
            "http://hl7.eu/fhir/base/StructureDefinition/practitionerRole-eu"
          ]
        },
        "text": {
          "status": "generated",
          "div": "<div xmlns=\"http://www.w3.org/1999/xhtml\">Laboratory Role Id: 57addb66-052e-4e48-9249-719b8f17dd63</div>"
        },
        "practitioner": {
          "reference": "urn:uuid:5fc762be-b77b-4b1e-84e6-f3dda21d7d1d"
        }
      }
    },
    {
      "fullUrl": "urn:uuid:5fc762be-b77b-4b1e-84e6-f3dda21d7d1d",
      "resource": {
        "resourceType": "Practitioner",
        "id": "5fc762be-b77b-4b1e-84e6-f3dda21d7d1d",
        "meta": {
          "profile": [
            "http://hl7.eu/fhir/base/StructureDefinition/practitioner-eu"
          ]
        },
        "identifier": [
          {
            "assigner": {
              "display": "HL7 Europe"
            },
            "system": "urn:oid:2.16.840.1.113883.2.51.999",
            "value": "14c17342-9f86-4ff9-bfb0-58298de681a0"
          }
        ],
        "name": [
          {
            "prefix": [
              "dr"
            ],
            "given": [
              "Ex"
            ],
            "family": "Ample"
          }
        ],
        "address": [
          {
            "line": [
              "Laboratoire Central Européenne",
              "Boulevard du Jardin Botanique 32"
            ],
            "postalCode": "1000",
            "city": "Brussels",
            "country": "Belgium"
          }
        ],
        "text": {
          "status": "generated",
          "div": "<div xmlns=\"http://www.w3.org/1999/xhtml\">Laboratory: Laboratoire Central Européenne, 1000 Brussels, Belgium</div>"
        }
      }
    }
  ],
  "type": "document",
  "timestamp": "2021-07-31T23:33:04Z"
}
