{
  "resourceType": "Bundle",
  "id": "3e4dc869-3948-4a90-9605-7b60531f4acd",
  "meta": {
    "profile": [
      "http://hl7.eu/fhir/laboratory/StructureDefinition/Bundle-eu-lab"
    ]
  },
  "identifier": {
    "assigner": {
      "display": "HL7 Europe"
    },
    "system": "urn:oid:2.16.840.1.113883.2.51.999",
    "value": "6e30b3a9-9350-4ea9-b551-a501ff1045bf"
  },
  "entry": [
    {
      "fullUrl": "urn:uuid:de4f9ba0-a62d-4b4f-8674-aa91f28e6a43",
      "resource": {
        "resourceType": "Composition",
        "id": "de4f9ba0-a62d-4b4f-8674-aa91f28e6a43",
        "meta": {
          "profile": [
            "http://hl7.eu/fhir/laboratory/StructureDefinition/Composition-eu-lab"
          ]
        },
        "identifier": {
          "assigner": {
            "display": "HL7 Europe"
          },
          "system": "urn:oid:2.16.840.1.113883.2.51.999",
          "value": "9271d854-835d-43c8-863e-1faac9940e81"
        },
        "author": [
          {
            "reference": "urn:uuid:858ecc06-36fa-46ac-94f5-15e58f6e8502"
          }
        ],
        "category": [
          {
            "coding": [
              {
                "code": "26436-6",
                "system": "http://loinc.org",
                "display": "Laboratory studies (set)"
              }
            ]
          }
        ],
        "type": {
          "coding": [
            {
              "code": "11502-2",
              "system": "http://loinc.org",
              "display": "Laboratory report"
            }
          ],
          "text": "Laboratory Report"
        },
        "section": [
          {
            "code": {
              "coding": [
                {
                  "code": "26436-6",
                  "system": "http://loinc.org",
                  "display": "Laboratory studies (set)"
                }
              ],
              "text": "Laboratory studies"
            },
            "section": [
              {
                "code": {
                  "coding": [
                    {
                      "code": "$18719-5",
                      "system": "http://loinc.org",
                      "display": "Chemistry studies (set)"
                    }
                  ],
                  "text": "Chemistry"
                },
                "entry": [
                  {
                    "reference": "urn:uuid:8ebda645-f7ca-4e9b-a0e3-8c67f1a45ad9"
                  },
                  {
                    "reference": "urn:uuid:5be3975a-071a-485b-b703-48d3c0b5f031"
                  },
                  {
                    "reference": "urn:uuid:c1b070b7-5b0e-42f3-a2da-e39726c5da61"
                  },
                  {
                    "reference": "urn:uuid:26eb5b85-4275-46e3-bd08-3706111fb510"
                  },
                  {
                    "reference": "urn:uuid:9ef459e1-de16-431c-90c0-8a4c97b98f2f"
                  },
                  {
                    "reference": "urn:uuid:6fa46215-a3a8-4403-90ba-d980214fb654"
                  },
                  {
                    "reference": "urn:uuid:11ea7a67-5e92-476d-a138-28364d3913c8"
                  },
                  {
                    "reference": "urn:uuid:fc7468cc-dd97-4409-9454-90c5265cf346"
                  },
                  {
                    "reference": "urn:uuid:7f3d4b8c-997f-4dae-a85b-3016f74ef564"
                  },
                  {
                    "reference": "urn:uuid:eda1d721-4720-4175-9478-99f86e403f82"
                  },
                  {
                    "reference": "urn:uuid:35302d79-a12d-4ac8-b6c4-afcc9ca5c77a"
                  },
                  {
                    "reference": "urn:uuid:1ef1c179-407e-4d09-8735-84361807c50b"
                  },
                  {
                    "reference": "urn:uuid:b5a1823c-a478-44fb-ac02-9acdf6c42457"
                  }
                ],
                "text": {
                  "status": "generated",
                  "div": "<div xmlns=\"http://www.w3.org/1999/xhtml\"><h3>Chemistry</h3><table class=\"hl7__eu__lab__report\"><thead><tr><th>Test</th><th>28-JAN-2021</th><th>Reference&#xA0;Range</th><th>Unit</th></tr></thead><tbody><tr><td>Hemoglobin A1c/Hemoglobin.total in Blood</td><td>6.2</td><td>4.5 - 6.4</td><td>%</td></tr><tr><td>Glucose [Mass/volume] in Blood</td><td>78.5</td><td>70 - 99</td><td>mg/dL</td></tr><tr><td>Urea nitrogen [Mass/volume] in Blood</td><td>10.0</td><td>7 - 20</td><td>mg/dL</td></tr><tr><td>Creatinine [Mass/volume] in Blood</td><td>1.1</td><td>0.7 - 1.3</td><td>mg/dL</td></tr><tr><td>Calcium [Mass/volume] in Blood</td><td>10.1</td><td>8.5 - 10.5</td><td>mg/dL</td></tr><tr><td>Sodium [Moles/volume] in Blood</td><td>137.7</td><td>135 - 145</td><td>mmol/L</td></tr><tr><td>Potassium [Moles/volume] in Blood</td><td>3.7</td><td>3.5 - 5.3</td><td>mmol/L</td></tr><tr><td>Chloride [Moles/volume] in Blood</td><td>109.6</td><td>98 - 110</td><td>mmol/L</td></tr><tr><td>Carbon dioxide, total [Moles/volume] in Blood</td><td><strong>20.8 L</strong></td><td>22 - 29</td><td>mmol/L</td></tr><tr><td>Cholesterol [Mass/volume] in Serum or Plasma</td><td><strong>212.8 H</strong></td><td>125 - 200</td><td>mg/dL</td></tr><tr><td>Triglyceride [Mass/volume] in Serum or Plasma</td><td>103.4</td><td>0 - 150</td><td>mg/dL</td></tr><tr><td>Cholesterol in LDL [Mass/volume] in Serum or Plasma by Direct assay</td><td><strong>142.5 H</strong></td><td>0 - 130</td><td>mg/dL</td></tr><tr><td>Cholesterol in HDL [Mass/volume] in Serum or Plasma</td><td>49.7</td><td>40 - 60</td><td>mg/dL</td></tr></tbody></table></div>"
                },
                "title": "Chemistry"
              }
            ],
            "title": "Laboratory Report"
          },
          {
            "text": {
              "status": "generated",
              "div": "<div xmlns=\"http://www.w3.org/1999/xhtml\"><h3>Annotation</h3><table class=\"hl7__eu__lab__report\"><tr><th>Conclusion and Recommendations based on this report and previous findings known to us</th></tr><tr><td>The patient&quot;s glucose metabolism is within normal limits, but HbA1c is at the upper end of normal, suggesting prediabetes risk. Lipid profile shows elevated total and LDL cholesterol, indicating increased cardiovascular risk. Other parameters, including renal function and electrolytes, are within normal limits except for mildly decreased total CO₂, which may suggest mild metabolic acidosis. Clinical correlation and follow-up are recommended.</td></tr></table></div>"
            },
            "code": {
              "coding": [
                {
                  "system": "http://loinc.org",
                  "code": "48767-8",
                  "display": "Annotation comment"
                }
              ]
            },
            "title": "Annotation comment"
          }
        ],
        "status": "final",
        "subject": {
          "reference": "urn:uuid:3e4c0528-7b08-4720-9574-a05c790e99bd",
          "display": "Alfred Rémy"
        },
        "date": "2021-01-28T07:54:36Z",
        "title": "Laboratory Report",
        "confidentiality": "N"
      }
    },
    {
      "fullUrl": "urn:uuid:f7f7bce7-19d4-421e-9092-fa30555e899e",
      "resource": {
        "resourceType": "DiagnosticReport",
        "id": "f7f7bce7-19d4-421e-9092-fa30555e899e",
        "meta": {
          "profile": [
            "http://hl7.eu/fhir/laboratory/StructureDefinition/DiagnosticReport-eu-lab"
          ]
        },
        "identifier": [
          {
            "assigner": {
              "display": "HL7 Europe"
            },
            "system": "urn:oid:2.16.840.1.113883.2.51.999",
            "value": "70f3fcb5-2e4d-4930-a9ea-44883129be2a"
          }
        ],
        "extension": [
          {
            "url": "http://hl7.org/fhir/5.0/StructureDefinition/extension-DiagnosticReport.composition",
            "valueReference": {
              "reference": "urn:uuid:9271d854-835d-43c8-863e-1faac9940e81"
            }
          }
        ],
        "category": [
          {
            "coding": [
              {
                "code": "26436-6",
                "system": "http://loinc.org",
                "display": "Laboratory studies (set)"
              }
            ]
          }
        ],
        "specimen": [
          {
            "reference": "urn:uuid:b2749274-374c-41d2-85ec-2a031c3797ca"
          },
          {
            "reference": "urn:uuid:1a7436ea-4812-43c2-8d89-fbdbf21f0b8e"
          }
        ],
        "result": [
          {
            "reference": "urn:uuid:8ebda645-f7ca-4e9b-a0e3-8c67f1a45ad9"
          },
          {
            "reference": "urn:uuid:5be3975a-071a-485b-b703-48d3c0b5f031"
          },
          {
            "reference": "urn:uuid:c1b070b7-5b0e-42f3-a2da-e39726c5da61"
          },
          {
            "reference": "urn:uuid:26eb5b85-4275-46e3-bd08-3706111fb510"
          },
          {
            "reference": "urn:uuid:9ef459e1-de16-431c-90c0-8a4c97b98f2f"
          },
          {
            "reference": "urn:uuid:6fa46215-a3a8-4403-90ba-d980214fb654"
          },
          {
            "reference": "urn:uuid:11ea7a67-5e92-476d-a138-28364d3913c8"
          },
          {
            "reference": "urn:uuid:fc7468cc-dd97-4409-9454-90c5265cf346"
          },
          {
            "reference": "urn:uuid:7f3d4b8c-997f-4dae-a85b-3016f74ef564"
          },
          {
            "reference": "urn:uuid:eda1d721-4720-4175-9478-99f86e403f82"
          },
          {
            "reference": "urn:uuid:35302d79-a12d-4ac8-b6c4-afcc9ca5c77a"
          },
          {
            "reference": "urn:uuid:1ef1c179-407e-4d09-8735-84361807c50b"
          },
          {
            "reference": "urn:uuid:b5a1823c-a478-44fb-ac02-9acdf6c42457"
          }
        ],
        "status": "registered",
        "code": {
          "coding": [
            {
              "code": "11502-2",
              "system": "http://loinc.org",
              "display": "Laboratory report"
            }
          ]
        },
        "subject": {
          "reference": "urn:uuid:3e4c0528-7b08-4720-9574-a05c790e99bd",
          "display": "Alfred Rémy"
        }
      }
    },
    {
      "fullUrl": "urn:uuid:3e4c0528-7b08-4720-9574-a05c790e99bd",
      "resource": {
        "resourceType": "Patient",
        "id": "3e4c0528-7b08-4720-9574-a05c790e99bd",
        "meta": {
          "security": [
            {
              "system": "http://terminology.hl7.org/CodeSystem/v3-ActReason",
              "code": "HTEST"
            },
            {
              "system": "http://terminology.hl7.org/CodeSystem/v3-ActReason",
              "code": "TRAIN"
            }
          ],
          "tag": [
            {
              "system": "https://synderai.net/fhir/CodeSystem/tags",
              "code": "synthetic",
              "display": "SYNDERAI Synthetic data"
            }
          ],
          "profile": [
            "http://hl7.eu/fhir/base/StructureDefinition/patient-eu-core"
          ]
        },
        "identifier": [
          {
            "type": {
              "coding": [
                {
                  "code": "PT",
                  "system": "http://terminology.hl7.org/CodeSystem/v2-0203"
                }
              ]
            },
            "system": "http://ec.europa.eu/identifier/eci",
            "value": "9962-084919-2"
          },
          {
            "type": {
              "coding": [
                {
                  "code": "MR",
                  "system": "http://terminology.hl7.org/CodeSystem/v2-0203"
                }
              ]
            },
            "system": "http://local.setting.eu/identifier",
            "value": "cc3b7d7f-bed4-5811-99b9-3468e2f4203c"
          }
        ],
        "name": [
          {
            "family": "Rémy"
          },
          {
            "given": [
              "Alfred"
            ]
          },
          {
            "text": "Alfred Rémy"
          }
        ],
        "address": [
          {
            "line": [
              "88, rue de Jacquot"
            ],
            "use": "home",
            "type": "physical",
            "postalCode": "75018",
            "city": "Paris",
            "country": "France"
          }
        ],
        "telecom": [
          {
            "system": "phone",
            "value": "+33 (0)4 73 74 17 67"
          }
        ],
        "extension": [
          {
            "url": "http://hl7.org/fhir/StructureDefinition/patient-nationality",
            "valueCodeableConcept": {
              "coding": [
                {
                  "code": "FR",
                  "system": "http://hl7.org/fhir/ValueSet/country"
                }
              ]
            }
          }
        ],
        "text": {
          "status": "generated",
          "div": "<div xmlns=\"http://www.w3.org/1999/xhtml\"><table class=\"hl7__ips\"><tr><td>Alfred Rémy</td><td>male</td><td>05-Jul-1967</td></tr></table></div>"
        },
        "gender": "male",
        "birthDate": "1967-07-05"
      }
    },
    {
      "fullUrl": "urn:uuid:be9f0c04-43b5-4ded-9530-2cd7adcd3c19",
      "resource": {
        "resourceType": "ServiceRequest",
        "id": "be9f0c04-43b5-4ded-9530-2cd7adcd3c19",
        "meta": {
          "profile": [
            "http://hl7.eu/fhir/laboratory/StructureDefinition/ServiceRequest-eu-lab"
          ]
        },
        "identifier": [
          {
            "system": "http://example.org",
            "value": "a673a973-2579-4de1-b0f5-3070eda25eae"
          }
        ],
        "specimen": [
          {
            "reference": "urn:uuid:b2749274-374c-41d2-85ec-2a031c3797ca"
          },
          {
            "reference": "urn:uuid:1a7436ea-4812-43c2-8d89-fbdbf21f0b8e"
          }
        ],
        "reasonCode": [
          {
            "coding": [
              {
                "code": "271737000",
                "system": "http://snomed.info/sct",
                "display": "Anemia"
              }
            ]
          },
          {
            "coding": [
              {
                "code": "15777000",
                "system": "http://snomed.info/sct",
                "display": "Prediabetes"
              }
            ]
          }
        ],
        "status": "active",
        "intent": "order",
        "code": {
          "coding": [
            {
              "code": "108252007",
              "system": "http://snomed.info/sct",
              "display": "Laboratory procedure"
            }
          ]
        },
        "subject": {
          "reference": "urn:uuid:3e4c0528-7b08-4720-9574-a05c790e99bd",
          "display": "Alfred Rémy"
        },
        "requester": {
          "reference": "urn:uuid:06b84ced-57e9-4ade-9e50-410881e4cdd5"
        }
      }
    },
    {
      "fullUrl": "urn:uuid:06b84ced-57e9-4ade-9e50-410881e4cdd5",
      "resource": {
        "resourceType": "PractitionerRole",
        "id": "06b84ced-57e9-4ade-9e50-410881e4cdd5",
        "meta": {
          "profile": [
            "http://hl7.eu/fhir/base/StructureDefinition/practitionerRole-eu"
          ]
        },
        "text": {
          "status": "generated",
          "div": "<div xmlns=\"http://www.w3.org/1999/xhtml\">Provider Role Id: 06b84ced-57e9-4ade-9e50-410881e4cdd5</div>"
        },
        "organization": {
          "reference": "urn:uuid:9efde5b9-5a3c-40d9-a759-aa3d193bd269"
        }
      }
    },
    {
      "fullUrl": "urn:uuid:9efde5b9-5a3c-40d9-a759-aa3d193bd269",
      "resource": {
        "resourceType": "Organization",
        "id": "9efde5b9-5a3c-40d9-a759-aa3d193bd269",
        "meta": {
          "profile": [
            "http://hl7.eu/fhir/base/StructureDefinition/organization-eu"
          ]
        },
        "identifier": [
          {
            "assigner": {
              "display": "HL7 Europe"
            },
            "system": "urn:oid:2.16.840.1.113883.2.51.999",
            "value": "5cdfc9e5-e452-4806-b105-c42be5f297e9"
          }
        ],
        "address": [
          {
            "city": "Paris",
            "postalCode": "75005",
            "country": "France"
          }
        ],
        "text": {
          "status": "generated",
          "div": "<div xmlns=\"http://www.w3.org/1999/xhtml\">Provider Organization: Maison des parents Irène Joliot-Curie</div>"
        },
        "name": "Maison des parents Irène Joliot-Curie"
      }
    },
    {
      "fullUrl": "urn:uuid:b2749274-374c-41d2-85ec-2a031c3797ca",
      "resource": {
        "resourceType": "Specimen",
        "id": "b2749274-374c-41d2-85ec-2a031c3797ca",
        "meta": {
          "profile": [
            "http://hl7.eu/fhir/laboratory/StructureDefinition/Specimen-eu-lab"
          ]
        },
        "collection": {
          "collectedDateTime": "2021-01-28"
        },
        "text": {
          "status": "generated",
          "div": "<div xmlns=\"http://www.w3.org/1999/xhtml\"><table class=\"hl7__eu__lab__report\"><tr><th>Specimen</th><th>Collection Date</th></tr><tr><td>Whole blood specimen (specimen)</td><td><span class=\"nb\">28-Jan-2021</span></td></tr></table></div>"
        },
        "type": {
          "coding": [
            {
              "code": "258580003",
              "system": "http://snomed.info/sct",
              "display": "Whole blood specimen (specimen)"
            }
          ]
        }
      }
    },
    {
      "fullUrl": "urn:uuid:1a7436ea-4812-43c2-8d89-fbdbf21f0b8e",
      "resource": {
        "resourceType": "Specimen",
        "id": "1a7436ea-4812-43c2-8d89-fbdbf21f0b8e",
        "meta": {
          "profile": [
            "http://hl7.eu/fhir/laboratory/StructureDefinition/Specimen-eu-lab"
          ]
        },
        "collection": {
          "collectedDateTime": "2021-01-28"
        },
        "text": {
          "status": "generated",
          "div": "<div xmlns=\"http://www.w3.org/1999/xhtml\"><table class=\"hl7__eu__lab__report\"><tr><th>Specimen</th><th>Collection Date</th></tr><tr><td>Acellular blood (serum or plasma) specimen</td><td><span class=\"nb\">28-Jan-2021</span></td></tr></table></div>"
        },
        "type": {
          "coding": [
            {
              "code": "122592007",
              "system": "http://snomed.info/sct",
              "display": "Acellular blood (serum or plasma) specimen"
            }
          ]
        }
      }
    },
    {
      "fullUrl": "urn:uuid:8ebda645-f7ca-4e9b-a0e3-8c67f1a45ad9",
      "resource": {
        "resourceType": "Observation",
        "id": "8ebda645-f7ca-4e9b-a0e3-8c67f1a45ad9",
        "meta": {
          "profile": [
            "http://hl7.eu/fhir/laboratory/StructureDefinition/Observation-resultslab-eu-lab"
          ]
        },
        "performer": [
          {
            "display": "The Central European Lab"
          }
        ],
        "category": [
          {
            "coding": [
              {
                "system": "http://terminology.hl7.org/CodeSystem/observation-category",
                "code": "laboratory"
              }
            ]
          }
        ],
        "code": {
          "coding": [
            {
              "code": "4548-4",
              "system": "http://loinc.org",
              "display": "Hemoglobin A1c/Hemoglobin.total in Blood"
            }
          ],
          "text": "Hemoglobin A1c/Hemoglobin.total in Blood"
        },
        "valueQuantity": {
          "system": "http://unitsofmeasure.org",
          "value": 6.2,
          "unit": "%",
          "code": "%"
        },
        "referenceRange": [
          {
            "low": {
              "value": 4.5,
              "code": "%",
              "system": "http://unitsofmeasure.org"
            }
          },
          {
            "high": {
              "value": 6.4,
              "code": "%",
              "system": "http://unitsofmeasure.org"
            }
          }
        ],
        "text": {
          "status": "generated",
          "div": "<div xmlns=\"http://www.w3.org/1999/xhtml\"><table class=\"hl7__eu__lab__report\"><tr><th>Test</th><th>28-Jan-2021</th><th>Reference&#xA0;Range</th><th>Unit</th></tr><tr><td>Hemoglobin A1c/Hemoglobin.total in Blood</td><td>6.2</td><td>4.5 - 6.4</td><td></td><td>%</td></tr></table></div>"
        },
        "status": "final",
        "subject": {
          "reference": "urn:uuid:3e4c0528-7b08-4720-9574-a05c790e99bd",
          "display": "Alfred Rémy"
        },
        "effectiveDateTime": "2021-01-28T06:54:36Z",
        "specimen": {
          "reference": "urn:uuid:b2749274-374c-41d2-85ec-2a031c3797ca"
        }
      }
    },
    {
      "fullUrl": "urn:uuid:5be3975a-071a-485b-b703-48d3c0b5f031",
      "resource": {
        "resourceType": "Observation",
        "id": "5be3975a-071a-485b-b703-48d3c0b5f031",
        "meta": {
          "profile": [
            "http://hl7.eu/fhir/laboratory/StructureDefinition/Observation-resultslab-eu-lab"
          ]
        },
        "performer": [
          {
            "display": "The Central European Lab"
          }
        ],
        "category": [
          {
            "coding": [
              {
                "system": "http://terminology.hl7.org/CodeSystem/observation-category",
                "code": "laboratory"
              }
            ]
          }
        ],
        "code": {
          "coding": [
            {
              "code": "2339-0",
              "system": "http://loinc.org",
              "display": "Glucose [Mass/volume] in Blood"
            }
          ],
          "text": "Glucose [Mass/volume] in Blood"
        },
        "valueQuantity": {
          "system": "http://unitsofmeasure.org",
          "value": 78.5,
          "unit": "mg/dL",
          "code": "mg/dL"
        },
        "referenceRange": [
          {
            "low": {
              "value": 70,
              "code": "mg/dL",
              "system": "http://unitsofmeasure.org"
            }
          },
          {
            "high": {
              "value": 99,
              "code": "mg/dL",
              "system": "http://unitsofmeasure.org"
            }
          }
        ],
        "text": {
          "status": "generated",
          "div": "<div xmlns=\"http://www.w3.org/1999/xhtml\"><table class=\"hl7__eu__lab__report\"><tr><th>Test</th><th>28-Jan-2021</th><th>Reference&#xA0;Range</th><th>Unit</th></tr><tr><td>Glucose [Mass/volume] in Blood</td><td>78.5</td><td>70 - 99</td><td></td><td>mg/dL</td></tr></table></div>"
        },
        "status": "final",
        "subject": {
          "reference": "urn:uuid:3e4c0528-7b08-4720-9574-a05c790e99bd",
          "display": "Alfred Rémy"
        },
        "effectiveDateTime": "2021-01-28T06:54:36Z",
        "specimen": {
          "reference": "urn:uuid:b2749274-374c-41d2-85ec-2a031c3797ca"
        }
      }
    },
    {
      "fullUrl": "urn:uuid:c1b070b7-5b0e-42f3-a2da-e39726c5da61",
      "resource": {
        "resourceType": "Observation",
        "id": "c1b070b7-5b0e-42f3-a2da-e39726c5da61",
        "meta": {
          "profile": [
            "http://hl7.eu/fhir/laboratory/StructureDefinition/Observation-resultslab-eu-lab"
          ]
        },
        "performer": [
          {
            "display": "The Central European Lab"
          }
        ],
        "category": [
          {
            "coding": [
              {
                "system": "http://terminology.hl7.org/CodeSystem/observation-category",
                "code": "laboratory"
              }
            ]
          }
        ],
        "code": {
          "coding": [
            {
              "code": "6299-2",
              "system": "http://loinc.org",
              "display": "Urea nitrogen [Mass/volume] in Blood"
            }
          ],
          "text": "Urea nitrogen [Mass/volume] in Blood"
        },
        "valueQuantity": {
          "system": "http://unitsofmeasure.org",
          "value": 10,
          "unit": "mg/dL",
          "code": "mg/dL"
        },
        "referenceRange": [
          {
            "low": {
              "value": 7,
              "code": "mg/dL",
              "system": "http://unitsofmeasure.org"
            }
          },
          {
            "high": {
              "value": 20,
              "code": "mg/dL",
              "system": "http://unitsofmeasure.org"
            }
          }
        ],
        "text": {
          "status": "generated",
          "div": "<div xmlns=\"http://www.w3.org/1999/xhtml\"><table class=\"hl7__eu__lab__report\"><tr><th>Test</th><th>28-Jan-2021</th><th>Reference&#xA0;Range</th><th>Unit</th></tr><tr><td>Urea nitrogen [Mass/volume] in Blood</td><td>10.0</td><td>7 - 20</td><td></td><td>mg/dL</td></tr></table></div>"
        },
        "status": "final",
        "subject": {
          "reference": "urn:uuid:3e4c0528-7b08-4720-9574-a05c790e99bd",
          "display": "Alfred Rémy"
        },
        "effectiveDateTime": "2021-01-28T06:54:36Z",
        "specimen": {
          "reference": "urn:uuid:b2749274-374c-41d2-85ec-2a031c3797ca"
        }
      }
    },
    {
      "fullUrl": "urn:uuid:26eb5b85-4275-46e3-bd08-3706111fb510",
      "resource": {
        "resourceType": "Observation",
        "id": "26eb5b85-4275-46e3-bd08-3706111fb510",
        "meta": {
          "profile": [
            "http://hl7.eu/fhir/laboratory/StructureDefinition/Observation-resultslab-eu-lab"
          ]
        },
        "performer": [
          {
            "display": "The Central European Lab"
          }
        ],
        "category": [
          {
            "coding": [
              {
                "system": "http://terminology.hl7.org/CodeSystem/observation-category",
                "code": "laboratory"
              }
            ]
          }
        ],
        "code": {
          "coding": [
            {
              "code": "38483-4",
              "system": "http://loinc.org",
              "display": "Creatinine [Mass/volume] in Blood"
            }
          ],
          "text": "Creatinine [Mass/volume] in Blood"
        },
        "valueQuantity": {
          "system": "http://unitsofmeasure.org",
          "value": 1.1,
          "unit": "mg/dL",
          "code": "mg/dL"
        },
        "referenceRange": [
          {
            "low": {
              "value": 0.7,
              "code": "mg/dL",
              "system": "http://unitsofmeasure.org"
            }
          },
          {
            "high": {
              "value": 1.3,
              "code": "mg/dL",
              "system": "http://unitsofmeasure.org"
            }
          }
        ],
        "text": {
          "status": "generated",
          "div": "<div xmlns=\"http://www.w3.org/1999/xhtml\"><table class=\"hl7__eu__lab__report\"><tr><th>Test</th><th>28-Jan-2021</th><th>Reference&#xA0;Range</th><th>Unit</th></tr><tr><td>Creatinine [Mass/volume] in Blood</td><td>1.1</td><td>0.7 - 1.3</td><td></td><td>mg/dL</td></tr></table></div>"
        },
        "status": "final",
        "subject": {
          "reference": "urn:uuid:3e4c0528-7b08-4720-9574-a05c790e99bd",
          "display": "Alfred Rémy"
        },
        "effectiveDateTime": "2021-01-28T06:54:36Z",
        "specimen": {
          "reference": "urn:uuid:b2749274-374c-41d2-85ec-2a031c3797ca"
        }
      }
    },
    {
      "fullUrl": "urn:uuid:9ef459e1-de16-431c-90c0-8a4c97b98f2f",
      "resource": {
        "resourceType": "Observation",
        "id": "9ef459e1-de16-431c-90c0-8a4c97b98f2f",
        "meta": {
          "profile": [
            "http://hl7.eu/fhir/laboratory/StructureDefinition/Observation-resultslab-eu-lab"
          ]
        },
        "performer": [
          {
            "display": "The Central European Lab"
          }
        ],
        "category": [
          {
            "coding": [
              {
                "system": "http://terminology.hl7.org/CodeSystem/observation-category",
                "code": "laboratory"
              }
            ]
          }
        ],
        "code": {
          "coding": [
            {
              "code": "49765-1",
              "system": "http://loinc.org",
              "display": "Calcium [Mass/volume] in Blood"
            }
          ],
          "text": "Calcium [Mass/volume] in Blood"
        },
        "valueQuantity": {
          "system": "http://unitsofmeasure.org",
          "value": 10.1,
          "unit": "mg/dL",
          "code": "mg/dL"
        },
        "referenceRange": [
          {
            "low": {
              "value": 8.5,
              "code": "mg/dL",
              "system": "http://unitsofmeasure.org"
            }
          },
          {
            "high": {
              "value": 10.5,
              "code": "mg/dL",
              "system": "http://unitsofmeasure.org"
            }
          }
        ],
        "text": {
          "status": "generated",
          "div": "<div xmlns=\"http://www.w3.org/1999/xhtml\"><table class=\"hl7__eu__lab__report\"><tr><th>Test</th><th>28-Jan-2021</th><th>Reference&#xA0;Range</th><th>Unit</th></tr><tr><td>Calcium [Mass/volume] in Blood</td><td>10.1</td><td>8.5 - 10.5</td><td></td><td>mg/dL</td></tr></table></div>"
        },
        "status": "final",
        "subject": {
          "reference": "urn:uuid:3e4c0528-7b08-4720-9574-a05c790e99bd",
          "display": "Alfred Rémy"
        },
        "effectiveDateTime": "2021-01-28T06:54:36Z",
        "specimen": {
          "reference": "urn:uuid:b2749274-374c-41d2-85ec-2a031c3797ca"
        }
      }
    },
    {
      "fullUrl": "urn:uuid:6fa46215-a3a8-4403-90ba-d980214fb654",
      "resource": {
        "resourceType": "Observation",
        "id": "6fa46215-a3a8-4403-90ba-d980214fb654",
        "meta": {
          "profile": [
            "http://hl7.eu/fhir/laboratory/StructureDefinition/Observation-resultslab-eu-lab"
          ]
        },
        "performer": [
          {
            "display": "The Central European Lab"
          }
        ],
        "category": [
          {
            "coding": [
              {
                "system": "http://terminology.hl7.org/CodeSystem/observation-category",
                "code": "laboratory"
              }
            ]
          }
        ],
        "code": {
          "coding": [
            {
              "code": "2947-0",
              "system": "http://loinc.org",
              "display": "Sodium [Moles/volume] in Blood"
            }
          ],
          "text": "Sodium [Moles/volume] in Blood"
        },
        "valueQuantity": {
          "system": "http://unitsofmeasure.org",
          "value": 137.7,
          "unit": "mmol/L",
          "code": "mmol/L"
        },
        "referenceRange": [
          {
            "low": {
              "value": 135,
              "code": "mmol/L",
              "system": "http://unitsofmeasure.org"
            }
          },
          {
            "high": {
              "value": 145,
              "code": "mmol/L",
              "system": "http://unitsofmeasure.org"
            }
          }
        ],
        "text": {
          "status": "generated",
          "div": "<div xmlns=\"http://www.w3.org/1999/xhtml\"><table class=\"hl7__eu__lab__report\"><tr><th>Test</th><th>28-Jan-2021</th><th>Reference&#xA0;Range</th><th>Unit</th></tr><tr><td>Sodium [Moles/volume] in Blood</td><td>137.7</td><td>135 - 145</td><td></td><td>mmol/L</td></tr></table></div>"
        },
        "status": "final",
        "subject": {
          "reference": "urn:uuid:3e4c0528-7b08-4720-9574-a05c790e99bd",
          "display": "Alfred Rémy"
        },
        "effectiveDateTime": "2021-01-28T06:54:36Z",
        "specimen": {
          "reference": "urn:uuid:b2749274-374c-41d2-85ec-2a031c3797ca"
        }
      }
    },
    {
      "fullUrl": "urn:uuid:11ea7a67-5e92-476d-a138-28364d3913c8",
      "resource": {
        "resourceType": "Observation",
        "id": "11ea7a67-5e92-476d-a138-28364d3913c8",
        "meta": {
          "profile": [
            "http://hl7.eu/fhir/laboratory/StructureDefinition/Observation-resultslab-eu-lab"
          ]
        },
        "performer": [
          {
            "display": "The Central European Lab"
          }
        ],
        "category": [
          {
            "coding": [
              {
                "system": "http://terminology.hl7.org/CodeSystem/observation-category",
                "code": "laboratory"
              }
            ]
          }
        ],
        "code": {
          "coding": [
            {
              "code": "6298-4",
              "system": "http://loinc.org",
              "display": "Potassium [Moles/volume] in Blood"
            }
          ],
          "text": "Potassium [Moles/volume] in Blood"
        },
        "valueQuantity": {
          "system": "http://unitsofmeasure.org",
          "value": 3.7,
          "unit": "mmol/L",
          "code": "mmol/L"
        },
        "referenceRange": [
          {
            "low": {
              "value": 3.5,
              "code": "mmol/L",
              "system": "http://unitsofmeasure.org"
            }
          },
          {
            "high": {
              "value": 5.3,
              "code": "mmol/L",
              "system": "http://unitsofmeasure.org"
            }
          }
        ],
        "text": {
          "status": "generated",
          "div": "<div xmlns=\"http://www.w3.org/1999/xhtml\"><table class=\"hl7__eu__lab__report\"><tr><th>Test</th><th>28-Jan-2021</th><th>Reference&#xA0;Range</th><th>Unit</th></tr><tr><td>Potassium [Moles/volume] in Blood</td><td>3.7</td><td>3.5 - 5.3</td><td></td><td>mmol/L</td></tr></table></div>"
        },
        "status": "final",
        "subject": {
          "reference": "urn:uuid:3e4c0528-7b08-4720-9574-a05c790e99bd",
          "display": "Alfred Rémy"
        },
        "effectiveDateTime": "2021-01-28T06:54:36Z",
        "specimen": {
          "reference": "urn:uuid:b2749274-374c-41d2-85ec-2a031c3797ca"
        }
      }
    },
    {
      "fullUrl": "urn:uuid:fc7468cc-dd97-4409-9454-90c5265cf346",
      "resource": {
        "resourceType": "Observation",
        "id": "fc7468cc-dd97-4409-9454-90c5265cf346",
        "meta": {
          "profile": [
            "http://hl7.eu/fhir/laboratory/StructureDefinition/Observation-resultslab-eu-lab"
          ]
        },
        "performer": [
          {
            "display": "The Central European Lab"
          }
        ],
        "category": [
          {
            "coding": [
              {
                "system": "http://terminology.hl7.org/CodeSystem/observation-category",
                "code": "laboratory"
              }
            ]
          }
        ],
        "code": {
          "coding": [
            {
              "code": "2069-3",
              "system": "http://loinc.org",
              "display": "Chloride [Moles/volume] in Blood"
            }
          ],
          "text": "Chloride [Moles/volume] in Blood"
        },
        "valueQuantity": {
          "system": "http://unitsofmeasure.org",
          "value": 109.6,
          "unit": "mmol/L",
          "code": "mmol/L"
        },
        "referenceRange": [
          {
            "low": {
              "value": 98,
              "code": "mmol/L",
              "system": "http://unitsofmeasure.org"
            }
          },
          {
            "high": {
              "value": 110,
              "code": "mmol/L",
              "system": "http://unitsofmeasure.org"
            }
          }
        ],
        "text": {
          "status": "generated",
          "div": "<div xmlns=\"http://www.w3.org/1999/xhtml\"><table class=\"hl7__eu__lab__report\"><tr><th>Test</th><th>28-Jan-2021</th><th>Reference&#xA0;Range</th><th>Unit</th></tr><tr><td>Chloride [Moles/volume] in Blood</td><td>109.6</td><td>98 - 110</td><td></td><td>mmol/L</td></tr></table></div>"
        },
        "status": "final",
        "subject": {
          "reference": "urn:uuid:3e4c0528-7b08-4720-9574-a05c790e99bd",
          "display": "Alfred Rémy"
        },
        "effectiveDateTime": "2021-01-28T06:54:36Z",
        "specimen": {
          "reference": "urn:uuid:b2749274-374c-41d2-85ec-2a031c3797ca"
        }
      }
    },
    {
      "fullUrl": "urn:uuid:7f3d4b8c-997f-4dae-a85b-3016f74ef564",
      "resource": {
        "resourceType": "Observation",
        "id": "7f3d4b8c-997f-4dae-a85b-3016f74ef564",
        "meta": {
          "profile": [
            "http://hl7.eu/fhir/laboratory/StructureDefinition/Observation-resultslab-eu-lab"
          ]
        },
        "performer": [
          {
            "display": "The Central European Lab"
          }
        ],
        "category": [
          {
            "coding": [
              {
                "system": "http://terminology.hl7.org/CodeSystem/observation-category",
                "code": "laboratory"
              }
            ]
          }
        ],
        "code": {
          "coding": [
            {
              "code": "20565-8",
              "system": "http://loinc.org",
              "display": "Carbon dioxide, total [Moles/volume] in Blood"
            }
          ],
          "text": "Carbon dioxide, total [Moles/volume] in Blood"
        },
        "valueQuantity": {
          "system": "http://unitsofmeasure.org",
          "value": 20.8,
          "unit": "mmol/L",
          "code": "mmol/L"
        },
        "referenceRange": [
          {
            "low": {
              "value": 22,
              "code": "mmol/L",
              "system": "http://unitsofmeasure.org"
            }
          },
          {
            "high": {
              "value": 29,
              "code": "mmol/L",
              "system": "http://unitsofmeasure.org"
            }
          }
        ],
        "interpretation": [
          {
            "coding": [
              {
                "code": "L",
                "system": "http://terminology.hl7.org/CodeSystem/v3-ObservationInterpretation",
                "display": "Low"
              }
            ]
          }
        ],
        "text": {
          "status": "generated",
          "div": "<div xmlns=\"http://www.w3.org/1999/xhtml\"><table class=\"hl7__eu__lab__report\"><tr><th>Test</th><th>28-Jan-2021</th><th>Reference&#xA0;Range</th><th>Unit</th></tr><tr><td>Carbon dioxide, total [Moles/volume] in Blood</td><td>20.8</td><td>22 - 29</td><td>L</td><td>mmol/L</td></tr></table></div>"
        },
        "status": "final",
        "subject": {
          "reference": "urn:uuid:3e4c0528-7b08-4720-9574-a05c790e99bd",
          "display": "Alfred Rémy"
        },
        "effectiveDateTime": "2021-01-28T06:54:36Z",
        "specimen": {
          "reference": "urn:uuid:b2749274-374c-41d2-85ec-2a031c3797ca"
        }
      }
    },
    {
      "fullUrl": "urn:uuid:eda1d721-4720-4175-9478-99f86e403f82",
      "resource": {
        "resourceType": "Observation",
        "id": "eda1d721-4720-4175-9478-99f86e403f82",
        "meta": {
          "profile": [
            "http://hl7.eu/fhir/laboratory/StructureDefinition/Observation-resultslab-eu-lab"
          ]
        },
        "performer": [
          {
            "display": "The Central European Lab"
          }
        ],
        "category": [
          {
            "coding": [
              {
                "system": "http://terminology.hl7.org/CodeSystem/observation-category",
                "code": "laboratory"
              }
            ]
          }
        ],
        "code": {
          "coding": [
            {
              "code": "2093-3",
              "system": "http://loinc.org",
              "display": "Cholesterol [Mass/volume] in Serum or Plasma"
            }
          ],
          "text": "Cholesterol [Mass/volume] in Serum or Plasma"
        },
        "valueQuantity": {
          "system": "http://unitsofmeasure.org",
          "value": 212.8,
          "unit": "mg/dL",
          "code": "mg/dL"
        },
        "referenceRange": [
          {
            "low": {
              "value": 125,
              "code": "mg/dL",
              "system": "http://unitsofmeasure.org"
            }
          },
          {
            "high": {
              "value": 200,
              "code": "mg/dL",
              "system": "http://unitsofmeasure.org"
            }
          }
        ],
        "interpretation": [
          {
            "coding": [
              {
                "code": "H",
                "system": "http://terminology.hl7.org/CodeSystem/v3-ObservationInterpretation",
                "display": "High"
              }
            ]
          }
        ],
        "text": {
          "status": "generated",
          "div": "<div xmlns=\"http://www.w3.org/1999/xhtml\"><table class=\"hl7__eu__lab__report\"><tr><th>Test</th><th>28-Jan-2021</th><th>Reference&#xA0;Range</th><th>Unit</th></tr><tr><td>Cholesterol [Mass/volume] in Serum or Plasma</td><td>212.8</td><td>125 - 200</td><td>H</td><td>mg/dL</td></tr></table></div>"
        },
        "status": "final",
        "subject": {
          "reference": "urn:uuid:3e4c0528-7b08-4720-9574-a05c790e99bd",
          "display": "Alfred Rémy"
        },
        "effectiveDateTime": "2021-01-28T06:54:36Z",
        "specimen": {
          "reference": "urn:uuid:1a7436ea-4812-43c2-8d89-fbdbf21f0b8e"
        }
      }
    },
    {
      "fullUrl": "urn:uuid:35302d79-a12d-4ac8-b6c4-afcc9ca5c77a",
      "resource": {
        "resourceType": "Observation",
        "id": "35302d79-a12d-4ac8-b6c4-afcc9ca5c77a",
        "meta": {
          "profile": [
            "http://hl7.eu/fhir/laboratory/StructureDefinition/Observation-resultslab-eu-lab"
          ]
        },
        "performer": [
          {
            "display": "The Central European Lab"
          }
        ],
        "category": [
          {
            "coding": [
              {
                "system": "http://terminology.hl7.org/CodeSystem/observation-category",
                "code": "laboratory"
              }
            ]
          }
        ],
        "code": {
          "coding": [
            {
              "code": "2571-8",
              "system": "http://loinc.org",
              "display": "Triglyceride [Mass/volume] in Serum or Plasma"
            }
          ],
          "text": "Triglyceride [Mass/volume] in Serum or Plasma"
        },
        "valueQuantity": {
          "system": "http://unitsofmeasure.org",
          "value": 103.4,
          "unit": "mg/dL",
          "code": "mg/dL"
        },
        "referenceRange": [
          {
            "low": {
              "value": 0,
              "code": "mg/dL",
              "system": "http://unitsofmeasure.org"
            }
          },
          {
            "high": {
              "value": 150,
              "code": "mg/dL",
              "system": "http://unitsofmeasure.org"
            }
          }
        ],
        "text": {
          "status": "generated",
          "div": "<div xmlns=\"http://www.w3.org/1999/xhtml\"><table class=\"hl7__eu__lab__report\"><tr><th>Test</th><th>28-Jan-2021</th><th>Reference&#xA0;Range</th><th>Unit</th></tr><tr><td>Triglyceride [Mass/volume] in Serum or Plasma</td><td>103.4</td><td>0 - 150</td><td></td><td>mg/dL</td></tr></table></div>"
        },
        "status": "final",
        "subject": {
          "reference": "urn:uuid:3e4c0528-7b08-4720-9574-a05c790e99bd",
          "display": "Alfred Rémy"
        },
        "effectiveDateTime": "2021-01-28T06:54:36Z",
        "specimen": {
          "reference": "urn:uuid:1a7436ea-4812-43c2-8d89-fbdbf21f0b8e"
        }
      }
    },
    {
      "fullUrl": "urn:uuid:1ef1c179-407e-4d09-8735-84361807c50b",
      "resource": {
        "resourceType": "Observation",
        "id": "1ef1c179-407e-4d09-8735-84361807c50b",
        "meta": {
          "profile": [
            "http://hl7.eu/fhir/laboratory/StructureDefinition/Observation-resultslab-eu-lab"
          ]
        },
        "performer": [
          {
            "display": "The Central European Lab"
          }
        ],
        "category": [
          {
            "coding": [
              {
                "system": "http://terminology.hl7.org/CodeSystem/observation-category",
                "code": "laboratory"
              }
            ]
          }
        ],
        "code": {
          "coding": [
            {
              "code": "18262-6",
              "system": "http://loinc.org",
              "display": "Cholesterol in LDL [Mass/volume] in Serum or Plasma by Direct assay"
            }
          ],
          "text": "Cholesterol in LDL [Mass/volume] in Serum or Plasma by Direct assay"
        },
        "valueQuantity": {
          "system": "http://unitsofmeasure.org",
          "value": 142.5,
          "unit": "mg/dL",
          "code": "mg/dL"
        },
        "referenceRange": [
          {
            "low": {
              "value": 0,
              "code": "mg/dL",
              "system": "http://unitsofmeasure.org"
            }
          },
          {
            "high": {
              "value": 130,
              "code": "mg/dL",
              "system": "http://unitsofmeasure.org"
            }
          }
        ],
        "interpretation": [
          {
            "coding": [
              {
                "code": "H",
                "system": "http://terminology.hl7.org/CodeSystem/v3-ObservationInterpretation",
                "display": "High"
              }
            ]
          }
        ],
        "text": {
          "status": "generated",
          "div": "<div xmlns=\"http://www.w3.org/1999/xhtml\"><table class=\"hl7__eu__lab__report\"><tr><th>Test</th><th>28-Jan-2021</th><th>Reference&#xA0;Range</th><th>Unit</th></tr><tr><td>Cholesterol in LDL [Mass/volume] in Serum or Plasma by Direct assay</td><td>142.5</td><td>0 - 130</td><td>H</td><td>mg/dL</td></tr></table></div>"
        },
        "status": "final",
        "subject": {
          "reference": "urn:uuid:3e4c0528-7b08-4720-9574-a05c790e99bd",
          "display": "Alfred Rémy"
        },
        "effectiveDateTime": "2021-01-28T06:54:36Z",
        "specimen": {
          "reference": "urn:uuid:1a7436ea-4812-43c2-8d89-fbdbf21f0b8e"
        }
      }
    },
    {
      "fullUrl": "urn:uuid:b5a1823c-a478-44fb-ac02-9acdf6c42457",
      "resource": {
        "resourceType": "Observation",
        "id": "b5a1823c-a478-44fb-ac02-9acdf6c42457",
        "meta": {
          "profile": [
            "http://hl7.eu/fhir/laboratory/StructureDefinition/Observation-resultslab-eu-lab"
          ]
        },
        "performer": [
          {
            "display": "The Central European Lab"
          }
        ],
        "category": [
          {
            "coding": [
              {
                "system": "http://terminology.hl7.org/CodeSystem/observation-category",
                "code": "laboratory"
              }
            ]
          }
        ],
        "code": {
          "coding": [
            {
              "code": "2085-9",
              "system": "http://loinc.org",
              "display": "Cholesterol in HDL [Mass/volume] in Serum or Plasma"
            }
          ],
          "text": "Cholesterol in HDL [Mass/volume] in Serum or Plasma"
        },
        "valueQuantity": {
          "system": "http://unitsofmeasure.org",
          "value": 49.7,
          "unit": "mg/dL",
          "code": "mg/dL"
        },
        "referenceRange": [
          {
            "low": {
              "value": 40,
              "code": "mg/dL",
              "system": "http://unitsofmeasure.org"
            }
          },
          {
            "high": {
              "value": 60,
              "code": "mg/dL",
              "system": "http://unitsofmeasure.org"
            }
          }
        ],
        "text": {
          "status": "generated",
          "div": "<div xmlns=\"http://www.w3.org/1999/xhtml\"><table class=\"hl7__eu__lab__report\"><tr><th>Test</th><th>28-Jan-2021</th><th>Reference&#xA0;Range</th><th>Unit</th></tr><tr><td>Cholesterol in HDL [Mass/volume] in Serum or Plasma</td><td>49.7</td><td>40 - 60</td><td></td><td>mg/dL</td></tr></table></div>"
        },
        "status": "final",
        "subject": {
          "reference": "urn:uuid:3e4c0528-7b08-4720-9574-a05c790e99bd",
          "display": "Alfred Rémy"
        },
        "effectiveDateTime": "2021-01-28T06:54:36Z",
        "specimen": {
          "reference": "urn:uuid:1a7436ea-4812-43c2-8d89-fbdbf21f0b8e"
        }
      }
    },
    {
      "fullUrl": "urn:uuid:f86e799e-bb0c-4668-bf5b-2b84c40c43f6",
      "resource": {
        "resourceType": "Device",
        "id": "f86e799e-bb0c-4668-bf5b-2b84c40c43f6",
        "deviceName": [
          {
            "name": "SYNDERAI Synthetic Generator",
            "type": "manufacturer-name"
          }
        ],
        "version": [
          {
            "value": "5.0"
          }
        ],
        "text": {
          "status": "generated",
          "div": "<div xmlns=\"http://www.w3.org/1999/xhtml\">SYNDERAI Synthetic Generator v5.0</div>"
        },
        "status": "active\"",
        "distinctIdentifier": "synderai-generator-50",
        "manufacturer": "SYNDERAI Project"
      }
    },
    {
      "fullUrl": "urn:uuid:5548f654-7ece-4616-b720-fba4742c7134",
      "resource": {
        "resourceType": "Provenance",
        "id": "5548f654-7ece-4616-b720-fba4742c7134",
        "target": [
          {
            "reference": "Patient/3e4c0528-7b08-4720-9574-a05c790e99bd"
          },
          {
            "reference": "Bundle/3e4dc869-3948-4a90-9605-7b60531f4acd"
          },
          {
            "reference": "Composition/de4f9ba0-a62d-4b4f-8674-aa91f28e6a43"
          },
          {
            "reference": "PractitionerRole/858ecc06-36fa-46ac-94f5-15e58f6e8502"
          },
          {
            "reference": "Practitioner/1aa3463d-8f32-4811-89ec-6adc236fda9c"
          },
          {
            "reference": "PractitionerRole/06b84ced-57e9-4ade-9e50-410881e4cdd5"
          },
          {
            "reference": "Organization/9efde5b9-5a3c-40d9-a759-aa3d193bd269"
          }
        ],
        "activity": {
          "text": "Synthetic Example Data Generation"
        },
        "policy": [
          "https://synderai.net/synderai-synthetic-data-policy"
        ],
        "agent": [
          {
            "type": {
              "text": "author"
            },
            "who": {
              "reference": "Device/f86e799e-bb0c-4668-bf5b-2b84c40c43f6"
            }
          }
        ],
        "reason": [
          {
            "text": "Interoperability Testing and Training (non-clinical use)"
          }
        ],
        "text": {
          "status": "generated",
          "div": "<div xmlns=\"http://www.w3.org/1999/xhtml\">Provenance for SYNDERAI Synthetic Example Data Resource</div>"
        },
        "recorded": "2021-01-28T07:54:36Z"
      }
    },
    {
      "fullUrl": "urn:uuid:858ecc06-36fa-46ac-94f5-15e58f6e8502",
      "resource": {
        "resourceType": "PractitionerRole",
        "id": "858ecc06-36fa-46ac-94f5-15e58f6e8502",
        "meta": {
          "profile": [
            "http://hl7.eu/fhir/base/StructureDefinition/practitionerRole-eu"
          ]
        },
        "text": {
          "status": "generated",
          "div": "<div xmlns=\"http://www.w3.org/1999/xhtml\">Laboratory Role Id: 858ecc06-36fa-46ac-94f5-15e58f6e8502</div>"
        },
        "practitioner": {
          "reference": "urn:uuid:1aa3463d-8f32-4811-89ec-6adc236fda9c"
        }
      }
    },
    {
      "fullUrl": "urn:uuid:1aa3463d-8f32-4811-89ec-6adc236fda9c",
      "resource": {
        "resourceType": "Practitioner",
        "id": "1aa3463d-8f32-4811-89ec-6adc236fda9c",
        "meta": {
          "profile": [
            "http://hl7.eu/fhir/base/StructureDefinition/practitioner-eu"
          ]
        },
        "identifier": [
          {
            "assigner": {
              "display": "HL7 Europe"
            },
            "system": "urn:oid:2.16.840.1.113883.2.51.999",
            "value": "e1aa0528-9206-4316-ad95-854c44b230c7"
          }
        ],
        "name": [
          {
            "prefix": [
              "dr"
            ],
            "given": [
              "Ex"
            ],
            "family": "Ample"
          }
        ],
        "address": [
          {
            "line": [
              "Laboratoire Central Européenne",
              "Boulevard du Jardin Botanique 32"
            ],
            "postalCode": "1000",
            "city": "Brussels",
            "country": "Belgium"
          }
        ],
        "text": {
          "status": "generated",
          "div": "<div xmlns=\"http://www.w3.org/1999/xhtml\">Laboratory: Laboratoire Central Européenne, 1000 Brussels, Belgium</div>"
        }
      }
    }
  ],
  "type": "document",
  "timestamp": "2021-01-28T07:54:36Z"
}
