{
  "resourceType": "Bundle",
  "id": "750ba9ea-6ce6-481c-b9ac-88ca50b31598",
  "meta": {
    "profile": [
      "http://hl7.eu/fhir/laboratory/StructureDefinition/Bundle-eu-lab"
    ]
  },
  "identifier": {
    "assigner": {
      "display": "HL7 Europe"
    },
    "system": "urn:oid:2.16.840.1.113883.2.51.999",
    "value": "24c0a7f1-950a-4773-bd70-3ef2026945bb"
  },
  "entry": [
    {
      "fullUrl": "urn:uuid:e1d432ae-feac-418a-b433-1cf7bb5b38d0",
      "resource": {
        "resourceType": "Composition",
        "id": "e1d432ae-feac-418a-b433-1cf7bb5b38d0",
        "meta": {
          "profile": [
            "http://hl7.eu/fhir/laboratory/StructureDefinition/Composition-eu-lab"
          ]
        },
        "identifier": {
          "assigner": {
            "display": "HL7 Europe"
          },
          "system": "urn:oid:2.16.840.1.113883.2.51.999",
          "value": "478b3ed0-9a52-4bc1-8899-21e420cf1d86"
        },
        "author": [
          {
            "reference": "urn:uuid:0888e0a1-3d6e-42af-b35f-0edfc73ffd8a"
          }
        ],
        "category": [
          {
            "coding": [
              {
                "code": "26436-6",
                "system": "http://loinc.org",
                "display": "Laboratory studies (set)"
              }
            ]
          }
        ],
        "type": {
          "coding": [
            {
              "code": "11502-2",
              "system": "http://loinc.org",
              "display": "Laboratory report"
            }
          ],
          "text": "Laboratory Report"
        },
        "section": [
          {
            "code": {
              "coding": [
                {
                  "code": "26436-6",
                  "system": "http://loinc.org",
                  "display": "Laboratory studies (set)"
                }
              ],
              "text": "Laboratory studies"
            },
            "section": [
              {
                "code": {
                  "coding": [
                    {
                      "code": "$18719-5",
                      "system": "http://loinc.org",
                      "display": "Chemistry studies (set)"
                    }
                  ],
                  "text": "Chemistry"
                },
                "entry": [
                  {
                    "reference": "urn:uuid:e5d3b234-85b6-4edc-b416-99cc0b7a9c3e"
                  },
                  {
                    "reference": "urn:uuid:2d29be07-fb8b-4c4c-a8cc-dcebf1607528"
                  },
                  {
                    "reference": "urn:uuid:361a9fd3-c181-4e57-bfb3-75b01a07c094"
                  },
                  {
                    "reference": "urn:uuid:b2f626ed-421d-4cf8-8839-fd5fe76397ed"
                  },
                  {
                    "reference": "urn:uuid:4a2a6f6a-0005-47d3-b841-cc2c1b030278"
                  },
                  {
                    "reference": "urn:uuid:d4fde769-d2ed-4843-8548-88936bfbbb1e"
                  },
                  {
                    "reference": "urn:uuid:2dd1d002-6b58-4d11-9eee-89abed07a0be"
                  },
                  {
                    "reference": "urn:uuid:a40c3f18-5d7f-40dd-84a1-ef400d6700f6"
                  },
                  {
                    "reference": "urn:uuid:64831b82-d4e0-4834-9d20-0fa29852621a"
                  },
                  {
                    "reference": "urn:uuid:b844a8b3-6752-4848-843f-aa2d7d0ebb36"
                  },
                  {
                    "reference": "urn:uuid:4e640722-655e-40ec-8fa6-8a9b44f644ee"
                  },
                  {
                    "reference": "urn:uuid:23ed35ce-41a8-403c-a91c-06956fd138e4"
                  },
                  {
                    "reference": "urn:uuid:7d3b7dc3-0df6-41c6-ad1b-56ae9b02d375"
                  },
                  {
                    "reference": "urn:uuid:8e592b52-6ba3-447b-a01b-e1cc50c9a8e1"
                  },
                  {
                    "reference": "urn:uuid:d914669d-dd69-4607-9501-b759adbe030b"
                  },
                  {
                    "reference": "urn:uuid:8f0bc20c-5879-4a7e-82ba-9e6687fb8d45"
                  },
                  {
                    "reference": "urn:uuid:55415f1a-c89d-4fa2-bebd-a31576ea96e6"
                  },
                  {
                    "reference": "urn:uuid:3f43ff7a-0eb3-4fdc-a86d-fe7b921ecc8f"
                  }
                ],
                "text": {
                  "status": "generated",
                  "div": "<div xmlns=\"http://www.w3.org/1999/xhtml\"><h3>Chemistry</h3><table class=\"hl7__eu__lab__report\"><thead><tr><th>Test</th><th>28-FEB-2018</th><th>Reference&#xA0;Range</th><th>Unit</th></tr></thead><tbody><tr><td>Glucose [Mass/volume] in Serum or Plasma</td><td>74.0</td><td>70 - 140</td><td>mg/dL</td></tr><tr><td>Urea nitrogen [Mass/volume] in Serum or Plasma</td><td>10.1</td><td>7 - 20</td><td>mg/dL</td></tr><tr><td>Creatinine [Mass/volume] in Serum or Plasma</td><td><strong>1.9 H</strong></td><td>0.9 - 1.3</td><td>mg/dL</td></tr><tr><td>Calcium [Mass/volume] in Serum or Plasma</td><td>9.6</td><td>8.5 - 10.5</td><td>mg/dL</td></tr><tr><td>Sodium [Moles/volume] in Serum or Plasma</td><td>136.3</td><td>135 - 145</td><td>mmol/L</td></tr><tr><td>Potassium [Moles/volume] in Serum or Plasma</td><td>3.9</td><td>3.5 - 5</td><td>mmol/L</td></tr><tr><td>Chloride [Moles/volume] in Serum or Plasma</td><td>102.8</td><td>98 - 108</td><td>mmol/L</td></tr><tr><td>Carbon dioxide, total [Moles/volume] in Serum or Plasma</td><td>27.9</td><td>22 - 29</td><td>mmol/L</td></tr><tr><td>Ketones [Presence] in Urine by Test strip</td><td>Urine ketone test = ++</td><td></td><td></td></tr><tr><td>Hemoglobin A1c/Hemoglobin.total in Blood</td><td><strong>3.4 L</strong></td><td>4.3 - 6.4</td><td>%</td></tr><tr><td>Glucose [Mass/volume] in Blood</td><td>74.0</td><td>70 - 140</td><td>mg/dL</td></tr><tr><td>Urea nitrogen [Mass/volume] in Blood</td><td>10.1</td><td>7 - 20</td><td>mg/dL</td></tr><tr><td>Creatinine [Mass/volume] in Blood</td><td><strong>8.2 H</strong></td><td>0.6 - 1.3</td><td>mg/dL</td></tr><tr><td>Calcium [Mass/volume] in Blood</td><td>9.6</td><td>8.5 - 10.5</td><td>mg/dL</td></tr><tr><td>Sodium [Moles/volume] in Blood</td><td>136.3</td><td>135 - 145</td><td>mmol/L</td></tr><tr><td>Potassium [Moles/volume] in Blood</td><td>3.9</td><td>3.5 - 5.3</td><td>mmol/L</td></tr><tr><td>Chloride [Moles/volume] in Blood</td><td>102.8</td><td>98 - 110</td><td>mmol/L</td></tr><tr><td>Carbon dioxide, total [Moles/volume] in Blood</td><td>27.9</td><td>22 - 29</td><td>mmol/L</td></tr></tbody></table></div>"
                },
                "title": "Chemistry"
              },
              {
                "code": {
                  "coding": [
                    {
                      "code": "$18729-4",
                      "system": "http://loinc.org",
                      "display": "Urinalysis studies (set)"
                    }
                  ],
                  "text": "Urinalysis"
                },
                "entry": [
                  {
                    "reference": "urn:uuid:1aaed9a9-1675-490e-91c8-752c6405b128"
                  },
                  {
                    "reference": "urn:uuid:3ea4fd14-3495-4c16-a27b-49ce043f25a6"
                  },
                  {
                    "reference": "urn:uuid:8d6cba67-f098-4d51-84ae-e1c0d465f14a"
                  },
                  {
                    "reference": "urn:uuid:14b6fca4-dfef-422c-90f0-706ae50955b4"
                  },
                  {
                    "reference": "urn:uuid:1abcd8e3-f762-4582-b1b8-72ee93d68fa0"
                  },
                  {
                    "reference": "urn:uuid:f5b05358-de1a-4988-8f62-f5b656a2332b"
                  },
                  {
                    "reference": "urn:uuid:57e6ae12-7336-4e47-b666-23b88c1da8e6"
                  },
                  {
                    "reference": "urn:uuid:419f9e71-cdcb-42ea-81c2-1dd041348d61"
                  },
                  {
                    "reference": "urn:uuid:b861ecfb-130d-4ba4-a45e-31bc3bb56306"
                  },
                  {
                    "reference": "urn:uuid:74aea45b-b37d-43de-b505-4effd9a57cd3"
                  },
                  {
                    "reference": "urn:uuid:e9fe55bb-56c2-4b2d-9661-c75a5311a8ba"
                  },
                  {
                    "reference": "urn:uuid:f415a9ed-d29a-4a06-8d8f-82c4662bd4f0"
                  }
                ],
                "text": {
                  "status": "generated",
                  "div": "<div xmlns=\"http://www.w3.org/1999/xhtml\"><h3>Urinalysis</h3><table class=\"hl7__eu__lab__report\"><thead><tr><th>Test</th><th>28-FEB-2018</th><th>Reference&#xA0;Range</th><th>Unit</th></tr></thead><tbody><tr><td>Glucose [Mass/volume] in Urine by Test strip</td><td><strong>1.1 H</strong></td><td>0 - 0.8</td><td>mg/dL</td></tr><tr><td>Glucose [Presence] in Urine by Test strip</td><td>++</td><td></td><td></td></tr><tr><td>Bilirubin.total [Mass/volume] in Urine by Test strip</td><td>0.9</td><td>0.2 - 1</td><td>mg/dL</td></tr><tr><td>Bilirubin.total [Presence] in Urine by Test strip</td><td>Finding of bilirubin in urine</td><td></td><td></td></tr><tr><td>Ketones [Mass/volume] in Urine by Test strip</td><td><strong>17.6 H</strong></td><td>0 - 5</td><td>mg/dL</td></tr><tr><td>Specific gravity of Urine by Test strip</td><td><strong>1.0 L</strong></td><td>1.005 - 1.03</td><td>{nominal}</td></tr><tr><td>pH of Urine by Test strip</td><td>5.6</td><td>4.6 - 7</td><td>pH</td></tr><tr><td>Protein [Mass/volume] in Urine by Test strip</td><td><strong>238.4 H</strong></td><td>0 - 150</td><td>mg/dL</td></tr><tr><td>Protein [Presence] in Urine by Test strip</td><td>Urine protein test = ++</td><td></td><td></td></tr><tr><td>Nitrite [Presence] in Urine by Test strip</td><td>Urine nitrite negative</td><td></td><td></td></tr><tr><td>Hemoglobin [Presence] in Urine by Test strip</td><td>Urine blood test = negative</td><td></td><td></td></tr><tr><td>Leukocyte esterase [Presence] in Urine by Test strip</td><td>Urine leukocyte test negative</td><td></td><td></td></tr></tbody></table></div>"
                },
                "title": "Urinalysis"
              },
              {
                "code": {
                  "coding": [
                    {
                      "code": "$LP7846-1",
                      "system": "http://loinc.org",
                      "display": "Specimen information"
                    }
                  ],
                  "text": "Specimen information"
                },
                "entry": [
                  {
                    "reference": "urn:uuid:bc5a8a2b-eb8c-4d0f-9001-45596548e6e6"
                  },
                  {
                    "reference": "urn:uuid:1749fa7c-d7ed-46f4-8d15-212b335d11dd"
                  },
                  {
                    "reference": "urn:uuid:3aa51c02-2265-43fc-81de-544df804a280"
                  },
                  {
                    "reference": "urn:uuid:85f65482-5942-408c-9545-0ca2f133a7ec"
                  }
                ],
                "text": {
                  "status": "generated",
                  "div": "<div xmlns=\"http://www.w3.org/1999/xhtml\"><h3>Specimen information</h3><table class=\"hl7__eu__lab__report\"><thead><tr><th>Test</th><th>28-FEB-2018</th><th>Specimen</th><th></th></tr></thead><tbody><tr><td>Appearance of Urine</td><td>Cloudy urine</td><td>Urine</td><td></td></tr><tr><td>Odor of Urine</td><td>Urine smell ammoniacal</td><td>Urine</td><td></td></tr><tr><td>Clarity of Urine</td><td>Translucent</td><td>Urine</td><td></td></tr><tr><td>Color of Urine</td><td>Brown color</td><td>Urine</td><td></td></tr></tbody></table></div>"
                },
                "title": "Specimen information"
              }
            ],
            "title": "Laboratory Report"
          },
          {
            "text": {
              "status": "generated",
              "div": "<div xmlns=\"http://www.w3.org/1999/xhtml\"><h3>Annotation</h3><table class=\"hl7__eu__lab__report\"><tr><th>Conclusion and Recommendations based on this report and previous findings known to us</th></tr><tr><td>The patient shows markedly elevated creatinine in both serum and blood, indicating significant renal dysfunction. Urinalysis reveals proteinuria, glucosuria, ketonuria, low specific gravity, and abnormal urine appearance, suggesting possible nephrotic syndrome or acute kidney injury with impaired concentrating ability. HbA1c is low, excluding chronic hyperglycemia. Immediate nephrology evaluation is recommended for further assessment and management.</td></tr></table></div>"
            },
            "code": {
              "coding": [
                {
                  "system": "http://loinc.org",
                  "code": "48767-8",
                  "display": "Annotation comment"
                }
              ]
            },
            "title": "Annotation comment"
          }
        ],
        "status": "final",
        "subject": {
          "reference": "urn:uuid:284610ed-4b84-4980-aff9-91ad9678ed59",
          "display": "Θεμιστοκλής Λιναρδάκη"
        },
        "date": "2018-02-28T07:16:00Z",
        "title": "Laboratory Report",
        "confidentiality": "N"
      }
    },
    {
      "fullUrl": "urn:uuid:c6acf8a8-3d12-4394-abba-40f5092d0d32",
      "resource": {
        "resourceType": "DiagnosticReport",
        "id": "c6acf8a8-3d12-4394-abba-40f5092d0d32",
        "meta": {
          "profile": [
            "http://hl7.eu/fhir/laboratory/StructureDefinition/DiagnosticReport-eu-lab"
          ]
        },
        "identifier": [
          {
            "assigner": {
              "display": "HL7 Europe"
            },
            "system": "urn:oid:2.16.840.1.113883.2.51.999",
            "value": "b7f9bc45-a5d2-4625-92c1-e2516080412b"
          }
        ],
        "extension": [
          {
            "url": "http://hl7.org/fhir/5.0/StructureDefinition/extension-DiagnosticReport.composition",
            "valueReference": {
              "reference": "urn:uuid:478b3ed0-9a52-4bc1-8899-21e420cf1d86"
            }
          }
        ],
        "category": [
          {
            "coding": [
              {
                "code": "26436-6",
                "system": "http://loinc.org",
                "display": "Laboratory studies (set)"
              }
            ]
          }
        ],
        "specimen": [
          {
            "reference": "urn:uuid:2966f370-5fd7-4ab2-8af4-9fdd657993e7"
          },
          {
            "reference": "urn:uuid:80baf125-a903-4909-a51b-21c90f99ae03"
          },
          {
            "reference": "urn:uuid:6d4631b7-dc18-4c6f-a24a-0e8d0d034c74"
          }
        ],
        "result": [
          {
            "reference": "urn:uuid:e5d3b234-85b6-4edc-b416-99cc0b7a9c3e"
          },
          {
            "reference": "urn:uuid:2d29be07-fb8b-4c4c-a8cc-dcebf1607528"
          },
          {
            "reference": "urn:uuid:361a9fd3-c181-4e57-bfb3-75b01a07c094"
          },
          {
            "reference": "urn:uuid:b2f626ed-421d-4cf8-8839-fd5fe76397ed"
          },
          {
            "reference": "urn:uuid:4a2a6f6a-0005-47d3-b841-cc2c1b030278"
          },
          {
            "reference": "urn:uuid:d4fde769-d2ed-4843-8548-88936bfbbb1e"
          },
          {
            "reference": "urn:uuid:2dd1d002-6b58-4d11-9eee-89abed07a0be"
          },
          {
            "reference": "urn:uuid:a40c3f18-5d7f-40dd-84a1-ef400d6700f6"
          },
          {
            "reference": "urn:uuid:bc5a8a2b-eb8c-4d0f-9001-45596548e6e6"
          },
          {
            "reference": "urn:uuid:1749fa7c-d7ed-46f4-8d15-212b335d11dd"
          },
          {
            "reference": "urn:uuid:3aa51c02-2265-43fc-81de-544df804a280"
          },
          {
            "reference": "urn:uuid:85f65482-5942-408c-9545-0ca2f133a7ec"
          },
          {
            "reference": "urn:uuid:1aaed9a9-1675-490e-91c8-752c6405b128"
          },
          {
            "reference": "urn:uuid:3ea4fd14-3495-4c16-a27b-49ce043f25a6"
          },
          {
            "reference": "urn:uuid:8d6cba67-f098-4d51-84ae-e1c0d465f14a"
          },
          {
            "reference": "urn:uuid:14b6fca4-dfef-422c-90f0-706ae50955b4"
          },
          {
            "reference": "urn:uuid:1abcd8e3-f762-4582-b1b8-72ee93d68fa0"
          },
          {
            "reference": "urn:uuid:64831b82-d4e0-4834-9d20-0fa29852621a"
          },
          {
            "reference": "urn:uuid:f5b05358-de1a-4988-8f62-f5b656a2332b"
          },
          {
            "reference": "urn:uuid:57e6ae12-7336-4e47-b666-23b88c1da8e6"
          },
          {
            "reference": "urn:uuid:419f9e71-cdcb-42ea-81c2-1dd041348d61"
          },
          {
            "reference": "urn:uuid:b861ecfb-130d-4ba4-a45e-31bc3bb56306"
          },
          {
            "reference": "urn:uuid:74aea45b-b37d-43de-b505-4effd9a57cd3"
          },
          {
            "reference": "urn:uuid:e9fe55bb-56c2-4b2d-9661-c75a5311a8ba"
          },
          {
            "reference": "urn:uuid:f415a9ed-d29a-4a06-8d8f-82c4662bd4f0"
          },
          {
            "reference": "urn:uuid:b844a8b3-6752-4848-843f-aa2d7d0ebb36"
          },
          {
            "reference": "urn:uuid:4e640722-655e-40ec-8fa6-8a9b44f644ee"
          },
          {
            "reference": "urn:uuid:23ed35ce-41a8-403c-a91c-06956fd138e4"
          },
          {
            "reference": "urn:uuid:7d3b7dc3-0df6-41c6-ad1b-56ae9b02d375"
          },
          {
            "reference": "urn:uuid:8e592b52-6ba3-447b-a01b-e1cc50c9a8e1"
          },
          {
            "reference": "urn:uuid:d914669d-dd69-4607-9501-b759adbe030b"
          },
          {
            "reference": "urn:uuid:8f0bc20c-5879-4a7e-82ba-9e6687fb8d45"
          },
          {
            "reference": "urn:uuid:55415f1a-c89d-4fa2-bebd-a31576ea96e6"
          },
          {
            "reference": "urn:uuid:3f43ff7a-0eb3-4fdc-a86d-fe7b921ecc8f"
          }
        ],
        "status": "registered",
        "code": {
          "coding": [
            {
              "code": "11502-2",
              "system": "http://loinc.org",
              "display": "Laboratory report"
            }
          ]
        },
        "subject": {
          "reference": "urn:uuid:284610ed-4b84-4980-aff9-91ad9678ed59",
          "display": "Θεμιστοκλής Λιναρδάκη"
        }
      }
    },
    {
      "fullUrl": "urn:uuid:284610ed-4b84-4980-aff9-91ad9678ed59",
      "resource": {
        "resourceType": "Patient",
        "id": "284610ed-4b84-4980-aff9-91ad9678ed59",
        "meta": {
          "security": [
            {
              "system": "http://terminology.hl7.org/CodeSystem/v3-ActReason",
              "code": "HTEST"
            },
            {
              "system": "http://terminology.hl7.org/CodeSystem/v3-ActReason",
              "code": "TRAIN"
            }
          ],
          "tag": [
            {
              "system": "https://synderai.net/fhir/CodeSystem/tags",
              "code": "synthetic",
              "display": "SYNDERAI Synthetic data"
            }
          ],
          "profile": [
            "http://hl7.eu/fhir/base/StructureDefinition/patient-eu-core"
          ]
        },
        "identifier": [
          {
            "type": {
              "coding": [
                {
                  "code": "PT",
                  "system": "http://terminology.hl7.org/CodeSystem/v2-0203"
                }
              ]
            },
            "system": "http://ec.europa.eu/identifier/eci",
            "value": "5962-476889-7"
          },
          {
            "type": {
              "coding": [
                {
                  "code": "MR",
                  "system": "http://terminology.hl7.org/CodeSystem/v2-0203"
                }
              ]
            },
            "system": "http://local.setting.eu/identifier",
            "value": "925e2603-2ef9-6bdf-1330-2ebf526636c4"
          }
        ],
        "name": [
          {
            "family": "Λιναρδάκη"
          },
          {
            "given": [
              "Θεμιστοκλής"
            ]
          },
          {
            "text": "Θεμιστοκλής Λιναρδάκη"
          }
        ],
        "address": [
          {
            "line": [
              "Αμαρύνθου 54-58"
            ],
            "use": "home",
            "type": "physical",
            "postalCode": "262 21",
            "city": "Πάτρα",
            "country": "Greece"
          }
        ],
        "telecom": [
          {
            "system": "phone",
            "value": "+302226364480"
          }
        ],
        "extension": [
          {
            "url": "http://hl7.org/fhir/StructureDefinition/patient-nationality",
            "valueCodeableConcept": {
              "coding": [
                {
                  "code": "GR",
                  "system": "http://hl7.org/fhir/ValueSet/country"
                }
              ]
            }
          }
        ],
        "text": {
          "status": "generated",
          "div": "<div xmlns=\"http://www.w3.org/1999/xhtml\"><table class=\"hl7__ips\"><tr><td>Θεμιστοκλής Λιναρδάκη</td><td>male</td><td>21-Jan-1974</td></tr></table></div>"
        },
        "gender": "male",
        "birthDate": "1974-01-21"
      }
    },
    {
      "fullUrl": "urn:uuid:17e61538-aea0-4ec3-8055-1cd17fd0a4cb",
      "resource": {
        "resourceType": "ServiceRequest",
        "id": "17e61538-aea0-4ec3-8055-1cd17fd0a4cb",
        "meta": {
          "profile": [
            "http://hl7.eu/fhir/laboratory/StructureDefinition/ServiceRequest-eu-lab"
          ]
        },
        "identifier": [
          {
            "system": "http://example.org",
            "value": "7fc2db94-3fa8-425b-96ae-edcb6c96d44f"
          }
        ],
        "specimen": [
          {
            "reference": "urn:uuid:2966f370-5fd7-4ab2-8af4-9fdd657993e7"
          },
          {
            "reference": "urn:uuid:80baf125-a903-4909-a51b-21c90f99ae03"
          },
          {
            "reference": "urn:uuid:6d4631b7-dc18-4c6f-a24a-0e8d0d034c74"
          }
        ],
        "reasonCode": [
          {
            "coding": [
              {
                "code": "237602007",
                "system": "http://snomed.info/sct",
                "display": "Metabolic syndrome X"
              }
            ]
          },
          {
            "coding": [
              {
                "code": "433144002",
                "system": "http://snomed.info/sct",
                "display": "Chronic kidney disease stage 3"
              }
            ]
          },
          {
            "coding": [
              {
                "code": "157141000119108",
                "system": "http://snomed.info/sct",
                "display": "Proteinuria due to type 2 diabetes mellitus"
              }
            ]
          },
          {
            "coding": [
              {
                "code": "431856006",
                "system": "http://snomed.info/sct",
                "display": "Chronic kidney disease stage 2"
              }
            ]
          },
          {
            "coding": [
              {
                "code": "90781000119102",
                "system": "http://snomed.info/sct",
                "display": "Microalbuminuria due to type 2 diabetes mellitus"
              }
            ]
          },
          {
            "coding": [
              {
                "code": "127013003",
                "system": "http://snomed.info/sct",
                "display": "Disorder of kidney due to diabetes mellitus"
              }
            ]
          },
          {
            "coding": [
              {
                "code": "431855005",
                "system": "http://snomed.info/sct",
                "display": "Chronic kidney disease stage 1"
              }
            ]
          },
          {
            "coding": [
              {
                "code": "59621000",
                "system": "http://snomed.info/sct",
                "display": "Essential hypertension"
              }
            ]
          },
          {
            "coding": [
              {
                "code": "15777000",
                "system": "http://snomed.info/sct",
                "display": "Prediabetes"
              }
            ]
          },
          {
            "coding": [
              {
                "code": "271737000",
                "system": "http://snomed.info/sct",
                "display": "Anemia"
              }
            ]
          }
        ],
        "status": "active",
        "intent": "order",
        "code": {
          "coding": [
            {
              "code": "108252007",
              "system": "http://snomed.info/sct",
              "display": "Laboratory procedure"
            }
          ]
        },
        "subject": {
          "reference": "urn:uuid:284610ed-4b84-4980-aff9-91ad9678ed59",
          "display": "Θεμιστοκλής Λιναρδάκη"
        },
        "requester": {
          "reference": "urn:uuid:b309fffc-9ee1-4b67-bdd0-1c29022083b3"
        }
      }
    },
    {
      "fullUrl": "urn:uuid:b309fffc-9ee1-4b67-bdd0-1c29022083b3",
      "resource": {
        "resourceType": "PractitionerRole",
        "id": "b309fffc-9ee1-4b67-bdd0-1c29022083b3",
        "meta": {
          "profile": [
            "http://hl7.eu/fhir/base/StructureDefinition/practitionerRole-eu"
          ]
        },
        "text": {
          "status": "generated",
          "div": "<div xmlns=\"http://www.w3.org/1999/xhtml\">Provider Role Id: b309fffc-9ee1-4b67-bdd0-1c29022083b3</div>"
        },
        "organization": {
          "reference": "urn:uuid:007a6073-3965-449e-8324-3a686c9a064f"
        }
      }
    },
    {
      "fullUrl": "urn:uuid:007a6073-3965-449e-8324-3a686c9a064f",
      "resource": {
        "resourceType": "Organization",
        "id": "007a6073-3965-449e-8324-3a686c9a064f",
        "meta": {
          "profile": [
            "http://hl7.eu/fhir/base/StructureDefinition/organization-eu"
          ]
        },
        "identifier": [
          {
            "assigner": {
              "display": "HL7 Europe"
            },
            "system": "urn:oid:2.16.840.1.113883.2.51.999",
            "value": "ac35f0b5-a439-440c-b9d5-e0bdb451d925"
          }
        ],
        "address": [
          {
            "line": [
              "211 Odós Filellinon"
            ],
            "city": "Patras",
            "postalCode": "262 21",
            "country": "Greece"
          }
        ],
        "text": {
          "status": "generated",
          "div": "<div xmlns=\"http://www.w3.org/1999/xhtml\">Provider Organization: Dr. Dimitris Economou</div>"
        },
        "name": "Dr. Dimitris Economou"
      }
    },
    {
      "fullUrl": "urn:uuid:2966f370-5fd7-4ab2-8af4-9fdd657993e7",
      "resource": {
        "resourceType": "Specimen",
        "id": "2966f370-5fd7-4ab2-8af4-9fdd657993e7",
        "meta": {
          "profile": [
            "http://hl7.eu/fhir/laboratory/StructureDefinition/Specimen-eu-lab"
          ]
        },
        "collection": {
          "collectedDateTime": "2018-02-28"
        },
        "text": {
          "status": "generated",
          "div": "<div xmlns=\"http://www.w3.org/1999/xhtml\"><table class=\"hl7__eu__lab__report\"><tr><th>Specimen</th><th>Collection Date</th></tr><tr><td>Acellular blood (serum or plasma) specimen</td><td><span class=\"nb\">28-Feb-2018</span></td></tr></table></div>"
        },
        "type": {
          "coding": [
            {
              "code": "122592007",
              "system": "http://snomed.info/sct",
              "display": "Acellular blood (serum or plasma) specimen"
            }
          ]
        }
      }
    },
    {
      "fullUrl": "urn:uuid:80baf125-a903-4909-a51b-21c90f99ae03",
      "resource": {
        "resourceType": "Specimen",
        "id": "80baf125-a903-4909-a51b-21c90f99ae03",
        "meta": {
          "profile": [
            "http://hl7.eu/fhir/laboratory/StructureDefinition/Specimen-eu-lab"
          ]
        },
        "collection": {
          "collectedDateTime": "2018-02-28"
        },
        "text": {
          "status": "generated",
          "div": "<div xmlns=\"http://www.w3.org/1999/xhtml\"><table class=\"hl7__eu__lab__report\"><tr><th>Specimen</th><th>Collection Date</th></tr><tr><td>Urine specimen</td><td><span class=\"nb\">28-Feb-2018</span></td></tr></table></div>"
        },
        "type": {
          "coding": [
            {
              "code": "122575003",
              "system": "http://snomed.info/sct",
              "display": "Urine specimen"
            }
          ]
        }
      }
    },
    {
      "fullUrl": "urn:uuid:6d4631b7-dc18-4c6f-a24a-0e8d0d034c74",
      "resource": {
        "resourceType": "Specimen",
        "id": "6d4631b7-dc18-4c6f-a24a-0e8d0d034c74",
        "meta": {
          "profile": [
            "http://hl7.eu/fhir/laboratory/StructureDefinition/Specimen-eu-lab"
          ]
        },
        "collection": {
          "collectedDateTime": "2018-02-28"
        },
        "text": {
          "status": "generated",
          "div": "<div xmlns=\"http://www.w3.org/1999/xhtml\"><table class=\"hl7__eu__lab__report\"><tr><th>Specimen</th><th>Collection Date</th></tr><tr><td>Whole blood specimen (specimen)</td><td><span class=\"nb\">28-Feb-2018</span></td></tr></table></div>"
        },
        "type": {
          "coding": [
            {
              "code": "258580003",
              "system": "http://snomed.info/sct",
              "display": "Whole blood specimen (specimen)"
            }
          ]
        }
      }
    },
    {
      "fullUrl": "urn:uuid:e5d3b234-85b6-4edc-b416-99cc0b7a9c3e",
      "resource": {
        "resourceType": "Observation",
        "id": "e5d3b234-85b6-4edc-b416-99cc0b7a9c3e",
        "meta": {
          "profile": [
            "http://hl7.eu/fhir/laboratory/StructureDefinition/Observation-resultslab-eu-lab"
          ]
        },
        "performer": [
          {
            "display": "The Central European Lab"
          }
        ],
        "category": [
          {
            "coding": [
              {
                "system": "http://terminology.hl7.org/CodeSystem/observation-category",
                "code": "laboratory"
              }
            ]
          }
        ],
        "code": {
          "coding": [
            {
              "code": "2345-7",
              "system": "http://loinc.org",
              "display": "Glucose [Mass/volume] in Serum or Plasma"
            }
          ],
          "text": "Glucose [Mass/volume] in Serum or Plasma"
        },
        "valueQuantity": {
          "system": "http://unitsofmeasure.org",
          "value": 74,
          "unit": "mg/dL",
          "code": "mg/dL"
        },
        "referenceRange": [
          {
            "low": {
              "value": 70,
              "code": "mg/dL",
              "system": "http://unitsofmeasure.org"
            }
          },
          {
            "high": {
              "value": 140,
              "code": "mg/dL",
              "system": "http://unitsofmeasure.org"
            }
          }
        ],
        "text": {
          "status": "generated",
          "div": "<div xmlns=\"http://www.w3.org/1999/xhtml\"><table class=\"hl7__eu__lab__report\"><tr><th>Test</th><th>28-Feb-2018</th><th>Reference&#xA0;Range</th><th>Unit</th></tr><tr><td>Glucose [Mass/volume] in Serum or Plasma</td><td>74.0</td><td>70 - 140</td><td></td><td>mg/dL</td></tr></table></div>"
        },
        "status": "final",
        "subject": {
          "reference": "urn:uuid:284610ed-4b84-4980-aff9-91ad9678ed59",
          "display": "Θεμιστοκλής Λιναρδάκη"
        },
        "effectiveDateTime": "2018-02-28T06:16:00Z",
        "specimen": {
          "reference": "urn:uuid:2966f370-5fd7-4ab2-8af4-9fdd657993e7"
        }
      }
    },
    {
      "fullUrl": "urn:uuid:2d29be07-fb8b-4c4c-a8cc-dcebf1607528",
      "resource": {
        "resourceType": "Observation",
        "id": "2d29be07-fb8b-4c4c-a8cc-dcebf1607528",
        "meta": {
          "profile": [
            "http://hl7.eu/fhir/laboratory/StructureDefinition/Observation-resultslab-eu-lab"
          ]
        },
        "performer": [
          {
            "display": "The Central European Lab"
          }
        ],
        "category": [
          {
            "coding": [
              {
                "system": "http://terminology.hl7.org/CodeSystem/observation-category",
                "code": "laboratory"
              }
            ]
          }
        ],
        "code": {
          "coding": [
            {
              "code": "3094-0",
              "system": "http://loinc.org",
              "display": "Urea nitrogen [Mass/volume] in Serum or Plasma"
            }
          ],
          "text": "Urea nitrogen [Mass/volume] in Serum or Plasma"
        },
        "valueQuantity": {
          "system": "http://unitsofmeasure.org",
          "value": 10.1,
          "unit": "mg/dL",
          "code": "mg/dL"
        },
        "referenceRange": [
          {
            "low": {
              "value": 7,
              "code": "mg/dL",
              "system": "http://unitsofmeasure.org"
            }
          },
          {
            "high": {
              "value": 20,
              "code": "mg/dL",
              "system": "http://unitsofmeasure.org"
            }
          }
        ],
        "text": {
          "status": "generated",
          "div": "<div xmlns=\"http://www.w3.org/1999/xhtml\"><table class=\"hl7__eu__lab__report\"><tr><th>Test</th><th>28-Feb-2018</th><th>Reference&#xA0;Range</th><th>Unit</th></tr><tr><td>Urea nitrogen [Mass/volume] in Serum or Plasma</td><td>10.1</td><td>7 - 20</td><td></td><td>mg/dL</td></tr></table></div>"
        },
        "status": "final",
        "subject": {
          "reference": "urn:uuid:284610ed-4b84-4980-aff9-91ad9678ed59",
          "display": "Θεμιστοκλής Λιναρδάκη"
        },
        "effectiveDateTime": "2018-02-28T06:16:00Z",
        "specimen": {
          "reference": "urn:uuid:2966f370-5fd7-4ab2-8af4-9fdd657993e7"
        }
      }
    },
    {
      "fullUrl": "urn:uuid:361a9fd3-c181-4e57-bfb3-75b01a07c094",
      "resource": {
        "resourceType": "Observation",
        "id": "361a9fd3-c181-4e57-bfb3-75b01a07c094",
        "meta": {
          "profile": [
            "http://hl7.eu/fhir/laboratory/StructureDefinition/Observation-resultslab-eu-lab"
          ]
        },
        "performer": [
          {
            "display": "The Central European Lab"
          }
        ],
        "category": [
          {
            "coding": [
              {
                "system": "http://terminology.hl7.org/CodeSystem/observation-category",
                "code": "laboratory"
              }
            ]
          }
        ],
        "code": {
          "coding": [
            {
              "code": "2160-0",
              "system": "http://loinc.org",
              "display": "Creatinine [Mass/volume] in Serum or Plasma"
            }
          ],
          "text": "Creatinine [Mass/volume] in Serum or Plasma"
        },
        "valueQuantity": {
          "system": "http://unitsofmeasure.org",
          "value": 1.9,
          "unit": "mg/dL",
          "code": "mg/dL"
        },
        "referenceRange": [
          {
            "low": {
              "value": 0.9,
              "code": "mg/dL",
              "system": "http://unitsofmeasure.org"
            }
          },
          {
            "high": {
              "value": 1.3,
              "code": "mg/dL",
              "system": "http://unitsofmeasure.org"
            }
          }
        ],
        "interpretation": [
          {
            "coding": [
              {
                "code": "H",
                "system": "http://terminology.hl7.org/CodeSystem/v3-ObservationInterpretation",
                "display": "High"
              }
            ]
          }
        ],
        "text": {
          "status": "generated",
          "div": "<div xmlns=\"http://www.w3.org/1999/xhtml\"><table class=\"hl7__eu__lab__report\"><tr><th>Test</th><th>28-Feb-2018</th><th>Reference&#xA0;Range</th><th>Unit</th></tr><tr><td>Creatinine [Mass/volume] in Serum or Plasma</td><td>1.9</td><td>0.9 - 1.3</td><td>H</td><td>mg/dL</td></tr></table></div>"
        },
        "status": "final",
        "subject": {
          "reference": "urn:uuid:284610ed-4b84-4980-aff9-91ad9678ed59",
          "display": "Θεμιστοκλής Λιναρδάκη"
        },
        "effectiveDateTime": "2018-02-28T06:16:00Z",
        "specimen": {
          "reference": "urn:uuid:2966f370-5fd7-4ab2-8af4-9fdd657993e7"
        }
      }
    },
    {
      "fullUrl": "urn:uuid:b2f626ed-421d-4cf8-8839-fd5fe76397ed",
      "resource": {
        "resourceType": "Observation",
        "id": "b2f626ed-421d-4cf8-8839-fd5fe76397ed",
        "meta": {
          "profile": [
            "http://hl7.eu/fhir/laboratory/StructureDefinition/Observation-resultslab-eu-lab"
          ]
        },
        "performer": [
          {
            "display": "The Central European Lab"
          }
        ],
        "category": [
          {
            "coding": [
              {
                "system": "http://terminology.hl7.org/CodeSystem/observation-category",
                "code": "laboratory"
              }
            ]
          }
        ],
        "code": {
          "coding": [
            {
              "code": "17861-6",
              "system": "http://loinc.org",
              "display": "Calcium [Mass/volume] in Serum or Plasma"
            }
          ],
          "text": "Calcium [Mass/volume] in Serum or Plasma"
        },
        "valueQuantity": {
          "system": "http://unitsofmeasure.org",
          "value": 9.6,
          "unit": "mg/dL",
          "code": "mg/dL"
        },
        "referenceRange": [
          {
            "low": {
              "value": 8.5,
              "code": "mg/dL",
              "system": "http://unitsofmeasure.org"
            }
          },
          {
            "high": {
              "value": 10.5,
              "code": "mg/dL",
              "system": "http://unitsofmeasure.org"
            }
          }
        ],
        "text": {
          "status": "generated",
          "div": "<div xmlns=\"http://www.w3.org/1999/xhtml\"><table class=\"hl7__eu__lab__report\"><tr><th>Test</th><th>28-Feb-2018</th><th>Reference&#xA0;Range</th><th>Unit</th></tr><tr><td>Calcium [Mass/volume] in Serum or Plasma</td><td>9.6</td><td>8.5 - 10.5</td><td></td><td>mg/dL</td></tr></table></div>"
        },
        "status": "final",
        "subject": {
          "reference": "urn:uuid:284610ed-4b84-4980-aff9-91ad9678ed59",
          "display": "Θεμιστοκλής Λιναρδάκη"
        },
        "effectiveDateTime": "2018-02-28T06:16:00Z",
        "specimen": {
          "reference": "urn:uuid:2966f370-5fd7-4ab2-8af4-9fdd657993e7"
        }
      }
    },
    {
      "fullUrl": "urn:uuid:4a2a6f6a-0005-47d3-b841-cc2c1b030278",
      "resource": {
        "resourceType": "Observation",
        "id": "4a2a6f6a-0005-47d3-b841-cc2c1b030278",
        "meta": {
          "profile": [
            "http://hl7.eu/fhir/laboratory/StructureDefinition/Observation-resultslab-eu-lab"
          ]
        },
        "performer": [
          {
            "display": "The Central European Lab"
          }
        ],
        "category": [
          {
            "coding": [
              {
                "system": "http://terminology.hl7.org/CodeSystem/observation-category",
                "code": "laboratory"
              }
            ]
          }
        ],
        "code": {
          "coding": [
            {
              "code": "2951-2",
              "system": "http://loinc.org",
              "display": "Sodium [Moles/volume] in Serum or Plasma"
            }
          ],
          "text": "Sodium [Moles/volume] in Serum or Plasma"
        },
        "valueQuantity": {
          "system": "http://unitsofmeasure.org",
          "value": 136.3,
          "unit": "mmol/L",
          "code": "mmol/L"
        },
        "referenceRange": [
          {
            "low": {
              "value": 135,
              "code": "mmol/L",
              "system": "http://unitsofmeasure.org"
            }
          },
          {
            "high": {
              "value": 145,
              "code": "mmol/L",
              "system": "http://unitsofmeasure.org"
            }
          }
        ],
        "text": {
          "status": "generated",
          "div": "<div xmlns=\"http://www.w3.org/1999/xhtml\"><table class=\"hl7__eu__lab__report\"><tr><th>Test</th><th>28-Feb-2018</th><th>Reference&#xA0;Range</th><th>Unit</th></tr><tr><td>Sodium [Moles/volume] in Serum or Plasma</td><td>136.3</td><td>135 - 145</td><td></td><td>mmol/L</td></tr></table></div>"
        },
        "status": "final",
        "subject": {
          "reference": "urn:uuid:284610ed-4b84-4980-aff9-91ad9678ed59",
          "display": "Θεμιστοκλής Λιναρδάκη"
        },
        "effectiveDateTime": "2018-02-28T06:16:00Z",
        "specimen": {
          "reference": "urn:uuid:2966f370-5fd7-4ab2-8af4-9fdd657993e7"
        }
      }
    },
    {
      "fullUrl": "urn:uuid:d4fde769-d2ed-4843-8548-88936bfbbb1e",
      "resource": {
        "resourceType": "Observation",
        "id": "d4fde769-d2ed-4843-8548-88936bfbbb1e",
        "meta": {
          "profile": [
            "http://hl7.eu/fhir/laboratory/StructureDefinition/Observation-resultslab-eu-lab"
          ]
        },
        "performer": [
          {
            "display": "The Central European Lab"
          }
        ],
        "category": [
          {
            "coding": [
              {
                "system": "http://terminology.hl7.org/CodeSystem/observation-category",
                "code": "laboratory"
              }
            ]
          }
        ],
        "code": {
          "coding": [
            {
              "code": "2823-3",
              "system": "http://loinc.org",
              "display": "Potassium [Moles/volume] in Serum or Plasma"
            }
          ],
          "text": "Potassium [Moles/volume] in Serum or Plasma"
        },
        "valueQuantity": {
          "system": "http://unitsofmeasure.org",
          "value": 3.9,
          "unit": "mmol/L",
          "code": "mmol/L"
        },
        "referenceRange": [
          {
            "low": {
              "value": 3.5,
              "code": "mmol/L",
              "system": "http://unitsofmeasure.org"
            }
          },
          {
            "high": {
              "value": 5,
              "code": "mmol/L",
              "system": "http://unitsofmeasure.org"
            }
          }
        ],
        "text": {
          "status": "generated",
          "div": "<div xmlns=\"http://www.w3.org/1999/xhtml\"><table class=\"hl7__eu__lab__report\"><tr><th>Test</th><th>28-Feb-2018</th><th>Reference&#xA0;Range</th><th>Unit</th></tr><tr><td>Potassium [Moles/volume] in Serum or Plasma</td><td>3.9</td><td>3.5 - 5</td><td></td><td>mmol/L</td></tr></table></div>"
        },
        "status": "final",
        "subject": {
          "reference": "urn:uuid:284610ed-4b84-4980-aff9-91ad9678ed59",
          "display": "Θεμιστοκλής Λιναρδάκη"
        },
        "effectiveDateTime": "2018-02-28T06:16:00Z",
        "specimen": {
          "reference": "urn:uuid:2966f370-5fd7-4ab2-8af4-9fdd657993e7"
        }
      }
    },
    {
      "fullUrl": "urn:uuid:2dd1d002-6b58-4d11-9eee-89abed07a0be",
      "resource": {
        "resourceType": "Observation",
        "id": "2dd1d002-6b58-4d11-9eee-89abed07a0be",
        "meta": {
          "profile": [
            "http://hl7.eu/fhir/laboratory/StructureDefinition/Observation-resultslab-eu-lab"
          ]
        },
        "performer": [
          {
            "display": "The Central European Lab"
          }
        ],
        "category": [
          {
            "coding": [
              {
                "system": "http://terminology.hl7.org/CodeSystem/observation-category",
                "code": "laboratory"
              }
            ]
          }
        ],
        "code": {
          "coding": [
            {
              "code": "2075-0",
              "system": "http://loinc.org",
              "display": "Chloride [Moles/volume] in Serum or Plasma"
            }
          ],
          "text": "Chloride [Moles/volume] in Serum or Plasma"
        },
        "valueQuantity": {
          "system": "http://unitsofmeasure.org",
          "value": 102.8,
          "unit": "mmol/L",
          "code": "mmol/L"
        },
        "referenceRange": [
          {
            "low": {
              "value": 98,
              "code": "mmol/L",
              "system": "http://unitsofmeasure.org"
            }
          },
          {
            "high": {
              "value": 108,
              "code": "mmol/L",
              "system": "http://unitsofmeasure.org"
            }
          }
        ],
        "text": {
          "status": "generated",
          "div": "<div xmlns=\"http://www.w3.org/1999/xhtml\"><table class=\"hl7__eu__lab__report\"><tr><th>Test</th><th>28-Feb-2018</th><th>Reference&#xA0;Range</th><th>Unit</th></tr><tr><td>Chloride [Moles/volume] in Serum or Plasma</td><td>102.8</td><td>98 - 108</td><td></td><td>mmol/L</td></tr></table></div>"
        },
        "status": "final",
        "subject": {
          "reference": "urn:uuid:284610ed-4b84-4980-aff9-91ad9678ed59",
          "display": "Θεμιστοκλής Λιναρδάκη"
        },
        "effectiveDateTime": "2018-02-28T06:16:00Z",
        "specimen": {
          "reference": "urn:uuid:2966f370-5fd7-4ab2-8af4-9fdd657993e7"
        }
      }
    },
    {
      "fullUrl": "urn:uuid:a40c3f18-5d7f-40dd-84a1-ef400d6700f6",
      "resource": {
        "resourceType": "Observation",
        "id": "a40c3f18-5d7f-40dd-84a1-ef400d6700f6",
        "meta": {
          "profile": [
            "http://hl7.eu/fhir/laboratory/StructureDefinition/Observation-resultslab-eu-lab"
          ]
        },
        "performer": [
          {
            "display": "The Central European Lab"
          }
        ],
        "category": [
          {
            "coding": [
              {
                "system": "http://terminology.hl7.org/CodeSystem/observation-category",
                "code": "laboratory"
              }
            ]
          }
        ],
        "code": {
          "coding": [
            {
              "code": "2028-9",
              "system": "http://loinc.org",
              "display": "Carbon dioxide, total [Moles/volume] in Serum or Plasma"
            }
          ],
          "text": "Carbon dioxide, total [Moles/volume] in Serum or Plasma"
        },
        "valueQuantity": {
          "system": "http://unitsofmeasure.org",
          "value": 27.9,
          "unit": "mmol/L",
          "code": "mmol/L"
        },
        "referenceRange": [
          {
            "low": {
              "value": 22,
              "code": "mmol/L",
              "system": "http://unitsofmeasure.org"
            }
          },
          {
            "high": {
              "value": 29,
              "code": "mmol/L",
              "system": "http://unitsofmeasure.org"
            }
          }
        ],
        "text": {
          "status": "generated",
          "div": "<div xmlns=\"http://www.w3.org/1999/xhtml\"><table class=\"hl7__eu__lab__report\"><tr><th>Test</th><th>28-Feb-2018</th><th>Reference&#xA0;Range</th><th>Unit</th></tr><tr><td>Carbon dioxide, total [Moles/volume] in Serum or Plasma</td><td>27.9</td><td>22 - 29</td><td></td><td>mmol/L</td></tr></table></div>"
        },
        "status": "final",
        "subject": {
          "reference": "urn:uuid:284610ed-4b84-4980-aff9-91ad9678ed59",
          "display": "Θεμιστοκλής Λιναρδάκη"
        },
        "effectiveDateTime": "2018-02-28T06:16:00Z",
        "specimen": {
          "reference": "urn:uuid:2966f370-5fd7-4ab2-8af4-9fdd657993e7"
        }
      }
    },
    {
      "fullUrl": "urn:uuid:bc5a8a2b-eb8c-4d0f-9001-45596548e6e6",
      "resource": {
        "resourceType": "Observation",
        "id": "bc5a8a2b-eb8c-4d0f-9001-45596548e6e6",
        "meta": {
          "profile": [
            "http://hl7.eu/fhir/laboratory/StructureDefinition/Observation-resultslab-eu-lab"
          ]
        },
        "performer": [
          {
            "display": "The Central European Lab"
          }
        ],
        "category": [
          {
            "coding": [
              {
                "system": "http://terminology.hl7.org/CodeSystem/observation-category",
                "code": "laboratory"
              }
            ]
          }
        ],
        "code": {
          "coding": [
            {
              "code": "5767-9",
              "system": "http://loinc.org",
              "display": "Appearance of Urine"
            }
          ],
          "text": "Appearance of Urine"
        },
        "text": {
          "status": "generated",
          "div": "<div xmlns=\"http://www.w3.org/1999/xhtml\"><table class=\"hl7__eu__lab__report\"><tr><th>Test</th><th>28-Feb-2018</th><th>Reference&#xA0;Range</th><th>Unit</th></tr><tr><td>Appearance of Urine</td></tr></table></div>"
        },
        "status": "final",
        "subject": {
          "reference": "urn:uuid:284610ed-4b84-4980-aff9-91ad9678ed59",
          "display": "Θεμιστοκλής Λιναρδάκη"
        },
        "effectiveDateTime": "2018-02-28T06:16:00Z",
        "specimen": {
          "reference": "urn:uuid:80baf125-a903-4909-a51b-21c90f99ae03"
        }
      }
    },
    {
      "fullUrl": "urn:uuid:1749fa7c-d7ed-46f4-8d15-212b335d11dd",
      "resource": {
        "resourceType": "Observation",
        "id": "1749fa7c-d7ed-46f4-8d15-212b335d11dd",
        "meta": {
          "profile": [
            "http://hl7.eu/fhir/laboratory/StructureDefinition/Observation-resultslab-eu-lab"
          ]
        },
        "performer": [
          {
            "display": "The Central European Lab"
          }
        ],
        "category": [
          {
            "coding": [
              {
                "system": "http://terminology.hl7.org/CodeSystem/observation-category",
                "code": "laboratory"
              }
            ]
          }
        ],
        "code": {
          "coding": [
            {
              "code": "34533-0",
              "system": "http://loinc.org",
              "display": "Odor of Urine"
            }
          ],
          "text": "Odor of Urine"
        },
        "text": {
          "status": "generated",
          "div": "<div xmlns=\"http://www.w3.org/1999/xhtml\"><table class=\"hl7__eu__lab__report\"><tr><th>Test</th><th>28-Feb-2018</th><th>Reference&#xA0;Range</th><th>Unit</th></tr><tr><td>Odor of Urine</td></tr></table></div>"
        },
        "status": "final",
        "subject": {
          "reference": "urn:uuid:284610ed-4b84-4980-aff9-91ad9678ed59",
          "display": "Θεμιστοκλής Λιναρδάκη"
        },
        "effectiveDateTime": "2018-02-28T06:16:00Z",
        "specimen": {
          "reference": "urn:uuid:80baf125-a903-4909-a51b-21c90f99ae03"
        }
      }
    },
    {
      "fullUrl": "urn:uuid:3aa51c02-2265-43fc-81de-544df804a280",
      "resource": {
        "resourceType": "Observation",
        "id": "3aa51c02-2265-43fc-81de-544df804a280",
        "meta": {
          "profile": [
            "http://hl7.eu/fhir/laboratory/StructureDefinition/Observation-resultslab-eu-lab"
          ]
        },
        "performer": [
          {
            "display": "The Central European Lab"
          }
        ],
        "category": [
          {
            "coding": [
              {
                "system": "http://terminology.hl7.org/CodeSystem/observation-category",
                "code": "laboratory"
              }
            ]
          }
        ],
        "code": {
          "coding": [
            {
              "code": "32167-9",
              "system": "http://loinc.org",
              "display": "Clarity of Urine"
            }
          ],
          "text": "Clarity of Urine"
        },
        "text": {
          "status": "generated",
          "div": "<div xmlns=\"http://www.w3.org/1999/xhtml\"><table class=\"hl7__eu__lab__report\"><tr><th>Test</th><th>28-Feb-2018</th><th>Reference&#xA0;Range</th><th>Unit</th></tr><tr><td>Clarity of Urine</td></tr></table></div>"
        },
        "status": "final",
        "subject": {
          "reference": "urn:uuid:284610ed-4b84-4980-aff9-91ad9678ed59",
          "display": "Θεμιστοκλής Λιναρδάκη"
        },
        "effectiveDateTime": "2018-02-28T06:16:00Z",
        "specimen": {
          "reference": "urn:uuid:80baf125-a903-4909-a51b-21c90f99ae03"
        }
      }
    },
    {
      "fullUrl": "urn:uuid:85f65482-5942-408c-9545-0ca2f133a7ec",
      "resource": {
        "resourceType": "Observation",
        "id": "85f65482-5942-408c-9545-0ca2f133a7ec",
        "meta": {
          "profile": [
            "http://hl7.eu/fhir/laboratory/StructureDefinition/Observation-resultslab-eu-lab"
          ]
        },
        "performer": [
          {
            "display": "The Central European Lab"
          }
        ],
        "category": [
          {
            "coding": [
              {
                "system": "http://terminology.hl7.org/CodeSystem/observation-category",
                "code": "laboratory"
              }
            ]
          }
        ],
        "code": {
          "coding": [
            {
              "code": "5778-6",
              "system": "http://loinc.org",
              "display": "Color of Urine"
            }
          ],
          "text": "Color of Urine"
        },
        "text": {
          "status": "generated",
          "div": "<div xmlns=\"http://www.w3.org/1999/xhtml\"><table class=\"hl7__eu__lab__report\"><tr><th>Test</th><th>28-Feb-2018</th><th>Reference&#xA0;Range</th><th>Unit</th></tr><tr><td>Color of Urine</td></tr></table></div>"
        },
        "status": "final",
        "subject": {
          "reference": "urn:uuid:284610ed-4b84-4980-aff9-91ad9678ed59",
          "display": "Θεμιστοκλής Λιναρδάκη"
        },
        "effectiveDateTime": "2018-02-28T06:16:00Z",
        "specimen": {
          "reference": "urn:uuid:80baf125-a903-4909-a51b-21c90f99ae03"
        }
      }
    },
    {
      "fullUrl": "urn:uuid:1aaed9a9-1675-490e-91c8-752c6405b128",
      "resource": {
        "resourceType": "Observation",
        "id": "1aaed9a9-1675-490e-91c8-752c6405b128",
        "meta": {
          "profile": [
            "http://hl7.eu/fhir/laboratory/StructureDefinition/Observation-resultslab-eu-lab"
          ]
        },
        "performer": [
          {
            "display": "The Central European Lab"
          }
        ],
        "category": [
          {
            "coding": [
              {
                "system": "http://terminology.hl7.org/CodeSystem/observation-category",
                "code": "laboratory"
              }
            ]
          }
        ],
        "code": {
          "coding": [
            {
              "code": "5792-7",
              "system": "http://loinc.org",
              "display": "Glucose [Mass/volume] in Urine by Test strip"
            }
          ],
          "text": "Glucose [Mass/volume] in Urine by Test strip"
        },
        "valueQuantity": {
          "system": "http://unitsofmeasure.org",
          "value": 1.1,
          "unit": "mg/dL",
          "code": "mg/dL"
        },
        "referenceRange": [
          {
            "low": {
              "value": 0,
              "code": "mg/dL",
              "system": "http://unitsofmeasure.org"
            }
          },
          {
            "high": {
              "value": 0.8,
              "code": "mg/dL",
              "system": "http://unitsofmeasure.org"
            }
          }
        ],
        "interpretation": [
          {
            "coding": [
              {
                "code": "H",
                "system": "http://terminology.hl7.org/CodeSystem/v3-ObservationInterpretation",
                "display": "High"
              }
            ]
          }
        ],
        "text": {
          "status": "generated",
          "div": "<div xmlns=\"http://www.w3.org/1999/xhtml\"><table class=\"hl7__eu__lab__report\"><tr><th>Test</th><th>28-Feb-2018</th><th>Reference&#xA0;Range</th><th>Unit</th></tr><tr><td>Glucose [Mass/volume] in Urine by Test strip</td><td>1.1</td><td>0 - 0.8</td><td>H</td><td>mg/dL</td></tr></table></div>"
        },
        "status": "final",
        "subject": {
          "reference": "urn:uuid:284610ed-4b84-4980-aff9-91ad9678ed59",
          "display": "Θεμιστοκλής Λιναρδάκη"
        },
        "effectiveDateTime": "2018-02-28T06:16:00Z",
        "specimen": {
          "reference": "urn:uuid:80baf125-a903-4909-a51b-21c90f99ae03"
        }
      }
    },
    {
      "fullUrl": "urn:uuid:3ea4fd14-3495-4c16-a27b-49ce043f25a6",
      "resource": {
        "resourceType": "Observation",
        "id": "3ea4fd14-3495-4c16-a27b-49ce043f25a6",
        "meta": {
          "profile": [
            "http://hl7.eu/fhir/laboratory/StructureDefinition/Observation-resultslab-eu-lab"
          ]
        },
        "performer": [
          {
            "display": "The Central European Lab"
          }
        ],
        "category": [
          {
            "coding": [
              {
                "system": "http://terminology.hl7.org/CodeSystem/observation-category",
                "code": "laboratory"
              }
            ]
          }
        ],
        "code": {
          "coding": [
            {
              "code": "25428-4",
              "system": "http://loinc.org",
              "display": "Glucose [Presence] in Urine by Test strip"
            }
          ],
          "text": "Glucose [Presence] in Urine by Test strip"
        },
        "text": {
          "status": "generated",
          "div": "<div xmlns=\"http://www.w3.org/1999/xhtml\"><table class=\"hl7__eu__lab__report\"><tr><th>Test</th><th>28-Feb-2018</th><th>Reference&#xA0;Range</th><th>Unit</th></tr><tr><td>Glucose [Presence] in Urine by Test strip</td></tr></table></div>"
        },
        "status": "final",
        "subject": {
          "reference": "urn:uuid:284610ed-4b84-4980-aff9-91ad9678ed59",
          "display": "Θεμιστοκλής Λιναρδάκη"
        },
        "effectiveDateTime": "2018-02-28T06:16:00Z",
        "specimen": {
          "reference": "urn:uuid:80baf125-a903-4909-a51b-21c90f99ae03"
        }
      }
    },
    {
      "fullUrl": "urn:uuid:8d6cba67-f098-4d51-84ae-e1c0d465f14a",
      "resource": {
        "resourceType": "Observation",
        "id": "8d6cba67-f098-4d51-84ae-e1c0d465f14a",
        "meta": {
          "profile": [
            "http://hl7.eu/fhir/laboratory/StructureDefinition/Observation-resultslab-eu-lab"
          ]
        },
        "performer": [
          {
            "display": "The Central European Lab"
          }
        ],
        "category": [
          {
            "coding": [
              {
                "system": "http://terminology.hl7.org/CodeSystem/observation-category",
                "code": "laboratory"
              }
            ]
          }
        ],
        "code": {
          "coding": [
            {
              "code": "20505-4",
              "system": "http://loinc.org",
              "display": "Bilirubin.total [Mass/volume] in Urine by Test strip"
            }
          ],
          "text": "Bilirubin.total [Mass/volume] in Urine by Test strip"
        },
        "valueQuantity": {
          "system": "http://unitsofmeasure.org",
          "value": 0.9,
          "unit": "mg/dL",
          "code": "mg/dL"
        },
        "referenceRange": [
          {
            "low": {
              "value": 0.2,
              "code": "mg/dL",
              "system": "http://unitsofmeasure.org"
            }
          },
          {
            "high": {
              "value": 1,
              "code": "mg/dL",
              "system": "http://unitsofmeasure.org"
            }
          }
        ],
        "text": {
          "status": "generated",
          "div": "<div xmlns=\"http://www.w3.org/1999/xhtml\"><table class=\"hl7__eu__lab__report\"><tr><th>Test</th><th>28-Feb-2018</th><th>Reference&#xA0;Range</th><th>Unit</th></tr><tr><td>Bilirubin.total [Mass/volume] in Urine by Test strip</td><td>0.9</td><td>0.2 - 1</td><td></td><td>mg/dL</td></tr></table></div>"
        },
        "status": "final",
        "subject": {
          "reference": "urn:uuid:284610ed-4b84-4980-aff9-91ad9678ed59",
          "display": "Θεμιστοκλής Λιναρδάκη"
        },
        "effectiveDateTime": "2018-02-28T06:16:00Z",
        "specimen": {
          "reference": "urn:uuid:80baf125-a903-4909-a51b-21c90f99ae03"
        }
      }
    },
    {
      "fullUrl": "urn:uuid:14b6fca4-dfef-422c-90f0-706ae50955b4",
      "resource": {
        "resourceType": "Observation",
        "id": "14b6fca4-dfef-422c-90f0-706ae50955b4",
        "meta": {
          "profile": [
            "http://hl7.eu/fhir/laboratory/StructureDefinition/Observation-resultslab-eu-lab"
          ]
        },
        "performer": [
          {
            "display": "The Central European Lab"
          }
        ],
        "category": [
          {
            "coding": [
              {
                "system": "http://terminology.hl7.org/CodeSystem/observation-category",
                "code": "laboratory"
              }
            ]
          }
        ],
        "code": {
          "coding": [
            {
              "code": "5770-3",
              "system": "http://loinc.org",
              "display": "Bilirubin.total [Presence] in Urine by Test strip"
            }
          ],
          "text": "Bilirubin.total [Presence] in Urine by Test strip"
        },
        "text": {
          "status": "generated",
          "div": "<div xmlns=\"http://www.w3.org/1999/xhtml\"><table class=\"hl7__eu__lab__report\"><tr><th>Test</th><th>28-Feb-2018</th><th>Reference&#xA0;Range</th><th>Unit</th></tr><tr><td>Bilirubin.total [Presence] in Urine by Test strip</td></tr></table></div>"
        },
        "status": "final",
        "subject": {
          "reference": "urn:uuid:284610ed-4b84-4980-aff9-91ad9678ed59",
          "display": "Θεμιστοκλής Λιναρδάκη"
        },
        "effectiveDateTime": "2018-02-28T06:16:00Z",
        "specimen": {
          "reference": "urn:uuid:80baf125-a903-4909-a51b-21c90f99ae03"
        }
      }
    },
    {
      "fullUrl": "urn:uuid:1abcd8e3-f762-4582-b1b8-72ee93d68fa0",
      "resource": {
        "resourceType": "Observation",
        "id": "1abcd8e3-f762-4582-b1b8-72ee93d68fa0",
        "meta": {
          "profile": [
            "http://hl7.eu/fhir/laboratory/StructureDefinition/Observation-resultslab-eu-lab"
          ]
        },
        "performer": [
          {
            "display": "The Central European Lab"
          }
        ],
        "category": [
          {
            "coding": [
              {
                "system": "http://terminology.hl7.org/CodeSystem/observation-category",
                "code": "laboratory"
              }
            ]
          }
        ],
        "code": {
          "coding": [
            {
              "code": "5797-6",
              "system": "http://loinc.org",
              "display": "Ketones [Mass/volume] in Urine by Test strip"
            }
          ],
          "text": "Ketones [Mass/volume] in Urine by Test strip"
        },
        "valueQuantity": {
          "system": "http://unitsofmeasure.org",
          "value": 17.6,
          "unit": "mg/dL",
          "code": "mg/dL"
        },
        "referenceRange": [
          {
            "low": {
              "value": 0,
              "code": "mg/dL",
              "system": "http://unitsofmeasure.org"
            }
          },
          {
            "high": {
              "value": 5,
              "code": "mg/dL",
              "system": "http://unitsofmeasure.org"
            }
          }
        ],
        "interpretation": [
          {
            "coding": [
              {
                "code": "H",
                "system": "http://terminology.hl7.org/CodeSystem/v3-ObservationInterpretation",
                "display": "High"
              }
            ]
          }
        ],
        "text": {
          "status": "generated",
          "div": "<div xmlns=\"http://www.w3.org/1999/xhtml\"><table class=\"hl7__eu__lab__report\"><tr><th>Test</th><th>28-Feb-2018</th><th>Reference&#xA0;Range</th><th>Unit</th></tr><tr><td>Ketones [Mass/volume] in Urine by Test strip</td><td>17.6</td><td>0 - 5</td><td>H</td><td>mg/dL</td></tr></table></div>"
        },
        "status": "final",
        "subject": {
          "reference": "urn:uuid:284610ed-4b84-4980-aff9-91ad9678ed59",
          "display": "Θεμιστοκλής Λιναρδάκη"
        },
        "effectiveDateTime": "2018-02-28T06:16:00Z",
        "specimen": {
          "reference": "urn:uuid:80baf125-a903-4909-a51b-21c90f99ae03"
        }
      }
    },
    {
      "fullUrl": "urn:uuid:64831b82-d4e0-4834-9d20-0fa29852621a",
      "resource": {
        "resourceType": "Observation",
        "id": "64831b82-d4e0-4834-9d20-0fa29852621a",
        "meta": {
          "profile": [
            "http://hl7.eu/fhir/laboratory/StructureDefinition/Observation-resultslab-eu-lab"
          ]
        },
        "performer": [
          {
            "display": "The Central European Lab"
          }
        ],
        "category": [
          {
            "coding": [
              {
                "system": "http://terminology.hl7.org/CodeSystem/observation-category",
                "code": "laboratory"
              }
            ]
          }
        ],
        "code": {
          "coding": [
            {
              "code": "2514-8",
              "system": "http://loinc.org",
              "display": "Ketones [Presence] in Urine by Test strip"
            }
          ],
          "text": "Ketones [Presence] in Urine by Test strip"
        },
        "text": {
          "status": "generated",
          "div": "<div xmlns=\"http://www.w3.org/1999/xhtml\"><table class=\"hl7__eu__lab__report\"><tr><th>Test</th><th>28-Feb-2018</th><th>Reference&#xA0;Range</th><th>Unit</th></tr><tr><td>Ketones [Presence] in Urine by Test strip</td></tr></table></div>"
        },
        "status": "final",
        "subject": {
          "reference": "urn:uuid:284610ed-4b84-4980-aff9-91ad9678ed59",
          "display": "Θεμιστοκλής Λιναρδάκη"
        },
        "effectiveDateTime": "2018-02-28T06:16:00Z",
        "specimen": {
          "reference": "urn:uuid:80baf125-a903-4909-a51b-21c90f99ae03"
        }
      }
    },
    {
      "fullUrl": "urn:uuid:f5b05358-de1a-4988-8f62-f5b656a2332b",
      "resource": {
        "resourceType": "Observation",
        "id": "f5b05358-de1a-4988-8f62-f5b656a2332b",
        "meta": {
          "profile": [
            "http://hl7.eu/fhir/laboratory/StructureDefinition/Observation-resultslab-eu-lab"
          ]
        },
        "performer": [
          {
            "display": "The Central European Lab"
          }
        ],
        "category": [
          {
            "coding": [
              {
                "system": "http://terminology.hl7.org/CodeSystem/observation-category",
                "code": "laboratory"
              }
            ]
          }
        ],
        "code": {
          "coding": [
            {
              "code": "5811-5",
              "system": "http://loinc.org",
              "display": "Specific gravity of Urine by Test strip"
            }
          ],
          "text": "Specific gravity of Urine by Test strip"
        },
        "valueQuantity": {
          "system": "http://unitsofmeasure.org",
          "value": 1,
          "unit": "{nominal}",
          "code": "{nominal}"
        },
        "referenceRange": [
          {
            "low": {
              "value": 1.005,
              "code": "g/mL",
              "system": "http://unitsofmeasure.org"
            }
          },
          {
            "high": {
              "value": 1.03,
              "code": "g/mL",
              "system": "http://unitsofmeasure.org"
            }
          }
        ],
        "interpretation": [
          {
            "coding": [
              {
                "code": "L",
                "system": "http://terminology.hl7.org/CodeSystem/v3-ObservationInterpretation",
                "display": "Low"
              }
            ]
          }
        ],
        "text": {
          "status": "generated",
          "div": "<div xmlns=\"http://www.w3.org/1999/xhtml\"><table class=\"hl7__eu__lab__report\"><tr><th>Test</th><th>28-Feb-2018</th><th>Reference&#xA0;Range</th><th>Unit</th></tr><tr><td>Specific gravity of Urine by Test strip</td><td>1.0</td><td>1.005 - 1.03</td><td>L</td><td>{nominal}</td></tr></table></div>"
        },
        "status": "final",
        "subject": {
          "reference": "urn:uuid:284610ed-4b84-4980-aff9-91ad9678ed59",
          "display": "Θεμιστοκλής Λιναρδάκη"
        },
        "effectiveDateTime": "2018-02-28T06:16:00Z",
        "specimen": {
          "reference": "urn:uuid:80baf125-a903-4909-a51b-21c90f99ae03"
        }
      }
    },
    {
      "fullUrl": "urn:uuid:57e6ae12-7336-4e47-b666-23b88c1da8e6",
      "resource": {
        "resourceType": "Observation",
        "id": "57e6ae12-7336-4e47-b666-23b88c1da8e6",
        "meta": {
          "profile": [
            "http://hl7.eu/fhir/laboratory/StructureDefinition/Observation-resultslab-eu-lab"
          ]
        },
        "performer": [
          {
            "display": "The Central European Lab"
          }
        ],
        "category": [
          {
            "coding": [
              {
                "system": "http://terminology.hl7.org/CodeSystem/observation-category",
                "code": "laboratory"
              }
            ]
          }
        ],
        "code": {
          "coding": [
            {
              "code": "5803-2",
              "system": "http://loinc.org",
              "display": "pH of Urine by Test strip"
            }
          ],
          "text": "pH of Urine by Test strip"
        },
        "valueQuantity": {
          "system": "http://unitsofmeasure.org",
          "value": 5.6,
          "unit": "pH",
          "code": "pH"
        },
        "referenceRange": [
          {
            "low": {
              "value": 4.6,
              "code": "pH",
              "system": "http://unitsofmeasure.org"
            }
          },
          {
            "high": {
              "value": 7,
              "code": "pH",
              "system": "http://unitsofmeasure.org"
            }
          }
        ],
        "text": {
          "status": "generated",
          "div": "<div xmlns=\"http://www.w3.org/1999/xhtml\"><table class=\"hl7__eu__lab__report\"><tr><th>Test</th><th>28-Feb-2018</th><th>Reference&#xA0;Range</th><th>Unit</th></tr><tr><td>pH of Urine by Test strip</td><td>5.6</td><td>4.6 - 7</td><td></td><td>pH</td></tr></table></div>"
        },
        "status": "final",
        "subject": {
          "reference": "urn:uuid:284610ed-4b84-4980-aff9-91ad9678ed59",
          "display": "Θεμιστοκλής Λιναρδάκη"
        },
        "effectiveDateTime": "2018-02-28T06:16:00Z",
        "specimen": {
          "reference": "urn:uuid:80baf125-a903-4909-a51b-21c90f99ae03"
        }
      }
    },
    {
      "fullUrl": "urn:uuid:419f9e71-cdcb-42ea-81c2-1dd041348d61",
      "resource": {
        "resourceType": "Observation",
        "id": "419f9e71-cdcb-42ea-81c2-1dd041348d61",
        "meta": {
          "profile": [
            "http://hl7.eu/fhir/laboratory/StructureDefinition/Observation-resultslab-eu-lab"
          ]
        },
        "performer": [
          {
            "display": "The Central European Lab"
          }
        ],
        "category": [
          {
            "coding": [
              {
                "system": "http://terminology.hl7.org/CodeSystem/observation-category",
                "code": "laboratory"
              }
            ]
          }
        ],
        "code": {
          "coding": [
            {
              "code": "5804-0",
              "system": "http://loinc.org",
              "display": "Protein [Mass/volume] in Urine by Test strip"
            }
          ],
          "text": "Protein [Mass/volume] in Urine by Test strip"
        },
        "valueQuantity": {
          "system": "http://unitsofmeasure.org",
          "value": 238.4,
          "unit": "mg/dL",
          "code": "mg/dL"
        },
        "referenceRange": [
          {
            "low": {
              "value": 0,
              "code": "mg/dL",
              "system": "http://unitsofmeasure.org"
            }
          },
          {
            "high": {
              "value": 150,
              "code": "mg/dL",
              "system": "http://unitsofmeasure.org"
            }
          }
        ],
        "interpretation": [
          {
            "coding": [
              {
                "code": "H",
                "system": "http://terminology.hl7.org/CodeSystem/v3-ObservationInterpretation",
                "display": "High"
              }
            ]
          }
        ],
        "text": {
          "status": "generated",
          "div": "<div xmlns=\"http://www.w3.org/1999/xhtml\"><table class=\"hl7__eu__lab__report\"><tr><th>Test</th><th>28-Feb-2018</th><th>Reference&#xA0;Range</th><th>Unit</th></tr><tr><td>Protein [Mass/volume] in Urine by Test strip</td><td>238.4</td><td>0 - 150</td><td>H</td><td>mg/dL</td></tr></table></div>"
        },
        "status": "final",
        "subject": {
          "reference": "urn:uuid:284610ed-4b84-4980-aff9-91ad9678ed59",
          "display": "Θεμιστοκλής Λιναρδάκη"
        },
        "effectiveDateTime": "2018-02-28T06:16:00Z",
        "specimen": {
          "reference": "urn:uuid:80baf125-a903-4909-a51b-21c90f99ae03"
        }
      }
    },
    {
      "fullUrl": "urn:uuid:b861ecfb-130d-4ba4-a45e-31bc3bb56306",
      "resource": {
        "resourceType": "Observation",
        "id": "b861ecfb-130d-4ba4-a45e-31bc3bb56306",
        "meta": {
          "profile": [
            "http://hl7.eu/fhir/laboratory/StructureDefinition/Observation-resultslab-eu-lab"
          ]
        },
        "performer": [
          {
            "display": "The Central European Lab"
          }
        ],
        "category": [
          {
            "coding": [
              {
                "system": "http://terminology.hl7.org/CodeSystem/observation-category",
                "code": "laboratory"
              }
            ]
          }
        ],
        "code": {
          "coding": [
            {
              "code": "20454-5",
              "system": "http://loinc.org",
              "display": "Protein [Presence] in Urine by Test strip"
            }
          ],
          "text": "Protein [Presence] in Urine by Test strip"
        },
        "text": {
          "status": "generated",
          "div": "<div xmlns=\"http://www.w3.org/1999/xhtml\"><table class=\"hl7__eu__lab__report\"><tr><th>Test</th><th>28-Feb-2018</th><th>Reference&#xA0;Range</th><th>Unit</th></tr><tr><td>Protein [Presence] in Urine by Test strip</td></tr></table></div>"
        },
        "status": "final",
        "subject": {
          "reference": "urn:uuid:284610ed-4b84-4980-aff9-91ad9678ed59",
          "display": "Θεμιστοκλής Λιναρδάκη"
        },
        "effectiveDateTime": "2018-02-28T06:16:00Z",
        "specimen": {
          "reference": "urn:uuid:80baf125-a903-4909-a51b-21c90f99ae03"
        }
      }
    },
    {
      "fullUrl": "urn:uuid:74aea45b-b37d-43de-b505-4effd9a57cd3",
      "resource": {
        "resourceType": "Observation",
        "id": "74aea45b-b37d-43de-b505-4effd9a57cd3",
        "meta": {
          "profile": [
            "http://hl7.eu/fhir/laboratory/StructureDefinition/Observation-resultslab-eu-lab"
          ]
        },
        "performer": [
          {
            "display": "The Central European Lab"
          }
        ],
        "category": [
          {
            "coding": [
              {
                "system": "http://terminology.hl7.org/CodeSystem/observation-category",
                "code": "laboratory"
              }
            ]
          }
        ],
        "code": {
          "coding": [
            {
              "code": "5802-4",
              "system": "http://loinc.org",
              "display": "Nitrite [Presence] in Urine by Test strip"
            }
          ],
          "text": "Nitrite [Presence] in Urine by Test strip"
        },
        "text": {
          "status": "generated",
          "div": "<div xmlns=\"http://www.w3.org/1999/xhtml\"><table class=\"hl7__eu__lab__report\"><tr><th>Test</th><th>28-Feb-2018</th><th>Reference&#xA0;Range</th><th>Unit</th></tr><tr><td>Nitrite [Presence] in Urine by Test strip</td></tr></table></div>"
        },
        "status": "final",
        "subject": {
          "reference": "urn:uuid:284610ed-4b84-4980-aff9-91ad9678ed59",
          "display": "Θεμιστοκλής Λιναρδάκη"
        },
        "effectiveDateTime": "2018-02-28T06:16:00Z",
        "specimen": {
          "reference": "urn:uuid:80baf125-a903-4909-a51b-21c90f99ae03"
        }
      }
    },
    {
      "fullUrl": "urn:uuid:e9fe55bb-56c2-4b2d-9661-c75a5311a8ba",
      "resource": {
        "resourceType": "Observation",
        "id": "e9fe55bb-56c2-4b2d-9661-c75a5311a8ba",
        "meta": {
          "profile": [
            "http://hl7.eu/fhir/laboratory/StructureDefinition/Observation-resultslab-eu-lab"
          ]
        },
        "performer": [
          {
            "display": "The Central European Lab"
          }
        ],
        "category": [
          {
            "coding": [
              {
                "system": "http://terminology.hl7.org/CodeSystem/observation-category",
                "code": "laboratory"
              }
            ]
          }
        ],
        "code": {
          "coding": [
            {
              "code": "5794-3",
              "system": "http://loinc.org",
              "display": "Hemoglobin [Presence] in Urine by Test strip"
            }
          ],
          "text": "Hemoglobin [Presence] in Urine by Test strip"
        },
        "text": {
          "status": "generated",
          "div": "<div xmlns=\"http://www.w3.org/1999/xhtml\"><table class=\"hl7__eu__lab__report\"><tr><th>Test</th><th>28-Feb-2018</th><th>Reference&#xA0;Range</th><th>Unit</th></tr><tr><td>Hemoglobin [Presence] in Urine by Test strip</td></tr></table></div>"
        },
        "status": "final",
        "subject": {
          "reference": "urn:uuid:284610ed-4b84-4980-aff9-91ad9678ed59",
          "display": "Θεμιστοκλής Λιναρδάκη"
        },
        "effectiveDateTime": "2018-02-28T06:16:00Z",
        "specimen": {
          "reference": "urn:uuid:80baf125-a903-4909-a51b-21c90f99ae03"
        }
      }
    },
    {
      "fullUrl": "urn:uuid:f415a9ed-d29a-4a06-8d8f-82c4662bd4f0",
      "resource": {
        "resourceType": "Observation",
        "id": "f415a9ed-d29a-4a06-8d8f-82c4662bd4f0",
        "meta": {
          "profile": [
            "http://hl7.eu/fhir/laboratory/StructureDefinition/Observation-resultslab-eu-lab"
          ]
        },
        "performer": [
          {
            "display": "The Central European Lab"
          }
        ],
        "category": [
          {
            "coding": [
              {
                "system": "http://terminology.hl7.org/CodeSystem/observation-category",
                "code": "laboratory"
              }
            ]
          }
        ],
        "code": {
          "coding": [
            {
              "code": "5799-2",
              "system": "http://loinc.org",
              "display": "Leukocyte esterase [Presence] in Urine by Test strip"
            }
          ],
          "text": "Leukocyte esterase [Presence] in Urine by Test strip"
        },
        "text": {
          "status": "generated",
          "div": "<div xmlns=\"http://www.w3.org/1999/xhtml\"><table class=\"hl7__eu__lab__report\"><tr><th>Test</th><th>28-Feb-2018</th><th>Reference&#xA0;Range</th><th>Unit</th></tr><tr><td>Leukocyte esterase [Presence] in Urine by Test strip</td></tr></table></div>"
        },
        "status": "final",
        "subject": {
          "reference": "urn:uuid:284610ed-4b84-4980-aff9-91ad9678ed59",
          "display": "Θεμιστοκλής Λιναρδάκη"
        },
        "effectiveDateTime": "2018-02-28T06:16:00Z",
        "specimen": {
          "reference": "urn:uuid:80baf125-a903-4909-a51b-21c90f99ae03"
        }
      }
    },
    {
      "fullUrl": "urn:uuid:b844a8b3-6752-4848-843f-aa2d7d0ebb36",
      "resource": {
        "resourceType": "Observation",
        "id": "b844a8b3-6752-4848-843f-aa2d7d0ebb36",
        "meta": {
          "profile": [
            "http://hl7.eu/fhir/laboratory/StructureDefinition/Observation-resultslab-eu-lab"
          ]
        },
        "performer": [
          {
            "display": "The Central European Lab"
          }
        ],
        "category": [
          {
            "coding": [
              {
                "system": "http://terminology.hl7.org/CodeSystem/observation-category",
                "code": "laboratory"
              }
            ]
          }
        ],
        "code": {
          "coding": [
            {
              "code": "4548-4",
              "system": "http://loinc.org",
              "display": "Hemoglobin A1c/Hemoglobin.total in Blood"
            }
          ],
          "text": "Hemoglobin A1c/Hemoglobin.total in Blood"
        },
        "valueQuantity": {
          "system": "http://unitsofmeasure.org",
          "value": 3.4,
          "unit": "%",
          "code": "%"
        },
        "referenceRange": [
          {
            "low": {
              "value": 4.3,
              "code": "%",
              "system": "http://unitsofmeasure.org"
            }
          },
          {
            "high": {
              "value": 6.4,
              "code": "%",
              "system": "http://unitsofmeasure.org"
            }
          }
        ],
        "interpretation": [
          {
            "coding": [
              {
                "code": "L",
                "system": "http://terminology.hl7.org/CodeSystem/v3-ObservationInterpretation",
                "display": "Low"
              }
            ]
          }
        ],
        "text": {
          "status": "generated",
          "div": "<div xmlns=\"http://www.w3.org/1999/xhtml\"><table class=\"hl7__eu__lab__report\"><tr><th>Test</th><th>28-Feb-2018</th><th>Reference&#xA0;Range</th><th>Unit</th></tr><tr><td>Hemoglobin A1c/Hemoglobin.total in Blood</td><td>3.4</td><td>4.3 - 6.4</td><td>L</td><td>%</td></tr></table></div>"
        },
        "status": "final",
        "subject": {
          "reference": "urn:uuid:284610ed-4b84-4980-aff9-91ad9678ed59",
          "display": "Θεμιστοκλής Λιναρδάκη"
        },
        "effectiveDateTime": "2018-02-28T06:16:00Z",
        "specimen": {
          "reference": "urn:uuid:6d4631b7-dc18-4c6f-a24a-0e8d0d034c74"
        }
      }
    },
    {
      "fullUrl": "urn:uuid:4e640722-655e-40ec-8fa6-8a9b44f644ee",
      "resource": {
        "resourceType": "Observation",
        "id": "4e640722-655e-40ec-8fa6-8a9b44f644ee",
        "meta": {
          "profile": [
            "http://hl7.eu/fhir/laboratory/StructureDefinition/Observation-resultslab-eu-lab"
          ]
        },
        "performer": [
          {
            "display": "The Central European Lab"
          }
        ],
        "category": [
          {
            "coding": [
              {
                "system": "http://terminology.hl7.org/CodeSystem/observation-category",
                "code": "laboratory"
              }
            ]
          }
        ],
        "code": {
          "coding": [
            {
              "code": "2339-0",
              "system": "http://loinc.org",
              "display": "Glucose [Mass/volume] in Blood"
            }
          ],
          "text": "Glucose [Mass/volume] in Blood"
        },
        "valueQuantity": {
          "system": "http://unitsofmeasure.org",
          "value": 74,
          "unit": "mg/dL",
          "code": "mg/dL"
        },
        "referenceRange": [
          {
            "low": {
              "value": 70,
              "code": "mg/dL",
              "system": "http://unitsofmeasure.org"
            }
          },
          {
            "high": {
              "value": 140,
              "code": "mg/dL",
              "system": "http://unitsofmeasure.org"
            }
          }
        ],
        "text": {
          "status": "generated",
          "div": "<div xmlns=\"http://www.w3.org/1999/xhtml\"><table class=\"hl7__eu__lab__report\"><tr><th>Test</th><th>28-Feb-2018</th><th>Reference&#xA0;Range</th><th>Unit</th></tr><tr><td>Glucose [Mass/volume] in Blood</td><td>74.0</td><td>70 - 140</td><td></td><td>mg/dL</td></tr></table></div>"
        },
        "status": "final",
        "subject": {
          "reference": "urn:uuid:284610ed-4b84-4980-aff9-91ad9678ed59",
          "display": "Θεμιστοκλής Λιναρδάκη"
        },
        "effectiveDateTime": "2018-02-28T06:16:00Z",
        "specimen": {
          "reference": "urn:uuid:6d4631b7-dc18-4c6f-a24a-0e8d0d034c74"
        }
      }
    },
    {
      "fullUrl": "urn:uuid:23ed35ce-41a8-403c-a91c-06956fd138e4",
      "resource": {
        "resourceType": "Observation",
        "id": "23ed35ce-41a8-403c-a91c-06956fd138e4",
        "meta": {
          "profile": [
            "http://hl7.eu/fhir/laboratory/StructureDefinition/Observation-resultslab-eu-lab"
          ]
        },
        "performer": [
          {
            "display": "The Central European Lab"
          }
        ],
        "category": [
          {
            "coding": [
              {
                "system": "http://terminology.hl7.org/CodeSystem/observation-category",
                "code": "laboratory"
              }
            ]
          }
        ],
        "code": {
          "coding": [
            {
              "code": "6299-2",
              "system": "http://loinc.org",
              "display": "Urea nitrogen [Mass/volume] in Blood"
            }
          ],
          "text": "Urea nitrogen [Mass/volume] in Blood"
        },
        "valueQuantity": {
          "system": "http://unitsofmeasure.org",
          "value": 10.1,
          "unit": "mg/dL",
          "code": "mg/dL"
        },
        "referenceRange": [
          {
            "low": {
              "value": 7,
              "code": "mg/dL",
              "system": "http://unitsofmeasure.org"
            }
          },
          {
            "high": {
              "value": 20,
              "code": "mg/dL",
              "system": "http://unitsofmeasure.org"
            }
          }
        ],
        "text": {
          "status": "generated",
          "div": "<div xmlns=\"http://www.w3.org/1999/xhtml\"><table class=\"hl7__eu__lab__report\"><tr><th>Test</th><th>28-Feb-2018</th><th>Reference&#xA0;Range</th><th>Unit</th></tr><tr><td>Urea nitrogen [Mass/volume] in Blood</td><td>10.1</td><td>7 - 20</td><td></td><td>mg/dL</td></tr></table></div>"
        },
        "status": "final",
        "subject": {
          "reference": "urn:uuid:284610ed-4b84-4980-aff9-91ad9678ed59",
          "display": "Θεμιστοκλής Λιναρδάκη"
        },
        "effectiveDateTime": "2018-02-28T06:16:00Z",
        "specimen": {
          "reference": "urn:uuid:6d4631b7-dc18-4c6f-a24a-0e8d0d034c74"
        }
      }
    },
    {
      "fullUrl": "urn:uuid:7d3b7dc3-0df6-41c6-ad1b-56ae9b02d375",
      "resource": {
        "resourceType": "Observation",
        "id": "7d3b7dc3-0df6-41c6-ad1b-56ae9b02d375",
        "meta": {
          "profile": [
            "http://hl7.eu/fhir/laboratory/StructureDefinition/Observation-resultslab-eu-lab"
          ]
        },
        "performer": [
          {
            "display": "The Central European Lab"
          }
        ],
        "category": [
          {
            "coding": [
              {
                "system": "http://terminology.hl7.org/CodeSystem/observation-category",
                "code": "laboratory"
              }
            ]
          }
        ],
        "code": {
          "coding": [
            {
              "code": "38483-4",
              "system": "http://loinc.org",
              "display": "Creatinine [Mass/volume] in Blood"
            }
          ],
          "text": "Creatinine [Mass/volume] in Blood"
        },
        "valueQuantity": {
          "system": "http://unitsofmeasure.org",
          "value": 8.2,
          "unit": "mg/dL",
          "code": "mg/dL"
        },
        "referenceRange": [
          {
            "low": {
              "value": 0.6,
              "code": "mg/dL",
              "system": "http://unitsofmeasure.org"
            }
          },
          {
            "high": {
              "value": 1.3,
              "code": "mg/dL",
              "system": "http://unitsofmeasure.org"
            }
          }
        ],
        "interpretation": [
          {
            "coding": [
              {
                "code": "H",
                "system": "http://terminology.hl7.org/CodeSystem/v3-ObservationInterpretation",
                "display": "High"
              }
            ]
          }
        ],
        "text": {
          "status": "generated",
          "div": "<div xmlns=\"http://www.w3.org/1999/xhtml\"><table class=\"hl7__eu__lab__report\"><tr><th>Test</th><th>28-Feb-2018</th><th>Reference&#xA0;Range</th><th>Unit</th></tr><tr><td>Creatinine [Mass/volume] in Blood</td><td>8.2</td><td>0.6 - 1.3</td><td>H</td><td>mg/dL</td></tr></table></div>"
        },
        "status": "final",
        "subject": {
          "reference": "urn:uuid:284610ed-4b84-4980-aff9-91ad9678ed59",
          "display": "Θεμιστοκλής Λιναρδάκη"
        },
        "effectiveDateTime": "2018-02-28T06:16:00Z",
        "specimen": {
          "reference": "urn:uuid:6d4631b7-dc18-4c6f-a24a-0e8d0d034c74"
        }
      }
    },
    {
      "fullUrl": "urn:uuid:8e592b52-6ba3-447b-a01b-e1cc50c9a8e1",
      "resource": {
        "resourceType": "Observation",
        "id": "8e592b52-6ba3-447b-a01b-e1cc50c9a8e1",
        "meta": {
          "profile": [
            "http://hl7.eu/fhir/laboratory/StructureDefinition/Observation-resultslab-eu-lab"
          ]
        },
        "performer": [
          {
            "display": "The Central European Lab"
          }
        ],
        "category": [
          {
            "coding": [
              {
                "system": "http://terminology.hl7.org/CodeSystem/observation-category",
                "code": "laboratory"
              }
            ]
          }
        ],
        "code": {
          "coding": [
            {
              "code": "49765-1",
              "system": "http://loinc.org",
              "display": "Calcium [Mass/volume] in Blood"
            }
          ],
          "text": "Calcium [Mass/volume] in Blood"
        },
        "valueQuantity": {
          "system": "http://unitsofmeasure.org",
          "value": 9.6,
          "unit": "mg/dL",
          "code": "mg/dL"
        },
        "referenceRange": [
          {
            "low": {
              "value": 8.5,
              "code": "mg/dL",
              "system": "http://unitsofmeasure.org"
            }
          },
          {
            "high": {
              "value": 10.5,
              "code": "mg/dL",
              "system": "http://unitsofmeasure.org"
            }
          }
        ],
        "text": {
          "status": "generated",
          "div": "<div xmlns=\"http://www.w3.org/1999/xhtml\"><table class=\"hl7__eu__lab__report\"><tr><th>Test</th><th>28-Feb-2018</th><th>Reference&#xA0;Range</th><th>Unit</th></tr><tr><td>Calcium [Mass/volume] in Blood</td><td>9.6</td><td>8.5 - 10.5</td><td></td><td>mg/dL</td></tr></table></div>"
        },
        "status": "final",
        "subject": {
          "reference": "urn:uuid:284610ed-4b84-4980-aff9-91ad9678ed59",
          "display": "Θεμιστοκλής Λιναρδάκη"
        },
        "effectiveDateTime": "2018-02-28T06:16:00Z",
        "specimen": {
          "reference": "urn:uuid:6d4631b7-dc18-4c6f-a24a-0e8d0d034c74"
        }
      }
    },
    {
      "fullUrl": "urn:uuid:d914669d-dd69-4607-9501-b759adbe030b",
      "resource": {
        "resourceType": "Observation",
        "id": "d914669d-dd69-4607-9501-b759adbe030b",
        "meta": {
          "profile": [
            "http://hl7.eu/fhir/laboratory/StructureDefinition/Observation-resultslab-eu-lab"
          ]
        },
        "performer": [
          {
            "display": "The Central European Lab"
          }
        ],
        "category": [
          {
            "coding": [
              {
                "system": "http://terminology.hl7.org/CodeSystem/observation-category",
                "code": "laboratory"
              }
            ]
          }
        ],
        "code": {
          "coding": [
            {
              "code": "2947-0",
              "system": "http://loinc.org",
              "display": "Sodium [Moles/volume] in Blood"
            }
          ],
          "text": "Sodium [Moles/volume] in Blood"
        },
        "valueQuantity": {
          "system": "http://unitsofmeasure.org",
          "value": 136.3,
          "unit": "mmol/L",
          "code": "mmol/L"
        },
        "referenceRange": [
          {
            "low": {
              "value": 135,
              "code": "mmol/L",
              "system": "http://unitsofmeasure.org"
            }
          },
          {
            "high": {
              "value": 145,
              "code": "mmol/L",
              "system": "http://unitsofmeasure.org"
            }
          }
        ],
        "text": {
          "status": "generated",
          "div": "<div xmlns=\"http://www.w3.org/1999/xhtml\"><table class=\"hl7__eu__lab__report\"><tr><th>Test</th><th>28-Feb-2018</th><th>Reference&#xA0;Range</th><th>Unit</th></tr><tr><td>Sodium [Moles/volume] in Blood</td><td>136.3</td><td>135 - 145</td><td></td><td>mmol/L</td></tr></table></div>"
        },
        "status": "final",
        "subject": {
          "reference": "urn:uuid:284610ed-4b84-4980-aff9-91ad9678ed59",
          "display": "Θεμιστοκλής Λιναρδάκη"
        },
        "effectiveDateTime": "2018-02-28T06:16:00Z",
        "specimen": {
          "reference": "urn:uuid:6d4631b7-dc18-4c6f-a24a-0e8d0d034c74"
        }
      }
    },
    {
      "fullUrl": "urn:uuid:8f0bc20c-5879-4a7e-82ba-9e6687fb8d45",
      "resource": {
        "resourceType": "Observation",
        "id": "8f0bc20c-5879-4a7e-82ba-9e6687fb8d45",
        "meta": {
          "profile": [
            "http://hl7.eu/fhir/laboratory/StructureDefinition/Observation-resultslab-eu-lab"
          ]
        },
        "performer": [
          {
            "display": "The Central European Lab"
          }
        ],
        "category": [
          {
            "coding": [
              {
                "system": "http://terminology.hl7.org/CodeSystem/observation-category",
                "code": "laboratory"
              }
            ]
          }
        ],
        "code": {
          "coding": [
            {
              "code": "6298-4",
              "system": "http://loinc.org",
              "display": "Potassium [Moles/volume] in Blood"
            }
          ],
          "text": "Potassium [Moles/volume] in Blood"
        },
        "valueQuantity": {
          "system": "http://unitsofmeasure.org",
          "value": 3.9,
          "unit": "mmol/L",
          "code": "mmol/L"
        },
        "referenceRange": [
          {
            "low": {
              "value": 3.5,
              "code": "mmol/L",
              "system": "http://unitsofmeasure.org"
            }
          },
          {
            "high": {
              "value": 5.3,
              "code": "mmol/L",
              "system": "http://unitsofmeasure.org"
            }
          }
        ],
        "text": {
          "status": "generated",
          "div": "<div xmlns=\"http://www.w3.org/1999/xhtml\"><table class=\"hl7__eu__lab__report\"><tr><th>Test</th><th>28-Feb-2018</th><th>Reference&#xA0;Range</th><th>Unit</th></tr><tr><td>Potassium [Moles/volume] in Blood</td><td>3.9</td><td>3.5 - 5.3</td><td></td><td>mmol/L</td></tr></table></div>"
        },
        "status": "final",
        "subject": {
          "reference": "urn:uuid:284610ed-4b84-4980-aff9-91ad9678ed59",
          "display": "Θεμιστοκλής Λιναρδάκη"
        },
        "effectiveDateTime": "2018-02-28T06:16:00Z",
        "specimen": {
          "reference": "urn:uuid:6d4631b7-dc18-4c6f-a24a-0e8d0d034c74"
        }
      }
    },
    {
      "fullUrl": "urn:uuid:55415f1a-c89d-4fa2-bebd-a31576ea96e6",
      "resource": {
        "resourceType": "Observation",
        "id": "55415f1a-c89d-4fa2-bebd-a31576ea96e6",
        "meta": {
          "profile": [
            "http://hl7.eu/fhir/laboratory/StructureDefinition/Observation-resultslab-eu-lab"
          ]
        },
        "performer": [
          {
            "display": "The Central European Lab"
          }
        ],
        "category": [
          {
            "coding": [
              {
                "system": "http://terminology.hl7.org/CodeSystem/observation-category",
                "code": "laboratory"
              }
            ]
          }
        ],
        "code": {
          "coding": [
            {
              "code": "2069-3",
              "system": "http://loinc.org",
              "display": "Chloride [Moles/volume] in Blood"
            }
          ],
          "text": "Chloride [Moles/volume] in Blood"
        },
        "valueQuantity": {
          "system": "http://unitsofmeasure.org",
          "value": 102.8,
          "unit": "mmol/L",
          "code": "mmol/L"
        },
        "referenceRange": [
          {
            "low": {
              "value": 98,
              "code": "mmol/L",
              "system": "http://unitsofmeasure.org"
            }
          },
          {
            "high": {
              "value": 110,
              "code": "mmol/L",
              "system": "http://unitsofmeasure.org"
            }
          }
        ],
        "text": {
          "status": "generated",
          "div": "<div xmlns=\"http://www.w3.org/1999/xhtml\"><table class=\"hl7__eu__lab__report\"><tr><th>Test</th><th>28-Feb-2018</th><th>Reference&#xA0;Range</th><th>Unit</th></tr><tr><td>Chloride [Moles/volume] in Blood</td><td>102.8</td><td>98 - 110</td><td></td><td>mmol/L</td></tr></table></div>"
        },
        "status": "final",
        "subject": {
          "reference": "urn:uuid:284610ed-4b84-4980-aff9-91ad9678ed59",
          "display": "Θεμιστοκλής Λιναρδάκη"
        },
        "effectiveDateTime": "2018-02-28T06:16:00Z",
        "specimen": {
          "reference": "urn:uuid:6d4631b7-dc18-4c6f-a24a-0e8d0d034c74"
        }
      }
    },
    {
      "fullUrl": "urn:uuid:3f43ff7a-0eb3-4fdc-a86d-fe7b921ecc8f",
      "resource": {
        "resourceType": "Observation",
        "id": "3f43ff7a-0eb3-4fdc-a86d-fe7b921ecc8f",
        "meta": {
          "profile": [
            "http://hl7.eu/fhir/laboratory/StructureDefinition/Observation-resultslab-eu-lab"
          ]
        },
        "performer": [
          {
            "display": "The Central European Lab"
          }
        ],
        "category": [
          {
            "coding": [
              {
                "system": "http://terminology.hl7.org/CodeSystem/observation-category",
                "code": "laboratory"
              }
            ]
          }
        ],
        "code": {
          "coding": [
            {
              "code": "20565-8",
              "system": "http://loinc.org",
              "display": "Carbon dioxide, total [Moles/volume] in Blood"
            }
          ],
          "text": "Carbon dioxide, total [Moles/volume] in Blood"
        },
        "valueQuantity": {
          "system": "http://unitsofmeasure.org",
          "value": 27.9,
          "unit": "mmol/L",
          "code": "mmol/L"
        },
        "referenceRange": [
          {
            "low": {
              "value": 22,
              "code": "mmol/L",
              "system": "http://unitsofmeasure.org"
            }
          },
          {
            "high": {
              "value": 29,
              "code": "mmol/L",
              "system": "http://unitsofmeasure.org"
            }
          }
        ],
        "text": {
          "status": "generated",
          "div": "<div xmlns=\"http://www.w3.org/1999/xhtml\"><table class=\"hl7__eu__lab__report\"><tr><th>Test</th><th>28-Feb-2018</th><th>Reference&#xA0;Range</th><th>Unit</th></tr><tr><td>Carbon dioxide, total [Moles/volume] in Blood</td><td>27.9</td><td>22 - 29</td><td></td><td>mmol/L</td></tr></table></div>"
        },
        "status": "final",
        "subject": {
          "reference": "urn:uuid:284610ed-4b84-4980-aff9-91ad9678ed59",
          "display": "Θεμιστοκλής Λιναρδάκη"
        },
        "effectiveDateTime": "2018-02-28T06:16:00Z",
        "specimen": {
          "reference": "urn:uuid:6d4631b7-dc18-4c6f-a24a-0e8d0d034c74"
        }
      }
    },
    {
      "fullUrl": "urn:uuid:1caccdbc-27c5-4212-bb25-380fa40d7a4a",
      "resource": {
        "resourceType": "Device",
        "id": "1caccdbc-27c5-4212-bb25-380fa40d7a4a",
        "deviceName": [
          {
            "name": "SYNDERAI Synthetic Generator",
            "type": "manufacturer-name"
          }
        ],
        "version": [
          {
            "value": "5.0"
          }
        ],
        "text": {
          "status": "generated",
          "div": "<div xmlns=\"http://www.w3.org/1999/xhtml\">SYNDERAI Synthetic Generator v5.0</div>"
        },
        "status": "active\"",
        "distinctIdentifier": "synderai-generator-50",
        "manufacturer": "SYNDERAI Project"
      }
    },
    {
      "fullUrl": "urn:uuid:fd26507c-e414-4a13-95a6-93b48466a718",
      "resource": {
        "resourceType": "Provenance",
        "id": "fd26507c-e414-4a13-95a6-93b48466a718",
        "target": [
          {
            "reference": "Patient/284610ed-4b84-4980-aff9-91ad9678ed59"
          },
          {
            "reference": "Bundle/750ba9ea-6ce6-481c-b9ac-88ca50b31598"
          },
          {
            "reference": "Composition/e1d432ae-feac-418a-b433-1cf7bb5b38d0"
          },
          {
            "reference": "PractitionerRole/0888e0a1-3d6e-42af-b35f-0edfc73ffd8a"
          },
          {
            "reference": "Practitioner/6bd3764e-bbcf-4d89-ae23-b4cb529c4191"
          },
          {
            "reference": "PractitionerRole/b309fffc-9ee1-4b67-bdd0-1c29022083b3"
          },
          {
            "reference": "Organization/007a6073-3965-449e-8324-3a686c9a064f"
          }
        ],
        "activity": {
          "text": "Synthetic Example Data Generation"
        },
        "policy": [
          "https://synderai.net/synderai-synthetic-data-policy"
        ],
        "agent": [
          {
            "type": {
              "text": "author"
            },
            "who": {
              "reference": "Device/1caccdbc-27c5-4212-bb25-380fa40d7a4a"
            }
          }
        ],
        "reason": [
          {
            "text": "Interoperability Testing and Training (non-clinical use)"
          }
        ],
        "text": {
          "status": "generated",
          "div": "<div xmlns=\"http://www.w3.org/1999/xhtml\">Provenance for SYNDERAI Synthetic Example Data Resource</div>"
        },
        "recorded": "2018-02-28T07:16:00Z"
      }
    },
    {
      "fullUrl": "urn:uuid:0888e0a1-3d6e-42af-b35f-0edfc73ffd8a",
      "resource": {
        "resourceType": "PractitionerRole",
        "id": "0888e0a1-3d6e-42af-b35f-0edfc73ffd8a",
        "meta": {
          "profile": [
            "http://hl7.eu/fhir/base/StructureDefinition/practitionerRole-eu"
          ]
        },
        "text": {
          "status": "generated",
          "div": "<div xmlns=\"http://www.w3.org/1999/xhtml\">Laboratory Role Id: 0888e0a1-3d6e-42af-b35f-0edfc73ffd8a</div>"
        },
        "practitioner": {
          "reference": "urn:uuid:6bd3764e-bbcf-4d89-ae23-b4cb529c4191"
        }
      }
    },
    {
      "fullUrl": "urn:uuid:6bd3764e-bbcf-4d89-ae23-b4cb529c4191",
      "resource": {
        "resourceType": "Practitioner",
        "id": "6bd3764e-bbcf-4d89-ae23-b4cb529c4191",
        "meta": {
          "profile": [
            "http://hl7.eu/fhir/base/StructureDefinition/practitioner-eu"
          ]
        },
        "identifier": [
          {
            "assigner": {
              "display": "HL7 Europe"
            },
            "system": "urn:oid:2.16.840.1.113883.2.51.999",
            "value": "84f2a6a0-ad92-4b7f-8676-ea4fc977d76a"
          }
        ],
        "name": [
          {
            "prefix": [
              "dr"
            ],
            "given": [
              "Ex"
            ],
            "family": "Ample"
          }
        ],
        "address": [
          {
            "line": [
              "Laboratoire Central Européenne",
              "Boulevard du Jardin Botanique 32"
            ],
            "postalCode": "1000",
            "city": "Brussels",
            "country": "Belgium"
          }
        ],
        "text": {
          "status": "generated",
          "div": "<div xmlns=\"http://www.w3.org/1999/xhtml\">Laboratory: Laboratoire Central Européenne, 1000 Brussels, Belgium</div>"
        }
      }
    }
  ],
  "type": "document",
  "timestamp": "2018-02-28T07:16:00Z"
}
