{
  "resourceType": "Bundle",
  "id": "9517474f-03ac-40a8-af4b-307227a14ea2",
  "meta": {
    "profile": [
      "http://hl7.eu/fhir/laboratory/StructureDefinition/Bundle-eu-lab"
    ]
  },
  "identifier": {
    "assigner": {
      "display": "HL7 Europe"
    },
    "system": "urn:oid:2.16.840.1.113883.2.51.999",
    "value": "dea53dbf-e513-49f4-8562-39589c773b61"
  },
  "entry": [
    {
      "fullUrl": "urn:uuid:9cd46014-92b0-4235-9dd9-9ec310bd7092",
      "resource": {
        "resourceType": "Composition",
        "id": "9cd46014-92b0-4235-9dd9-9ec310bd7092",
        "meta": {
          "profile": [
            "http://hl7.eu/fhir/laboratory/StructureDefinition/Composition-eu-lab"
          ]
        },
        "identifier": {
          "assigner": {
            "display": "HL7 Europe"
          },
          "system": "urn:oid:2.16.840.1.113883.2.51.999",
          "value": "a783ea2f-aebf-475e-92a8-fdd91521bc35"
        },
        "author": [
          {
            "reference": "urn:uuid:01e3fe8b-6fd0-4a97-81f1-6e396c9a4fe9"
          }
        ],
        "category": [
          {
            "coding": [
              {
                "code": "26436-6",
                "system": "http://loinc.org",
                "display": "Laboratory studies (set)"
              }
            ]
          }
        ],
        "type": {
          "coding": [
            {
              "code": "11502-2",
              "system": "http://loinc.org",
              "display": "Laboratory report"
            }
          ],
          "text": "Laboratory Report"
        },
        "section": [
          {
            "code": {
              "coding": [
                {
                  "code": "26436-6",
                  "system": "http://loinc.org",
                  "display": "Laboratory studies (set)"
                }
              ],
              "text": "Laboratory studies"
            },
            "section": [
              {
                "code": {
                  "coding": [
                    {
                      "code": "$18719-5",
                      "system": "http://loinc.org",
                      "display": "Chemistry studies (set)"
                    }
                  ],
                  "text": "Chemistry"
                },
                "entry": [
                  {
                    "reference": "urn:uuid:d8bbca8c-03dc-40bf-9f19-196ccd6f8d43"
                  },
                  {
                    "reference": "urn:uuid:023ff2e8-960f-4039-88ca-55f5887c8125"
                  },
                  {
                    "reference": "urn:uuid:ed8d4c24-7a1c-4408-a0c8-f0d837c309b1"
                  },
                  {
                    "reference": "urn:uuid:989f2ba8-bf1e-4ad3-96af-322317c4eb9e"
                  },
                  {
                    "reference": "urn:uuid:b1e06e6b-bb9c-4fce-8332-bd714bf1d2ee"
                  },
                  {
                    "reference": "urn:uuid:c6187f38-8928-4851-8049-b46f74a0081b"
                  },
                  {
                    "reference": "urn:uuid:cde62517-ed60-4beb-849e-5c8588edc7d6"
                  },
                  {
                    "reference": "urn:uuid:25e1f16e-95a3-4fa3-b408-eb10e3d3bc19"
                  },
                  {
                    "reference": "urn:uuid:08c6885d-a03e-4d7f-bfa9-62412d4b4e12"
                  }
                ],
                "text": {
                  "status": "generated",
                  "div": "<div xmlns=\"http://www.w3.org/1999/xhtml\"><h3>Chemistry</h3><table class=\"hl7__eu__lab__report\"><thead><tr><th>Test</th><th>16-FEB-2022</th><th>Reference&#xA0;Range</th><th>Unit</th></tr></thead><tbody><tr><td>Hemoglobin A1c/Hemoglobin.total in Blood</td><td>5.8</td><td>4 - 6</td><td>%</td></tr><tr><td>Glucose [Mass/volume] in Blood</td><td><strong>64.9 L</strong></td><td>70 - 140</td><td>mg/dL</td></tr><tr><td>Urea nitrogen [Mass/volume] in Blood</td><td>7.3</td><td>7 - 50</td><td>mg/dL</td></tr><tr><td>Creatinine [Mass/volume] in Blood</td><td>0.6</td><td>0.5 - 1.3</td><td>mg/dL</td></tr><tr><td>Calcium [Mass/volume] in Blood</td><td>9.0</td><td>8.5 - 10.4</td><td>mg/dL</td></tr><tr><td>Sodium [Moles/volume] in Blood</td><td>142.6</td><td>135 - 145</td><td>mmol/L</td></tr><tr><td>Potassium [Moles/volume] in Blood</td><td>4.0</td><td>3.5 - 5.3</td><td>mmol/L</td></tr><tr><td>Chloride [Moles/volume] in Blood</td><td>105.7</td><td>98 - 110</td><td>mmol/L</td></tr><tr><td>Carbon dioxide, total [Moles/volume] in Blood</td><td>27.8</td><td>22 - 32</td><td>mmol/L</td></tr></tbody></table></div>"
                },
                "title": "Chemistry"
              }
            ],
            "title": "Laboratory Report"
          },
          {
            "text": {
              "status": "generated",
              "div": "<div xmlns=\"http://www.w3.org/1999/xhtml\"><h3>Annotation</h3><table class=\"hl7__eu__lab__report\"><tr><th>Conclusion and Recommendations based on this report and previous findings known to us</th></tr><tr><td>All parameters are within normal limits except for mildly decreased fasting glucose (64.9 mg/dL), which may indicate possible hypoglycemia; clinical correlation is recommended. Renal function, electrolytes, and HbA1c are unremarkable. No acute laboratory abnormalities detected.</td></tr></table></div>"
            },
            "code": {
              "coding": [
                {
                  "system": "http://loinc.org",
                  "code": "48767-8",
                  "display": "Annotation comment"
                }
              ]
            },
            "title": "Annotation comment"
          }
        ],
        "status": "final",
        "subject": {
          "reference": "urn:uuid:99dac8f3-42f8-456d-8312-8cd3d9e6f15a",
          "display": "Jele Jurković"
        },
        "date": "2022-02-16T19:07:38Z",
        "title": "Laboratory Report",
        "confidentiality": "N"
      }
    },
    {
      "fullUrl": "urn:uuid:81d96e8d-0abb-4d35-95de-f4662b2ce164",
      "resource": {
        "resourceType": "DiagnosticReport",
        "id": "81d96e8d-0abb-4d35-95de-f4662b2ce164",
        "meta": {
          "profile": [
            "http://hl7.eu/fhir/laboratory/StructureDefinition/DiagnosticReport-eu-lab"
          ]
        },
        "identifier": [
          {
            "assigner": {
              "display": "HL7 Europe"
            },
            "system": "urn:oid:2.16.840.1.113883.2.51.999",
            "value": "8432c561-27fd-4fc5-9b70-2f93e44e93c6"
          }
        ],
        "extension": [
          {
            "url": "http://hl7.org/fhir/5.0/StructureDefinition/extension-DiagnosticReport.composition",
            "valueReference": {
              "reference": "urn:uuid:a783ea2f-aebf-475e-92a8-fdd91521bc35"
            }
          }
        ],
        "category": [
          {
            "coding": [
              {
                "code": "26436-6",
                "system": "http://loinc.org",
                "display": "Laboratory studies (set)"
              }
            ]
          }
        ],
        "specimen": [
          {
            "reference": "urn:uuid:ea32d0d8-ac6b-4fd4-a32f-dec9cef201b2"
          }
        ],
        "result": [
          {
            "reference": "urn:uuid:d8bbca8c-03dc-40bf-9f19-196ccd6f8d43"
          },
          {
            "reference": "urn:uuid:023ff2e8-960f-4039-88ca-55f5887c8125"
          },
          {
            "reference": "urn:uuid:ed8d4c24-7a1c-4408-a0c8-f0d837c309b1"
          },
          {
            "reference": "urn:uuid:989f2ba8-bf1e-4ad3-96af-322317c4eb9e"
          },
          {
            "reference": "urn:uuid:b1e06e6b-bb9c-4fce-8332-bd714bf1d2ee"
          },
          {
            "reference": "urn:uuid:c6187f38-8928-4851-8049-b46f74a0081b"
          },
          {
            "reference": "urn:uuid:cde62517-ed60-4beb-849e-5c8588edc7d6"
          },
          {
            "reference": "urn:uuid:25e1f16e-95a3-4fa3-b408-eb10e3d3bc19"
          },
          {
            "reference": "urn:uuid:08c6885d-a03e-4d7f-bfa9-62412d4b4e12"
          }
        ],
        "status": "registered",
        "code": {
          "coding": [
            {
              "code": "11502-2",
              "system": "http://loinc.org",
              "display": "Laboratory report"
            }
          ]
        },
        "subject": {
          "reference": "urn:uuid:99dac8f3-42f8-456d-8312-8cd3d9e6f15a",
          "display": "Jele Jurković"
        }
      }
    },
    {
      "fullUrl": "urn:uuid:99dac8f3-42f8-456d-8312-8cd3d9e6f15a",
      "resource": {
        "resourceType": "Patient",
        "id": "99dac8f3-42f8-456d-8312-8cd3d9e6f15a",
        "meta": {
          "security": [
            {
              "system": "http://terminology.hl7.org/CodeSystem/v3-ActReason",
              "code": "HTEST"
            },
            {
              "system": "http://terminology.hl7.org/CodeSystem/v3-ActReason",
              "code": "TRAIN"
            }
          ],
          "tag": [
            {
              "system": "https://synderai.net/fhir/CodeSystem/tags",
              "code": "synthetic",
              "display": "SYNDERAI Synthetic data"
            }
          ],
          "profile": [
            "http://hl7.eu/fhir/base/StructureDefinition/patient-eu-core"
          ]
        },
        "identifier": [
          {
            "type": {
              "coding": [
                {
                  "code": "PT",
                  "system": "http://terminology.hl7.org/CodeSystem/v2-0203"
                }
              ]
            },
            "system": "http://ec.europa.eu/identifier/eci",
            "value": "3583-291434-1"
          },
          {
            "type": {
              "coding": [
                {
                  "code": "MR",
                  "system": "http://terminology.hl7.org/CodeSystem/v2-0203"
                }
              ]
            },
            "system": "http://local.setting.eu/identifier",
            "value": "9d4fea2d-eece-b99f-3e16-832f0f5813f5"
          }
        ],
        "name": [
          {
            "family": "Jurković"
          },
          {
            "given": [
              "Jele"
            ]
          },
          {
            "text": "Jele Jurković"
          }
        ],
        "address": [
          {
            "line": [
              "Klesarski put 7b/8"
            ],
            "use": "home",
            "type": "physical",
            "postalCode": "34310",
            "city": "Pleternica",
            "country": "Croatia"
          }
        ],
        "telecom": [
          {
            "system": "phone",
            "value": "021 083 354"
          }
        ],
        "extension": [
          {
            "url": "http://hl7.org/fhir/StructureDefinition/patient-nationality",
            "valueCodeableConcept": {
              "coding": [
                {
                  "code": "HR",
                  "system": "http://hl7.org/fhir/ValueSet/country"
                }
              ]
            }
          }
        ],
        "text": {
          "status": "generated",
          "div": "<div xmlns=\"http://www.w3.org/1999/xhtml\"><table class=\"hl7__ips\"><tr><td>Jele Jurković</td><td>female</td><td>07-Jan-1953</td></tr></table></div>"
        },
        "gender": "female",
        "birthDate": "1953-01-07"
      }
    },
    {
      "fullUrl": "urn:uuid:5aa2efe6-5b6c-4bd6-9919-d1cef7dfb618",
      "resource": {
        "resourceType": "ServiceRequest",
        "id": "5aa2efe6-5b6c-4bd6-9919-d1cef7dfb618",
        "meta": {
          "profile": [
            "http://hl7.eu/fhir/laboratory/StructureDefinition/ServiceRequest-eu-lab"
          ]
        },
        "identifier": [
          {
            "system": "http://example.org",
            "value": "5a83f709-4e89-4d27-82ed-952ccb6a8b84"
          }
        ],
        "specimen": [
          {
            "reference": "urn:uuid:ea32d0d8-ac6b-4fd4-a32f-dec9cef201b2"
          }
        ],
        "reasonCode": [
          {
            "coding": [
              {
                "code": "64859006",
                "system": "http://snomed.info/sct",
                "display": "Osteoporosis"
              }
            ]
          },
          {
            "coding": [
              {
                "code": "6525002",
                "system": "http://snomed.info/sct",
                "display": "Dependent drug abuse"
              }
            ]
          },
          {
            "coding": [
              {
                "code": "15777000",
                "system": "http://snomed.info/sct",
                "display": "Prediabetes"
              }
            ]
          }
        ],
        "status": "active",
        "intent": "order",
        "code": {
          "coding": [
            {
              "code": "108252007",
              "system": "http://snomed.info/sct",
              "display": "Laboratory procedure"
            }
          ]
        },
        "subject": {
          "reference": "urn:uuid:99dac8f3-42f8-456d-8312-8cd3d9e6f15a",
          "display": "Jele Jurković"
        },
        "requester": {
          "reference": "urn:uuid:9ad163ee-2937-469e-8747-943c27be0843"
        }
      }
    },
    {
      "fullUrl": "urn:uuid:9ad163ee-2937-469e-8747-943c27be0843",
      "resource": {
        "resourceType": "PractitionerRole",
        "id": "9ad163ee-2937-469e-8747-943c27be0843",
        "meta": {
          "profile": [
            "http://hl7.eu/fhir/base/StructureDefinition/practitionerRole-eu"
          ]
        },
        "text": {
          "status": "generated",
          "div": "<div xmlns=\"http://www.w3.org/1999/xhtml\">Provider Role Id: 9ad163ee-2937-469e-8747-943c27be0843</div>"
        },
        "organization": {
          "reference": "urn:uuid:993e7ed7-2d89-4815-bbe3-5dd7e97d0772"
        }
      }
    },
    {
      "fullUrl": "urn:uuid:993e7ed7-2d89-4815-bbe3-5dd7e97d0772",
      "resource": {
        "resourceType": "Organization",
        "id": "993e7ed7-2d89-4815-bbe3-5dd7e97d0772",
        "meta": {
          "profile": [
            "http://hl7.eu/fhir/base/StructureDefinition/organization-eu"
          ]
        },
        "identifier": [
          {
            "assigner": {
              "display": "HL7 Europe"
            },
            "system": "urn:oid:2.16.840.1.113883.2.51.999",
            "value": "a7b90efc-ab6c-48f8-a768-62ced96d385e"
          }
        ],
        "address": [
          {
            "line": [
              "Osječka ulica 107"
            ],
            "city": "Požega",
            "postalCode": "34000",
            "country": "Croatia"
          }
        ],
        "text": {
          "status": "generated",
          "div": "<div xmlns=\"http://www.w3.org/1999/xhtml\">Provider Organization: Opća županijska bolnica Požega</div>"
        },
        "name": "Opća županijska bolnica Požega"
      }
    },
    {
      "fullUrl": "urn:uuid:ea32d0d8-ac6b-4fd4-a32f-dec9cef201b2",
      "resource": {
        "resourceType": "Specimen",
        "id": "ea32d0d8-ac6b-4fd4-a32f-dec9cef201b2",
        "meta": {
          "profile": [
            "http://hl7.eu/fhir/laboratory/StructureDefinition/Specimen-eu-lab"
          ]
        },
        "collection": {
          "collectedDateTime": "2022-02-16"
        },
        "text": {
          "status": "generated",
          "div": "<div xmlns=\"http://www.w3.org/1999/xhtml\"><table class=\"hl7__eu__lab__report\"><tr><th>Specimen</th><th>Collection Date</th></tr><tr><td>Whole blood specimen (specimen)</td><td><span class=\"nb\">16-Feb-2022</span></td></tr></table></div>"
        },
        "type": {
          "coding": [
            {
              "code": "258580003",
              "system": "http://snomed.info/sct",
              "display": "Whole blood specimen (specimen)"
            }
          ]
        }
      }
    },
    {
      "fullUrl": "urn:uuid:d8bbca8c-03dc-40bf-9f19-196ccd6f8d43",
      "resource": {
        "resourceType": "Observation",
        "id": "d8bbca8c-03dc-40bf-9f19-196ccd6f8d43",
        "meta": {
          "profile": [
            "http://hl7.eu/fhir/laboratory/StructureDefinition/Observation-resultslab-eu-lab"
          ]
        },
        "performer": [
          {
            "display": "The Central European Lab"
          }
        ],
        "category": [
          {
            "coding": [
              {
                "system": "http://terminology.hl7.org/CodeSystem/observation-category",
                "code": "laboratory"
              }
            ]
          }
        ],
        "code": {
          "coding": [
            {
              "code": "4548-4",
              "system": "http://loinc.org",
              "display": "Hemoglobin A1c/Hemoglobin.total in Blood"
            }
          ],
          "text": "Hemoglobin A1c/Hemoglobin.total in Blood"
        },
        "valueQuantity": {
          "system": "http://unitsofmeasure.org",
          "value": 5.8,
          "unit": "%",
          "code": "%"
        },
        "referenceRange": [
          {
            "low": {
              "value": 4,
              "code": "%",
              "system": "http://unitsofmeasure.org"
            }
          },
          {
            "high": {
              "value": 6,
              "code": "%",
              "system": "http://unitsofmeasure.org"
            }
          }
        ],
        "text": {
          "status": "generated",
          "div": "<div xmlns=\"http://www.w3.org/1999/xhtml\"><table class=\"hl7__eu__lab__report\"><tr><th>Test</th><th>16-Feb-2022</th><th>Reference&#xA0;Range</th><th>Unit</th></tr><tr><td>Hemoglobin A1c/Hemoglobin.total in Blood</td><td>5.8</td><td>4 - 6</td><td></td><td>%</td></tr></table></div>"
        },
        "status": "final",
        "subject": {
          "reference": "urn:uuid:99dac8f3-42f8-456d-8312-8cd3d9e6f15a",
          "display": "Jele Jurković"
        },
        "effectiveDateTime": "2022-02-16T18:07:38Z",
        "specimen": {
          "reference": "urn:uuid:ea32d0d8-ac6b-4fd4-a32f-dec9cef201b2"
        }
      }
    },
    {
      "fullUrl": "urn:uuid:023ff2e8-960f-4039-88ca-55f5887c8125",
      "resource": {
        "resourceType": "Observation",
        "id": "023ff2e8-960f-4039-88ca-55f5887c8125",
        "meta": {
          "profile": [
            "http://hl7.eu/fhir/laboratory/StructureDefinition/Observation-resultslab-eu-lab"
          ]
        },
        "performer": [
          {
            "display": "The Central European Lab"
          }
        ],
        "category": [
          {
            "coding": [
              {
                "system": "http://terminology.hl7.org/CodeSystem/observation-category",
                "code": "laboratory"
              }
            ]
          }
        ],
        "code": {
          "coding": [
            {
              "code": "2339-0",
              "system": "http://loinc.org",
              "display": "Glucose [Mass/volume] in Blood"
            }
          ],
          "text": "Glucose [Mass/volume] in Blood"
        },
        "valueQuantity": {
          "system": "http://unitsofmeasure.org",
          "value": 64.9,
          "unit": "mg/dL",
          "code": "mg/dL"
        },
        "referenceRange": [
          {
            "low": {
              "value": 70,
              "code": "mg/dL",
              "system": "http://unitsofmeasure.org"
            }
          },
          {
            "high": {
              "value": 140,
              "code": "mg/dL",
              "system": "http://unitsofmeasure.org"
            }
          }
        ],
        "interpretation": [
          {
            "coding": [
              {
                "code": "L",
                "system": "http://terminology.hl7.org/CodeSystem/v3-ObservationInterpretation",
                "display": "Low"
              }
            ]
          }
        ],
        "text": {
          "status": "generated",
          "div": "<div xmlns=\"http://www.w3.org/1999/xhtml\"><table class=\"hl7__eu__lab__report\"><tr><th>Test</th><th>16-Feb-2022</th><th>Reference&#xA0;Range</th><th>Unit</th></tr><tr><td>Glucose [Mass/volume] in Blood</td><td>64.9</td><td>70 - 140</td><td>L</td><td>mg/dL</td></tr></table></div>"
        },
        "status": "final",
        "subject": {
          "reference": "urn:uuid:99dac8f3-42f8-456d-8312-8cd3d9e6f15a",
          "display": "Jele Jurković"
        },
        "effectiveDateTime": "2022-02-16T18:07:38Z",
        "specimen": {
          "reference": "urn:uuid:ea32d0d8-ac6b-4fd4-a32f-dec9cef201b2"
        }
      }
    },
    {
      "fullUrl": "urn:uuid:ed8d4c24-7a1c-4408-a0c8-f0d837c309b1",
      "resource": {
        "resourceType": "Observation",
        "id": "ed8d4c24-7a1c-4408-a0c8-f0d837c309b1",
        "meta": {
          "profile": [
            "http://hl7.eu/fhir/laboratory/StructureDefinition/Observation-resultslab-eu-lab"
          ]
        },
        "performer": [
          {
            "display": "The Central European Lab"
          }
        ],
        "category": [
          {
            "coding": [
              {
                "system": "http://terminology.hl7.org/CodeSystem/observation-category",
                "code": "laboratory"
              }
            ]
          }
        ],
        "code": {
          "coding": [
            {
              "code": "6299-2",
              "system": "http://loinc.org",
              "display": "Urea nitrogen [Mass/volume] in Blood"
            }
          ],
          "text": "Urea nitrogen [Mass/volume] in Blood"
        },
        "valueQuantity": {
          "system": "http://unitsofmeasure.org",
          "value": 7.3,
          "unit": "mg/dL",
          "code": "mg/dL"
        },
        "referenceRange": [
          {
            "low": {
              "value": 7,
              "code": "mg/dL",
              "system": "http://unitsofmeasure.org"
            }
          },
          {
            "high": {
              "value": 50,
              "code": "mg/dL",
              "system": "http://unitsofmeasure.org"
            }
          }
        ],
        "text": {
          "status": "generated",
          "div": "<div xmlns=\"http://www.w3.org/1999/xhtml\"><table class=\"hl7__eu__lab__report\"><tr><th>Test</th><th>16-Feb-2022</th><th>Reference&#xA0;Range</th><th>Unit</th></tr><tr><td>Urea nitrogen [Mass/volume] in Blood</td><td>7.3</td><td>7 - 50</td><td></td><td>mg/dL</td></tr></table></div>"
        },
        "status": "final",
        "subject": {
          "reference": "urn:uuid:99dac8f3-42f8-456d-8312-8cd3d9e6f15a",
          "display": "Jele Jurković"
        },
        "effectiveDateTime": "2022-02-16T18:07:38Z",
        "specimen": {
          "reference": "urn:uuid:ea32d0d8-ac6b-4fd4-a32f-dec9cef201b2"
        }
      }
    },
    {
      "fullUrl": "urn:uuid:989f2ba8-bf1e-4ad3-96af-322317c4eb9e",
      "resource": {
        "resourceType": "Observation",
        "id": "989f2ba8-bf1e-4ad3-96af-322317c4eb9e",
        "meta": {
          "profile": [
            "http://hl7.eu/fhir/laboratory/StructureDefinition/Observation-resultslab-eu-lab"
          ]
        },
        "performer": [
          {
            "display": "The Central European Lab"
          }
        ],
        "category": [
          {
            "coding": [
              {
                "system": "http://terminology.hl7.org/CodeSystem/observation-category",
                "code": "laboratory"
              }
            ]
          }
        ],
        "code": {
          "coding": [
            {
              "code": "38483-4",
              "system": "http://loinc.org",
              "display": "Creatinine [Mass/volume] in Blood"
            }
          ],
          "text": "Creatinine [Mass/volume] in Blood"
        },
        "valueQuantity": {
          "system": "http://unitsofmeasure.org",
          "value": 0.6,
          "unit": "mg/dL",
          "code": "mg/dL"
        },
        "referenceRange": [
          {
            "low": {
              "value": 0.5,
              "code": "mg/dL",
              "system": "http://unitsofmeasure.org"
            }
          },
          {
            "high": {
              "value": 1.3,
              "code": "mg/dL",
              "system": "http://unitsofmeasure.org"
            }
          }
        ],
        "text": {
          "status": "generated",
          "div": "<div xmlns=\"http://www.w3.org/1999/xhtml\"><table class=\"hl7__eu__lab__report\"><tr><th>Test</th><th>16-Feb-2022</th><th>Reference&#xA0;Range</th><th>Unit</th></tr><tr><td>Creatinine [Mass/volume] in Blood</td><td>0.6</td><td>0.5 - 1.3</td><td></td><td>mg/dL</td></tr></table></div>"
        },
        "status": "final",
        "subject": {
          "reference": "urn:uuid:99dac8f3-42f8-456d-8312-8cd3d9e6f15a",
          "display": "Jele Jurković"
        },
        "effectiveDateTime": "2022-02-16T18:07:38Z",
        "specimen": {
          "reference": "urn:uuid:ea32d0d8-ac6b-4fd4-a32f-dec9cef201b2"
        }
      }
    },
    {
      "fullUrl": "urn:uuid:b1e06e6b-bb9c-4fce-8332-bd714bf1d2ee",
      "resource": {
        "resourceType": "Observation",
        "id": "b1e06e6b-bb9c-4fce-8332-bd714bf1d2ee",
        "meta": {
          "profile": [
            "http://hl7.eu/fhir/laboratory/StructureDefinition/Observation-resultslab-eu-lab"
          ]
        },
        "performer": [
          {
            "display": "The Central European Lab"
          }
        ],
        "category": [
          {
            "coding": [
              {
                "system": "http://terminology.hl7.org/CodeSystem/observation-category",
                "code": "laboratory"
              }
            ]
          }
        ],
        "code": {
          "coding": [
            {
              "code": "49765-1",
              "system": "http://loinc.org",
              "display": "Calcium [Mass/volume] in Blood"
            }
          ],
          "text": "Calcium [Mass/volume] in Blood"
        },
        "valueQuantity": {
          "system": "http://unitsofmeasure.org",
          "value": 9,
          "unit": "mg/dL",
          "code": "mg/dL"
        },
        "referenceRange": [
          {
            "low": {
              "value": 8.5,
              "code": "mg/dL",
              "system": "http://unitsofmeasure.org"
            }
          },
          {
            "high": {
              "value": 10.4,
              "code": "mg/dL",
              "system": "http://unitsofmeasure.org"
            }
          }
        ],
        "text": {
          "status": "generated",
          "div": "<div xmlns=\"http://www.w3.org/1999/xhtml\"><table class=\"hl7__eu__lab__report\"><tr><th>Test</th><th>16-Feb-2022</th><th>Reference&#xA0;Range</th><th>Unit</th></tr><tr><td>Calcium [Mass/volume] in Blood</td><td>9.0</td><td>8.5 - 10.4</td><td></td><td>mg/dL</td></tr></table></div>"
        },
        "status": "final",
        "subject": {
          "reference": "urn:uuid:99dac8f3-42f8-456d-8312-8cd3d9e6f15a",
          "display": "Jele Jurković"
        },
        "effectiveDateTime": "2022-02-16T18:07:38Z",
        "specimen": {
          "reference": "urn:uuid:ea32d0d8-ac6b-4fd4-a32f-dec9cef201b2"
        }
      }
    },
    {
      "fullUrl": "urn:uuid:c6187f38-8928-4851-8049-b46f74a0081b",
      "resource": {
        "resourceType": "Observation",
        "id": "c6187f38-8928-4851-8049-b46f74a0081b",
        "meta": {
          "profile": [
            "http://hl7.eu/fhir/laboratory/StructureDefinition/Observation-resultslab-eu-lab"
          ]
        },
        "performer": [
          {
            "display": "The Central European Lab"
          }
        ],
        "category": [
          {
            "coding": [
              {
                "system": "http://terminology.hl7.org/CodeSystem/observation-category",
                "code": "laboratory"
              }
            ]
          }
        ],
        "code": {
          "coding": [
            {
              "code": "2947-0",
              "system": "http://loinc.org",
              "display": "Sodium [Moles/volume] in Blood"
            }
          ],
          "text": "Sodium [Moles/volume] in Blood"
        },
        "valueQuantity": {
          "system": "http://unitsofmeasure.org",
          "value": 142.6,
          "unit": "mmol/L",
          "code": "mmol/L"
        },
        "referenceRange": [
          {
            "low": {
              "value": 135,
              "code": "mmol/L",
              "system": "http://unitsofmeasure.org"
            }
          },
          {
            "high": {
              "value": 145,
              "code": "mmol/L",
              "system": "http://unitsofmeasure.org"
            }
          }
        ],
        "text": {
          "status": "generated",
          "div": "<div xmlns=\"http://www.w3.org/1999/xhtml\"><table class=\"hl7__eu__lab__report\"><tr><th>Test</th><th>16-Feb-2022</th><th>Reference&#xA0;Range</th><th>Unit</th></tr><tr><td>Sodium [Moles/volume] in Blood</td><td>142.6</td><td>135 - 145</td><td></td><td>mmol/L</td></tr></table></div>"
        },
        "status": "final",
        "subject": {
          "reference": "urn:uuid:99dac8f3-42f8-456d-8312-8cd3d9e6f15a",
          "display": "Jele Jurković"
        },
        "effectiveDateTime": "2022-02-16T18:07:38Z",
        "specimen": {
          "reference": "urn:uuid:ea32d0d8-ac6b-4fd4-a32f-dec9cef201b2"
        }
      }
    },
    {
      "fullUrl": "urn:uuid:cde62517-ed60-4beb-849e-5c8588edc7d6",
      "resource": {
        "resourceType": "Observation",
        "id": "cde62517-ed60-4beb-849e-5c8588edc7d6",
        "meta": {
          "profile": [
            "http://hl7.eu/fhir/laboratory/StructureDefinition/Observation-resultslab-eu-lab"
          ]
        },
        "performer": [
          {
            "display": "The Central European Lab"
          }
        ],
        "category": [
          {
            "coding": [
              {
                "system": "http://terminology.hl7.org/CodeSystem/observation-category",
                "code": "laboratory"
              }
            ]
          }
        ],
        "code": {
          "coding": [
            {
              "code": "6298-4",
              "system": "http://loinc.org",
              "display": "Potassium [Moles/volume] in Blood"
            }
          ],
          "text": "Potassium [Moles/volume] in Blood"
        },
        "valueQuantity": {
          "system": "http://unitsofmeasure.org",
          "value": 4,
          "unit": "mmol/L",
          "code": "mmol/L"
        },
        "referenceRange": [
          {
            "low": {
              "value": 3.5,
              "code": "mmol/L",
              "system": "http://unitsofmeasure.org"
            }
          },
          {
            "high": {
              "value": 5.3,
              "code": "mmol/L",
              "system": "http://unitsofmeasure.org"
            }
          }
        ],
        "text": {
          "status": "generated",
          "div": "<div xmlns=\"http://www.w3.org/1999/xhtml\"><table class=\"hl7__eu__lab__report\"><tr><th>Test</th><th>16-Feb-2022</th><th>Reference&#xA0;Range</th><th>Unit</th></tr><tr><td>Potassium [Moles/volume] in Blood</td><td>4.0</td><td>3.5 - 5.3</td><td></td><td>mmol/L</td></tr></table></div>"
        },
        "status": "final",
        "subject": {
          "reference": "urn:uuid:99dac8f3-42f8-456d-8312-8cd3d9e6f15a",
          "display": "Jele Jurković"
        },
        "effectiveDateTime": "2022-02-16T18:07:38Z",
        "specimen": {
          "reference": "urn:uuid:ea32d0d8-ac6b-4fd4-a32f-dec9cef201b2"
        }
      }
    },
    {
      "fullUrl": "urn:uuid:25e1f16e-95a3-4fa3-b408-eb10e3d3bc19",
      "resource": {
        "resourceType": "Observation",
        "id": "25e1f16e-95a3-4fa3-b408-eb10e3d3bc19",
        "meta": {
          "profile": [
            "http://hl7.eu/fhir/laboratory/StructureDefinition/Observation-resultslab-eu-lab"
          ]
        },
        "performer": [
          {
            "display": "The Central European Lab"
          }
        ],
        "category": [
          {
            "coding": [
              {
                "system": "http://terminology.hl7.org/CodeSystem/observation-category",
                "code": "laboratory"
              }
            ]
          }
        ],
        "code": {
          "coding": [
            {
              "code": "2069-3",
              "system": "http://loinc.org",
              "display": "Chloride [Moles/volume] in Blood"
            }
          ],
          "text": "Chloride [Moles/volume] in Blood"
        },
        "valueQuantity": {
          "system": "http://unitsofmeasure.org",
          "value": 105.7,
          "unit": "mmol/L",
          "code": "mmol/L"
        },
        "referenceRange": [
          {
            "low": {
              "value": 98,
              "code": "mmol/L",
              "system": "http://unitsofmeasure.org"
            }
          },
          {
            "high": {
              "value": 110,
              "code": "mmol/L",
              "system": "http://unitsofmeasure.org"
            }
          }
        ],
        "text": {
          "status": "generated",
          "div": "<div xmlns=\"http://www.w3.org/1999/xhtml\"><table class=\"hl7__eu__lab__report\"><tr><th>Test</th><th>16-Feb-2022</th><th>Reference&#xA0;Range</th><th>Unit</th></tr><tr><td>Chloride [Moles/volume] in Blood</td><td>105.7</td><td>98 - 110</td><td></td><td>mmol/L</td></tr></table></div>"
        },
        "status": "final",
        "subject": {
          "reference": "urn:uuid:99dac8f3-42f8-456d-8312-8cd3d9e6f15a",
          "display": "Jele Jurković"
        },
        "effectiveDateTime": "2022-02-16T18:07:38Z",
        "specimen": {
          "reference": "urn:uuid:ea32d0d8-ac6b-4fd4-a32f-dec9cef201b2"
        }
      }
    },
    {
      "fullUrl": "urn:uuid:08c6885d-a03e-4d7f-bfa9-62412d4b4e12",
      "resource": {
        "resourceType": "Observation",
        "id": "08c6885d-a03e-4d7f-bfa9-62412d4b4e12",
        "meta": {
          "profile": [
            "http://hl7.eu/fhir/laboratory/StructureDefinition/Observation-resultslab-eu-lab"
          ]
        },
        "performer": [
          {
            "display": "The Central European Lab"
          }
        ],
        "category": [
          {
            "coding": [
              {
                "system": "http://terminology.hl7.org/CodeSystem/observation-category",
                "code": "laboratory"
              }
            ]
          }
        ],
        "code": {
          "coding": [
            {
              "code": "20565-8",
              "system": "http://loinc.org",
              "display": "Carbon dioxide, total [Moles/volume] in Blood"
            }
          ],
          "text": "Carbon dioxide, total [Moles/volume] in Blood"
        },
        "valueQuantity": {
          "system": "http://unitsofmeasure.org",
          "value": 27.8,
          "unit": "mmol/L",
          "code": "mmol/L"
        },
        "referenceRange": [
          {
            "low": {
              "value": 22,
              "code": "mmol/L",
              "system": "http://unitsofmeasure.org"
            }
          },
          {
            "high": {
              "value": 32,
              "code": "mmol/L",
              "system": "http://unitsofmeasure.org"
            }
          }
        ],
        "text": {
          "status": "generated",
          "div": "<div xmlns=\"http://www.w3.org/1999/xhtml\"><table class=\"hl7__eu__lab__report\"><tr><th>Test</th><th>16-Feb-2022</th><th>Reference&#xA0;Range</th><th>Unit</th></tr><tr><td>Carbon dioxide, total [Moles/volume] in Blood</td><td>27.8</td><td>22 - 32</td><td></td><td>mmol/L</td></tr></table></div>"
        },
        "status": "final",
        "subject": {
          "reference": "urn:uuid:99dac8f3-42f8-456d-8312-8cd3d9e6f15a",
          "display": "Jele Jurković"
        },
        "effectiveDateTime": "2022-02-16T18:07:38Z",
        "specimen": {
          "reference": "urn:uuid:ea32d0d8-ac6b-4fd4-a32f-dec9cef201b2"
        }
      }
    },
    {
      "fullUrl": "urn:uuid:6492ad9a-cfe6-4e72-b21d-50c5a2e3780e",
      "resource": {
        "resourceType": "Device",
        "id": "6492ad9a-cfe6-4e72-b21d-50c5a2e3780e",
        "deviceName": [
          {
            "name": "SYNDERAI Synthetic Generator",
            "type": "manufacturer-name"
          }
        ],
        "version": [
          {
            "value": "5.0"
          }
        ],
        "text": {
          "status": "generated",
          "div": "<div xmlns=\"http://www.w3.org/1999/xhtml\">SYNDERAI Synthetic Generator v5.0</div>"
        },
        "status": "active\"",
        "distinctIdentifier": "synderai-generator-50",
        "manufacturer": "SYNDERAI Project"
      }
    },
    {
      "fullUrl": "urn:uuid:c0cda337-efcf-4b3a-a8a2-62894d12b56c",
      "resource": {
        "resourceType": "Provenance",
        "id": "c0cda337-efcf-4b3a-a8a2-62894d12b56c",
        "target": [
          {
            "reference": "Patient/99dac8f3-42f8-456d-8312-8cd3d9e6f15a"
          },
          {
            "reference": "Bundle/9517474f-03ac-40a8-af4b-307227a14ea2"
          },
          {
            "reference": "Composition/9cd46014-92b0-4235-9dd9-9ec310bd7092"
          },
          {
            "reference": "PractitionerRole/01e3fe8b-6fd0-4a97-81f1-6e396c9a4fe9"
          },
          {
            "reference": "Practitioner/e2841fa8-5bf8-495e-a7c2-4326e94e7543"
          },
          {
            "reference": "PractitionerRole/9ad163ee-2937-469e-8747-943c27be0843"
          },
          {
            "reference": "Organization/993e7ed7-2d89-4815-bbe3-5dd7e97d0772"
          }
        ],
        "activity": {
          "text": "Synthetic Example Data Generation"
        },
        "policy": [
          "https://synderai.net/synderai-synthetic-data-policy"
        ],
        "agent": [
          {
            "type": {
              "text": "author"
            },
            "who": {
              "reference": "Device/6492ad9a-cfe6-4e72-b21d-50c5a2e3780e"
            }
          }
        ],
        "reason": [
          {
            "text": "Interoperability Testing and Training (non-clinical use)"
          }
        ],
        "text": {
          "status": "generated",
          "div": "<div xmlns=\"http://www.w3.org/1999/xhtml\">Provenance for SYNDERAI Synthetic Example Data Resource</div>"
        },
        "recorded": "2022-02-16T19:07:38Z"
      }
    },
    {
      "fullUrl": "urn:uuid:01e3fe8b-6fd0-4a97-81f1-6e396c9a4fe9",
      "resource": {
        "resourceType": "PractitionerRole",
        "id": "01e3fe8b-6fd0-4a97-81f1-6e396c9a4fe9",
        "meta": {
          "profile": [
            "http://hl7.eu/fhir/base/StructureDefinition/practitionerRole-eu"
          ]
        },
        "text": {
          "status": "generated",
          "div": "<div xmlns=\"http://www.w3.org/1999/xhtml\">Laboratory Role Id: 01e3fe8b-6fd0-4a97-81f1-6e396c9a4fe9</div>"
        },
        "practitioner": {
          "reference": "urn:uuid:e2841fa8-5bf8-495e-a7c2-4326e94e7543"
        }
      }
    },
    {
      "fullUrl": "urn:uuid:e2841fa8-5bf8-495e-a7c2-4326e94e7543",
      "resource": {
        "resourceType": "Practitioner",
        "id": "e2841fa8-5bf8-495e-a7c2-4326e94e7543",
        "meta": {
          "profile": [
            "http://hl7.eu/fhir/base/StructureDefinition/practitioner-eu"
          ]
        },
        "identifier": [
          {
            "assigner": {
              "display": "HL7 Europe"
            },
            "system": "urn:oid:2.16.840.1.113883.2.51.999",
            "value": "03f4176e-d7ab-4d7e-a9de-c14fd355c776"
          }
        ],
        "name": [
          {
            "prefix": [
              "dr"
            ],
            "given": [
              "Ex"
            ],
            "family": "Ample"
          }
        ],
        "address": [
          {
            "line": [
              "Laboratoire Central Européenne",
              "Boulevard du Jardin Botanique 32"
            ],
            "postalCode": "1000",
            "city": "Brussels",
            "country": "Belgium"
          }
        ],
        "text": {
          "status": "generated",
          "div": "<div xmlns=\"http://www.w3.org/1999/xhtml\">Laboratory: Laboratoire Central Européenne, 1000 Brussels, Belgium</div>"
        }
      }
    }
  ],
  "type": "document",
  "timestamp": "2022-02-16T19:07:38Z"
}
