{
  "resourceType": "Bundle",
  "id": "c0734dc8-b6f4-4beb-8eb4-d30158fa0912",
  "meta": {
    "profile": [
      "http://hl7.eu/fhir/laboratory/StructureDefinition/Bundle-eu-lab"
    ]
  },
  "identifier": {
    "assigner": {
      "display": "HL7 Europe"
    },
    "system": "urn:oid:2.16.840.1.113883.2.51.999",
    "value": "fc0ce8b2-1074-4021-b396-93b001415dce"
  },
  "entry": [
    {
      "fullUrl": "urn:uuid:9ab3655e-e04a-49c3-90d3-0027898a4a44",
      "resource": {
        "resourceType": "Composition",
        "id": "9ab3655e-e04a-49c3-90d3-0027898a4a44",
        "meta": {
          "profile": [
            "http://hl7.eu/fhir/laboratory/StructureDefinition/Composition-eu-lab"
          ]
        },
        "identifier": {
          "assigner": {
            "display": "HL7 Europe"
          },
          "system": "urn:oid:2.16.840.1.113883.2.51.999",
          "value": "95b1f53d-922d-4acc-8966-d4d46af0f4b0"
        },
        "author": [
          {
            "reference": "urn:uuid:3c57a344-29b4-4f39-8ab3-9834894bb99e"
          }
        ],
        "category": [
          {
            "coding": [
              {
                "code": "26436-6",
                "system": "http://loinc.org",
                "display": "Laboratory studies (set)"
              }
            ]
          }
        ],
        "type": {
          "coding": [
            {
              "code": "11502-2",
              "system": "http://loinc.org",
              "display": "Laboratory report"
            }
          ],
          "text": "Laboratory Report"
        },
        "section": [
          {
            "code": {
              "coding": [
                {
                  "code": "26436-6",
                  "system": "http://loinc.org",
                  "display": "Laboratory studies (set)"
                }
              ],
              "text": "Laboratory studies"
            },
            "section": [
              {
                "code": {
                  "coding": [
                    {
                      "code": "$18719-5",
                      "system": "http://loinc.org",
                      "display": "Chemistry studies (set)"
                    }
                  ],
                  "text": "Chemistry"
                },
                "entry": [
                  {
                    "reference": "urn:uuid:6c1336a0-3b2f-4139-b895-4f9e4934d432"
                  },
                  {
                    "reference": "urn:uuid:02a9be7a-7bb0-43de-a577-5debfa3e0754"
                  },
                  {
                    "reference": "urn:uuid:afdab501-acb9-48d6-bdc7-f152df90171e"
                  },
                  {
                    "reference": "urn:uuid:ad7d6d90-0ec4-4cef-b639-92713852430a"
                  },
                  {
                    "reference": "urn:uuid:8ae2ac3b-5b8b-4e45-803a-62dcaf23b9b3"
                  },
                  {
                    "reference": "urn:uuid:af5867f0-79a3-4c6b-8dc8-93b298155f73"
                  },
                  {
                    "reference": "urn:uuid:f0d53a21-6b21-4a37-bd01-176f3b39bd79"
                  },
                  {
                    "reference": "urn:uuid:46db97fe-34e5-4c5f-8791-545142ef23bd"
                  },
                  {
                    "reference": "urn:uuid:f2fe5f6b-0196-4695-80ba-bc3a9aa427ae"
                  },
                  {
                    "reference": "urn:uuid:aad91670-23f3-434a-9a16-31d8f251f111"
                  },
                  {
                    "reference": "urn:uuid:a2288d9b-6380-423d-98d1-49cabc021090"
                  },
                  {
                    "reference": "urn:uuid:07fc1711-b48c-4973-9589-a539ec7b1b70"
                  },
                  {
                    "reference": "urn:uuid:9a1729d9-6cd8-460c-a52c-59145de753ca"
                  }
                ],
                "text": {
                  "status": "generated",
                  "div": "<div xmlns=\"http://www.w3.org/1999/xhtml\"><h3>Chemistry</h3><table class=\"hl7__eu__lab__report\"><thead><tr><th>Test</th><th>25-OCT-2016</th><th>Reference&#xA0;Range</th><th>Unit</th></tr></thead><tbody><tr><td>Hemoglobin A1c/Hemoglobin.total in Blood</td><td>5.9</td><td>4.5 - 6.4</td><td>%</td></tr><tr><td>Glucose [Mass/volume] in Blood</td><td>79.2</td><td>70 - 140</td><td>mg/dL</td></tr><tr><td>Urea nitrogen [Mass/volume] in Blood</td><td>10.6</td><td>7 - 43</td><td>mg/dL</td></tr><tr><td>Creatinine [Mass/volume] in Blood</td><td>0.8</td><td>0.7 - 1.1</td><td>mg/dL</td></tr><tr><td>Calcium [Mass/volume] in Blood</td><td>10.0</td><td>8.5 - 10.4</td><td>mg/dL</td></tr><tr><td>Sodium [Moles/volume] in Blood</td><td>138.9</td><td>135 - 145</td><td>mmol/L</td></tr><tr><td>Potassium [Moles/volume] in Blood</td><td>4.4</td><td>3.5 - 5.1</td><td>mmol/L</td></tr><tr><td>Chloride [Moles/volume] in Blood</td><td>102.7</td><td>98 - 107</td><td>mmol/L</td></tr><tr><td>Carbon dioxide, total [Moles/volume] in Blood</td><td>24.5</td><td>22 - 32</td><td>mmol/L</td></tr><tr><td>Cholesterol [Mass/volume] in Serum or Plasma</td><td><strong>116.8 L</strong></td><td>125 - 200</td><td>mg/dL</td></tr><tr><td>Triglyceride [Mass/volume] in Serum or Plasma</td><td>100.2</td><td>35 - 150</td><td>mg/dL</td></tr><tr><td>Cholesterol in LDL [Mass/volume] in Serum or Plasma by Direct assay</td><td>41.2</td><td>0 - 130</td><td>mg/dL</td></tr><tr><td>Cholesterol in HDL [Mass/volume] in Serum or Plasma</td><td>55.6</td><td>50 - 100</td><td>mg/dL</td></tr></tbody></table></div>"
                },
                "title": "Chemistry"
              }
            ],
            "title": "Laboratory Report"
          },
          {
            "text": {
              "status": "generated",
              "div": "<div xmlns=\"http://www.w3.org/1999/xhtml\"><h3>Annotation</h3><table class=\"hl7__eu__lab__report\"><tr><th>Conclusion and Recommendations based on this report and previous findings known to us</th></tr><tr><td>All measured parameters are within normal limits except for a slightly low total cholesterol, which is not clinically concerning in isolation. Glycemic control, renal function, electrolytes, and lipid fractions (HDL, LDL, triglycerides) are all satisfactory. No laboratory evidence of acute or chronic metabolic, renal, or lipid disorder at this time.</td></tr></table></div>"
            },
            "code": {
              "coding": [
                {
                  "system": "http://loinc.org",
                  "code": "48767-8",
                  "display": "Annotation comment"
                }
              ]
            },
            "title": "Annotation comment"
          }
        ],
        "status": "final",
        "subject": {
          "reference": "urn:uuid:e3732aa1-623f-4e27-8667-8893dabd7251",
          "display": "Louise Köster"
        },
        "date": "2016-10-25T06:02:53Z",
        "title": "Laboratory Report",
        "confidentiality": "N"
      }
    },
    {
      "fullUrl": "urn:uuid:dade0047-c5f6-4d60-8d0b-ac7bd3708bf9",
      "resource": {
        "resourceType": "DiagnosticReport",
        "id": "dade0047-c5f6-4d60-8d0b-ac7bd3708bf9",
        "meta": {
          "profile": [
            "http://hl7.eu/fhir/laboratory/StructureDefinition/DiagnosticReport-eu-lab"
          ]
        },
        "identifier": [
          {
            "assigner": {
              "display": "HL7 Europe"
            },
            "system": "urn:oid:2.16.840.1.113883.2.51.999",
            "value": "1bdd7501-2bbf-407b-8d81-7abe53c2e2cc"
          }
        ],
        "extension": [
          {
            "url": "http://hl7.org/fhir/5.0/StructureDefinition/extension-DiagnosticReport.composition",
            "valueReference": {
              "reference": "urn:uuid:95b1f53d-922d-4acc-8966-d4d46af0f4b0"
            }
          }
        ],
        "category": [
          {
            "coding": [
              {
                "code": "26436-6",
                "system": "http://loinc.org",
                "display": "Laboratory studies (set)"
              }
            ]
          }
        ],
        "specimen": [
          {
            "reference": "urn:uuid:9985ff05-f434-42f5-9226-909007db5323"
          },
          {
            "reference": "urn:uuid:c47a70d2-9f4d-491b-af06-fe15f09ac5f7"
          }
        ],
        "result": [
          {
            "reference": "urn:uuid:6c1336a0-3b2f-4139-b895-4f9e4934d432"
          },
          {
            "reference": "urn:uuid:02a9be7a-7bb0-43de-a577-5debfa3e0754"
          },
          {
            "reference": "urn:uuid:afdab501-acb9-48d6-bdc7-f152df90171e"
          },
          {
            "reference": "urn:uuid:ad7d6d90-0ec4-4cef-b639-92713852430a"
          },
          {
            "reference": "urn:uuid:8ae2ac3b-5b8b-4e45-803a-62dcaf23b9b3"
          },
          {
            "reference": "urn:uuid:af5867f0-79a3-4c6b-8dc8-93b298155f73"
          },
          {
            "reference": "urn:uuid:f0d53a21-6b21-4a37-bd01-176f3b39bd79"
          },
          {
            "reference": "urn:uuid:46db97fe-34e5-4c5f-8791-545142ef23bd"
          },
          {
            "reference": "urn:uuid:f2fe5f6b-0196-4695-80ba-bc3a9aa427ae"
          },
          {
            "reference": "urn:uuid:aad91670-23f3-434a-9a16-31d8f251f111"
          },
          {
            "reference": "urn:uuid:a2288d9b-6380-423d-98d1-49cabc021090"
          },
          {
            "reference": "urn:uuid:07fc1711-b48c-4973-9589-a539ec7b1b70"
          },
          {
            "reference": "urn:uuid:9a1729d9-6cd8-460c-a52c-59145de753ca"
          }
        ],
        "status": "registered",
        "code": {
          "coding": [
            {
              "code": "11502-2",
              "system": "http://loinc.org",
              "display": "Laboratory report"
            }
          ]
        },
        "subject": {
          "reference": "urn:uuid:e3732aa1-623f-4e27-8667-8893dabd7251",
          "display": "Louise Köster"
        }
      }
    },
    {
      "fullUrl": "urn:uuid:e3732aa1-623f-4e27-8667-8893dabd7251",
      "resource": {
        "resourceType": "Patient",
        "id": "e3732aa1-623f-4e27-8667-8893dabd7251",
        "meta": {
          "security": [
            {
              "system": "http://terminology.hl7.org/CodeSystem/v3-ActReason",
              "code": "HTEST"
            },
            {
              "system": "http://terminology.hl7.org/CodeSystem/v3-ActReason",
              "code": "TRAIN"
            }
          ],
          "tag": [
            {
              "system": "https://synderai.net/fhir/CodeSystem/tags",
              "code": "synthetic",
              "display": "SYNDERAI Synthetic data"
            }
          ],
          "profile": [
            "http://hl7.eu/fhir/base/StructureDefinition/patient-eu-core"
          ]
        },
        "identifier": [
          {
            "type": {
              "coding": [
                {
                  "code": "PT",
                  "system": "http://terminology.hl7.org/CodeSystem/v2-0203"
                }
              ]
            },
            "system": "http://ec.europa.eu/identifier/eci",
            "value": "1053-167357-1"
          },
          {
            "type": {
              "coding": [
                {
                  "code": "MR",
                  "system": "http://terminology.hl7.org/CodeSystem/v2-0203"
                }
              ]
            },
            "system": "http://local.setting.eu/identifier",
            "value": "706b1a23-528f-0ed7-639f-1dc54e8ecc5d"
          }
        ],
        "name": [
          {
            "family": "Köster"
          },
          {
            "given": [
              "Louise"
            ]
          },
          {
            "text": "Louise Köster"
          }
        ],
        "address": [
          {
            "line": [
              "Regina-Butte-Ring 737"
            ],
            "use": "home",
            "type": "physical",
            "postalCode": "88348",
            "city": "Saulgau",
            "country": "Germany"
          }
        ],
        "telecom": [
          {
            "system": "phone",
            "value": "+49(0)2075293938"
          }
        ],
        "extension": [
          {
            "url": "http://hl7.org/fhir/StructureDefinition/patient-nationality",
            "valueCodeableConcept": {
              "coding": [
                {
                  "code": "DE",
                  "system": "http://hl7.org/fhir/ValueSet/country"
                }
              ]
            }
          }
        ],
        "text": {
          "status": "generated",
          "div": "<div xmlns=\"http://www.w3.org/1999/xhtml\"><table class=\"hl7__ips\"><tr><td>Louise Köster</td><td>female</td><td>01-Jul-1957</td></tr></table></div>"
        },
        "gender": "female",
        "birthDate": "1957-07-01"
      }
    },
    {
      "fullUrl": "urn:uuid:d0a4e0e5-2d16-4a5d-90ce-306805c2d888",
      "resource": {
        "resourceType": "ServiceRequest",
        "id": "d0a4e0e5-2d16-4a5d-90ce-306805c2d888",
        "meta": {
          "profile": [
            "http://hl7.eu/fhir/laboratory/StructureDefinition/ServiceRequest-eu-lab"
          ]
        },
        "identifier": [
          {
            "system": "http://example.org",
            "value": "22a5217c-3dfb-4fb9-bd1a-aa982355e1b4"
          }
        ],
        "specimen": [
          {
            "reference": "urn:uuid:9985ff05-f434-42f5-9226-909007db5323"
          },
          {
            "reference": "urn:uuid:c47a70d2-9f4d-491b-af06-fe15f09ac5f7"
          }
        ],
        "reasonCode": [
          {
            "coding": [
              {
                "code": "15777000",
                "system": "http://snomed.info/sct",
                "display": "Prediabetes"
              }
            ]
          },
          {
            "coding": [
              {
                "code": "237602007",
                "system": "http://snomed.info/sct",
                "display": "Metabolic syndrome X"
              }
            ]
          },
          {
            "coding": [
              {
                "code": "414545008",
                "system": "http://snomed.info/sct",
                "display": "Ischemic heart disease"
              }
            ]
          },
          {
            "coding": [
              {
                "code": "59621000",
                "system": "http://snomed.info/sct",
                "display": "Essential hypertension"
              }
            ]
          }
        ],
        "status": "active",
        "intent": "order",
        "code": {
          "coding": [
            {
              "code": "108252007",
              "system": "http://snomed.info/sct",
              "display": "Laboratory procedure"
            }
          ]
        },
        "subject": {
          "reference": "urn:uuid:e3732aa1-623f-4e27-8667-8893dabd7251",
          "display": "Louise Köster"
        },
        "requester": {
          "reference": "urn:uuid:27ddcbe4-3402-4d7f-86a9-25a370a6e979"
        }
      }
    },
    {
      "fullUrl": "urn:uuid:27ddcbe4-3402-4d7f-86a9-25a370a6e979",
      "resource": {
        "resourceType": "PractitionerRole",
        "id": "27ddcbe4-3402-4d7f-86a9-25a370a6e979",
        "meta": {
          "profile": [
            "http://hl7.eu/fhir/base/StructureDefinition/practitionerRole-eu"
          ]
        },
        "text": {
          "status": "generated",
          "div": "<div xmlns=\"http://www.w3.org/1999/xhtml\">Provider Role Id: 27ddcbe4-3402-4d7f-86a9-25a370a6e979</div>"
        },
        "organization": {
          "reference": "urn:uuid:f8adee05-d67c-4c3d-875b-11be035dfb3d"
        }
      }
    },
    {
      "fullUrl": "urn:uuid:f8adee05-d67c-4c3d-875b-11be035dfb3d",
      "resource": {
        "resourceType": "Organization",
        "id": "f8adee05-d67c-4c3d-875b-11be035dfb3d",
        "meta": {
          "profile": [
            "http://hl7.eu/fhir/base/StructureDefinition/organization-eu"
          ]
        },
        "identifier": [
          {
            "assigner": {
              "display": "HL7 Europe"
            },
            "system": "urn:oid:2.16.840.1.113883.2.51.999",
            "value": "7c5ac352-2773-41d4-98d5-35ed2a30ef4a"
          }
        ],
        "address": [
          {
            "line": [
              "Am Schönen Moos 7"
            ],
            "city": "Bad Saulgau",
            "postalCode": "88348",
            "country": "Germany"
          }
        ],
        "text": {
          "status": "generated",
          "div": "<div xmlns=\"http://www.w3.org/1999/xhtml\">Provider Organization: Klinik am schönen Moos</div>"
        },
        "name": "Klinik am schönen Moos"
      }
    },
    {
      "fullUrl": "urn:uuid:9985ff05-f434-42f5-9226-909007db5323",
      "resource": {
        "resourceType": "Specimen",
        "id": "9985ff05-f434-42f5-9226-909007db5323",
        "meta": {
          "profile": [
            "http://hl7.eu/fhir/laboratory/StructureDefinition/Specimen-eu-lab"
          ]
        },
        "collection": {
          "collectedDateTime": "2016-10-25"
        },
        "text": {
          "status": "generated",
          "div": "<div xmlns=\"http://www.w3.org/1999/xhtml\"><table class=\"hl7__eu__lab__report\"><tr><th>Specimen</th><th>Collection Date</th></tr><tr><td>Whole blood specimen (specimen)</td><td><span class=\"nb\">25-Oct-2016</span></td></tr></table></div>"
        },
        "type": {
          "coding": [
            {
              "code": "258580003",
              "system": "http://snomed.info/sct",
              "display": "Whole blood specimen (specimen)"
            }
          ]
        }
      }
    },
    {
      "fullUrl": "urn:uuid:c47a70d2-9f4d-491b-af06-fe15f09ac5f7",
      "resource": {
        "resourceType": "Specimen",
        "id": "c47a70d2-9f4d-491b-af06-fe15f09ac5f7",
        "meta": {
          "profile": [
            "http://hl7.eu/fhir/laboratory/StructureDefinition/Specimen-eu-lab"
          ]
        },
        "collection": {
          "collectedDateTime": "2016-10-25"
        },
        "text": {
          "status": "generated",
          "div": "<div xmlns=\"http://www.w3.org/1999/xhtml\"><table class=\"hl7__eu__lab__report\"><tr><th>Specimen</th><th>Collection Date</th></tr><tr><td>Acellular blood (serum or plasma) specimen</td><td><span class=\"nb\">25-Oct-2016</span></td></tr></table></div>"
        },
        "type": {
          "coding": [
            {
              "code": "122592007",
              "system": "http://snomed.info/sct",
              "display": "Acellular blood (serum or plasma) specimen"
            }
          ]
        }
      }
    },
    {
      "fullUrl": "urn:uuid:6c1336a0-3b2f-4139-b895-4f9e4934d432",
      "resource": {
        "resourceType": "Observation",
        "id": "6c1336a0-3b2f-4139-b895-4f9e4934d432",
        "meta": {
          "profile": [
            "http://hl7.eu/fhir/laboratory/StructureDefinition/Observation-resultslab-eu-lab"
          ]
        },
        "performer": [
          {
            "display": "The Central European Lab"
          }
        ],
        "category": [
          {
            "coding": [
              {
                "system": "http://terminology.hl7.org/CodeSystem/observation-category",
                "code": "laboratory"
              }
            ]
          }
        ],
        "code": {
          "coding": [
            {
              "code": "4548-4",
              "system": "http://loinc.org",
              "display": "Hemoglobin A1c/Hemoglobin.total in Blood"
            }
          ],
          "text": "Hemoglobin A1c/Hemoglobin.total in Blood"
        },
        "valueQuantity": {
          "system": "http://unitsofmeasure.org",
          "value": 5.9,
          "unit": "%",
          "code": "%"
        },
        "referenceRange": [
          {
            "low": {
              "value": 4.5,
              "code": "%",
              "system": "http://unitsofmeasure.org"
            }
          },
          {
            "high": {
              "value": 6.4,
              "code": "%",
              "system": "http://unitsofmeasure.org"
            }
          }
        ],
        "text": {
          "status": "generated",
          "div": "<div xmlns=\"http://www.w3.org/1999/xhtml\"><table class=\"hl7__eu__lab__report\"><tr><th>Test</th><th>25-Oct-2016</th><th>Reference&#xA0;Range</th><th>Unit</th></tr><tr><td>Hemoglobin A1c/Hemoglobin.total in Blood</td><td>5.9</td><td>4.5 - 6.4</td><td></td><td>%</td></tr></table></div>"
        },
        "status": "final",
        "subject": {
          "reference": "urn:uuid:e3732aa1-623f-4e27-8667-8893dabd7251",
          "display": "Louise Köster"
        },
        "effectiveDateTime": "2016-10-25T04:02:53Z",
        "specimen": {
          "reference": "urn:uuid:9985ff05-f434-42f5-9226-909007db5323"
        }
      }
    },
    {
      "fullUrl": "urn:uuid:02a9be7a-7bb0-43de-a577-5debfa3e0754",
      "resource": {
        "resourceType": "Observation",
        "id": "02a9be7a-7bb0-43de-a577-5debfa3e0754",
        "meta": {
          "profile": [
            "http://hl7.eu/fhir/laboratory/StructureDefinition/Observation-resultslab-eu-lab"
          ]
        },
        "performer": [
          {
            "display": "The Central European Lab"
          }
        ],
        "category": [
          {
            "coding": [
              {
                "system": "http://terminology.hl7.org/CodeSystem/observation-category",
                "code": "laboratory"
              }
            ]
          }
        ],
        "code": {
          "coding": [
            {
              "code": "2339-0",
              "system": "http://loinc.org",
              "display": "Glucose [Mass/volume] in Blood"
            }
          ],
          "text": "Glucose [Mass/volume] in Blood"
        },
        "valueQuantity": {
          "system": "http://unitsofmeasure.org",
          "value": 79.2,
          "unit": "mg/dL",
          "code": "mg/dL"
        },
        "referenceRange": [
          {
            "low": {
              "value": 70,
              "code": "mg/dL",
              "system": "http://unitsofmeasure.org"
            }
          },
          {
            "high": {
              "value": 140,
              "code": "mg/dL",
              "system": "http://unitsofmeasure.org"
            }
          }
        ],
        "text": {
          "status": "generated",
          "div": "<div xmlns=\"http://www.w3.org/1999/xhtml\"><table class=\"hl7__eu__lab__report\"><tr><th>Test</th><th>25-Oct-2016</th><th>Reference&#xA0;Range</th><th>Unit</th></tr><tr><td>Glucose [Mass/volume] in Blood</td><td>79.2</td><td>70 - 140</td><td></td><td>mg/dL</td></tr></table></div>"
        },
        "status": "final",
        "subject": {
          "reference": "urn:uuid:e3732aa1-623f-4e27-8667-8893dabd7251",
          "display": "Louise Köster"
        },
        "effectiveDateTime": "2016-10-25T04:02:53Z",
        "specimen": {
          "reference": "urn:uuid:9985ff05-f434-42f5-9226-909007db5323"
        }
      }
    },
    {
      "fullUrl": "urn:uuid:afdab501-acb9-48d6-bdc7-f152df90171e",
      "resource": {
        "resourceType": "Observation",
        "id": "afdab501-acb9-48d6-bdc7-f152df90171e",
        "meta": {
          "profile": [
            "http://hl7.eu/fhir/laboratory/StructureDefinition/Observation-resultslab-eu-lab"
          ]
        },
        "performer": [
          {
            "display": "The Central European Lab"
          }
        ],
        "category": [
          {
            "coding": [
              {
                "system": "http://terminology.hl7.org/CodeSystem/observation-category",
                "code": "laboratory"
              }
            ]
          }
        ],
        "code": {
          "coding": [
            {
              "code": "6299-2",
              "system": "http://loinc.org",
              "display": "Urea nitrogen [Mass/volume] in Blood"
            }
          ],
          "text": "Urea nitrogen [Mass/volume] in Blood"
        },
        "valueQuantity": {
          "system": "http://unitsofmeasure.org",
          "value": 10.6,
          "unit": "mg/dL",
          "code": "mg/dL"
        },
        "referenceRange": [
          {
            "low": {
              "value": 7,
              "code": "mg/dL",
              "system": "http://unitsofmeasure.org"
            }
          },
          {
            "high": {
              "value": 43,
              "code": "mg/dL",
              "system": "http://unitsofmeasure.org"
            }
          }
        ],
        "text": {
          "status": "generated",
          "div": "<div xmlns=\"http://www.w3.org/1999/xhtml\"><table class=\"hl7__eu__lab__report\"><tr><th>Test</th><th>25-Oct-2016</th><th>Reference&#xA0;Range</th><th>Unit</th></tr><tr><td>Urea nitrogen [Mass/volume] in Blood</td><td>10.6</td><td>7 - 43</td><td></td><td>mg/dL</td></tr></table></div>"
        },
        "status": "final",
        "subject": {
          "reference": "urn:uuid:e3732aa1-623f-4e27-8667-8893dabd7251",
          "display": "Louise Köster"
        },
        "effectiveDateTime": "2016-10-25T04:02:53Z",
        "specimen": {
          "reference": "urn:uuid:9985ff05-f434-42f5-9226-909007db5323"
        }
      }
    },
    {
      "fullUrl": "urn:uuid:ad7d6d90-0ec4-4cef-b639-92713852430a",
      "resource": {
        "resourceType": "Observation",
        "id": "ad7d6d90-0ec4-4cef-b639-92713852430a",
        "meta": {
          "profile": [
            "http://hl7.eu/fhir/laboratory/StructureDefinition/Observation-resultslab-eu-lab"
          ]
        },
        "performer": [
          {
            "display": "The Central European Lab"
          }
        ],
        "category": [
          {
            "coding": [
              {
                "system": "http://terminology.hl7.org/CodeSystem/observation-category",
                "code": "laboratory"
              }
            ]
          }
        ],
        "code": {
          "coding": [
            {
              "code": "38483-4",
              "system": "http://loinc.org",
              "display": "Creatinine [Mass/volume] in Blood"
            }
          ],
          "text": "Creatinine [Mass/volume] in Blood"
        },
        "valueQuantity": {
          "system": "http://unitsofmeasure.org",
          "value": 0.8,
          "unit": "mg/dL",
          "code": "mg/dL"
        },
        "referenceRange": [
          {
            "low": {
              "value": 0.7,
              "code": "mg/dL",
              "system": "http://unitsofmeasure.org"
            }
          },
          {
            "high": {
              "value": 1.1,
              "code": "mg/dL",
              "system": "http://unitsofmeasure.org"
            }
          }
        ],
        "text": {
          "status": "generated",
          "div": "<div xmlns=\"http://www.w3.org/1999/xhtml\"><table class=\"hl7__eu__lab__report\"><tr><th>Test</th><th>25-Oct-2016</th><th>Reference&#xA0;Range</th><th>Unit</th></tr><tr><td>Creatinine [Mass/volume] in Blood</td><td>0.8</td><td>0.7 - 1.1</td><td></td><td>mg/dL</td></tr></table></div>"
        },
        "status": "final",
        "subject": {
          "reference": "urn:uuid:e3732aa1-623f-4e27-8667-8893dabd7251",
          "display": "Louise Köster"
        },
        "effectiveDateTime": "2016-10-25T04:02:53Z",
        "specimen": {
          "reference": "urn:uuid:9985ff05-f434-42f5-9226-909007db5323"
        }
      }
    },
    {
      "fullUrl": "urn:uuid:8ae2ac3b-5b8b-4e45-803a-62dcaf23b9b3",
      "resource": {
        "resourceType": "Observation",
        "id": "8ae2ac3b-5b8b-4e45-803a-62dcaf23b9b3",
        "meta": {
          "profile": [
            "http://hl7.eu/fhir/laboratory/StructureDefinition/Observation-resultslab-eu-lab"
          ]
        },
        "performer": [
          {
            "display": "The Central European Lab"
          }
        ],
        "category": [
          {
            "coding": [
              {
                "system": "http://terminology.hl7.org/CodeSystem/observation-category",
                "code": "laboratory"
              }
            ]
          }
        ],
        "code": {
          "coding": [
            {
              "code": "49765-1",
              "system": "http://loinc.org",
              "display": "Calcium [Mass/volume] in Blood"
            }
          ],
          "text": "Calcium [Mass/volume] in Blood"
        },
        "valueQuantity": {
          "system": "http://unitsofmeasure.org",
          "value": 10,
          "unit": "mg/dL",
          "code": "mg/dL"
        },
        "referenceRange": [
          {
            "low": {
              "value": 8.5,
              "code": "mg/dL",
              "system": "http://unitsofmeasure.org"
            }
          },
          {
            "high": {
              "value": 10.4,
              "code": "mg/dL",
              "system": "http://unitsofmeasure.org"
            }
          }
        ],
        "text": {
          "status": "generated",
          "div": "<div xmlns=\"http://www.w3.org/1999/xhtml\"><table class=\"hl7__eu__lab__report\"><tr><th>Test</th><th>25-Oct-2016</th><th>Reference&#xA0;Range</th><th>Unit</th></tr><tr><td>Calcium [Mass/volume] in Blood</td><td>10.0</td><td>8.5 - 10.4</td><td></td><td>mg/dL</td></tr></table></div>"
        },
        "status": "final",
        "subject": {
          "reference": "urn:uuid:e3732aa1-623f-4e27-8667-8893dabd7251",
          "display": "Louise Köster"
        },
        "effectiveDateTime": "2016-10-25T04:02:53Z",
        "specimen": {
          "reference": "urn:uuid:9985ff05-f434-42f5-9226-909007db5323"
        }
      }
    },
    {
      "fullUrl": "urn:uuid:af5867f0-79a3-4c6b-8dc8-93b298155f73",
      "resource": {
        "resourceType": "Observation",
        "id": "af5867f0-79a3-4c6b-8dc8-93b298155f73",
        "meta": {
          "profile": [
            "http://hl7.eu/fhir/laboratory/StructureDefinition/Observation-resultslab-eu-lab"
          ]
        },
        "performer": [
          {
            "display": "The Central European Lab"
          }
        ],
        "category": [
          {
            "coding": [
              {
                "system": "http://terminology.hl7.org/CodeSystem/observation-category",
                "code": "laboratory"
              }
            ]
          }
        ],
        "code": {
          "coding": [
            {
              "code": "2947-0",
              "system": "http://loinc.org",
              "display": "Sodium [Moles/volume] in Blood"
            }
          ],
          "text": "Sodium [Moles/volume] in Blood"
        },
        "valueQuantity": {
          "system": "http://unitsofmeasure.org",
          "value": 138.9,
          "unit": "mmol/L",
          "code": "mmol/L"
        },
        "referenceRange": [
          {
            "low": {
              "value": 135,
              "code": "mmol/L",
              "system": "http://unitsofmeasure.org"
            }
          },
          {
            "high": {
              "value": 145,
              "code": "mmol/L",
              "system": "http://unitsofmeasure.org"
            }
          }
        ],
        "text": {
          "status": "generated",
          "div": "<div xmlns=\"http://www.w3.org/1999/xhtml\"><table class=\"hl7__eu__lab__report\"><tr><th>Test</th><th>25-Oct-2016</th><th>Reference&#xA0;Range</th><th>Unit</th></tr><tr><td>Sodium [Moles/volume] in Blood</td><td>138.9</td><td>135 - 145</td><td></td><td>mmol/L</td></tr></table></div>"
        },
        "status": "final",
        "subject": {
          "reference": "urn:uuid:e3732aa1-623f-4e27-8667-8893dabd7251",
          "display": "Louise Köster"
        },
        "effectiveDateTime": "2016-10-25T04:02:53Z",
        "specimen": {
          "reference": "urn:uuid:9985ff05-f434-42f5-9226-909007db5323"
        }
      }
    },
    {
      "fullUrl": "urn:uuid:f0d53a21-6b21-4a37-bd01-176f3b39bd79",
      "resource": {
        "resourceType": "Observation",
        "id": "f0d53a21-6b21-4a37-bd01-176f3b39bd79",
        "meta": {
          "profile": [
            "http://hl7.eu/fhir/laboratory/StructureDefinition/Observation-resultslab-eu-lab"
          ]
        },
        "performer": [
          {
            "display": "The Central European Lab"
          }
        ],
        "category": [
          {
            "coding": [
              {
                "system": "http://terminology.hl7.org/CodeSystem/observation-category",
                "code": "laboratory"
              }
            ]
          }
        ],
        "code": {
          "coding": [
            {
              "code": "6298-4",
              "system": "http://loinc.org",
              "display": "Potassium [Moles/volume] in Blood"
            }
          ],
          "text": "Potassium [Moles/volume] in Blood"
        },
        "valueQuantity": {
          "system": "http://unitsofmeasure.org",
          "value": 4.4,
          "unit": "mmol/L",
          "code": "mmol/L"
        },
        "referenceRange": [
          {
            "low": {
              "value": 3.5,
              "code": "mmol/L",
              "system": "http://unitsofmeasure.org"
            }
          },
          {
            "high": {
              "value": 5.1,
              "code": "mmol/L",
              "system": "http://unitsofmeasure.org"
            }
          }
        ],
        "text": {
          "status": "generated",
          "div": "<div xmlns=\"http://www.w3.org/1999/xhtml\"><table class=\"hl7__eu__lab__report\"><tr><th>Test</th><th>25-Oct-2016</th><th>Reference&#xA0;Range</th><th>Unit</th></tr><tr><td>Potassium [Moles/volume] in Blood</td><td>4.4</td><td>3.5 - 5.1</td><td></td><td>mmol/L</td></tr></table></div>"
        },
        "status": "final",
        "subject": {
          "reference": "urn:uuid:e3732aa1-623f-4e27-8667-8893dabd7251",
          "display": "Louise Köster"
        },
        "effectiveDateTime": "2016-10-25T04:02:53Z",
        "specimen": {
          "reference": "urn:uuid:9985ff05-f434-42f5-9226-909007db5323"
        }
      }
    },
    {
      "fullUrl": "urn:uuid:46db97fe-34e5-4c5f-8791-545142ef23bd",
      "resource": {
        "resourceType": "Observation",
        "id": "46db97fe-34e5-4c5f-8791-545142ef23bd",
        "meta": {
          "profile": [
            "http://hl7.eu/fhir/laboratory/StructureDefinition/Observation-resultslab-eu-lab"
          ]
        },
        "performer": [
          {
            "display": "The Central European Lab"
          }
        ],
        "category": [
          {
            "coding": [
              {
                "system": "http://terminology.hl7.org/CodeSystem/observation-category",
                "code": "laboratory"
              }
            ]
          }
        ],
        "code": {
          "coding": [
            {
              "code": "2069-3",
              "system": "http://loinc.org",
              "display": "Chloride [Moles/volume] in Blood"
            }
          ],
          "text": "Chloride [Moles/volume] in Blood"
        },
        "valueQuantity": {
          "system": "http://unitsofmeasure.org",
          "value": 102.7,
          "unit": "mmol/L",
          "code": "mmol/L"
        },
        "referenceRange": [
          {
            "low": {
              "value": 98,
              "code": "mmol/L",
              "system": "http://unitsofmeasure.org"
            }
          },
          {
            "high": {
              "value": 107,
              "code": "mmol/L",
              "system": "http://unitsofmeasure.org"
            }
          }
        ],
        "text": {
          "status": "generated",
          "div": "<div xmlns=\"http://www.w3.org/1999/xhtml\"><table class=\"hl7__eu__lab__report\"><tr><th>Test</th><th>25-Oct-2016</th><th>Reference&#xA0;Range</th><th>Unit</th></tr><tr><td>Chloride [Moles/volume] in Blood</td><td>102.7</td><td>98 - 107</td><td></td><td>mmol/L</td></tr></table></div>"
        },
        "status": "final",
        "subject": {
          "reference": "urn:uuid:e3732aa1-623f-4e27-8667-8893dabd7251",
          "display": "Louise Köster"
        },
        "effectiveDateTime": "2016-10-25T04:02:53Z",
        "specimen": {
          "reference": "urn:uuid:9985ff05-f434-42f5-9226-909007db5323"
        }
      }
    },
    {
      "fullUrl": "urn:uuid:f2fe5f6b-0196-4695-80ba-bc3a9aa427ae",
      "resource": {
        "resourceType": "Observation",
        "id": "f2fe5f6b-0196-4695-80ba-bc3a9aa427ae",
        "meta": {
          "profile": [
            "http://hl7.eu/fhir/laboratory/StructureDefinition/Observation-resultslab-eu-lab"
          ]
        },
        "performer": [
          {
            "display": "The Central European Lab"
          }
        ],
        "category": [
          {
            "coding": [
              {
                "system": "http://terminology.hl7.org/CodeSystem/observation-category",
                "code": "laboratory"
              }
            ]
          }
        ],
        "code": {
          "coding": [
            {
              "code": "20565-8",
              "system": "http://loinc.org",
              "display": "Carbon dioxide, total [Moles/volume] in Blood"
            }
          ],
          "text": "Carbon dioxide, total [Moles/volume] in Blood"
        },
        "valueQuantity": {
          "system": "http://unitsofmeasure.org",
          "value": 24.5,
          "unit": "mmol/L",
          "code": "mmol/L"
        },
        "referenceRange": [
          {
            "low": {
              "value": 22,
              "code": "mmol/L",
              "system": "http://unitsofmeasure.org"
            }
          },
          {
            "high": {
              "value": 32,
              "code": "mmol/L",
              "system": "http://unitsofmeasure.org"
            }
          }
        ],
        "text": {
          "status": "generated",
          "div": "<div xmlns=\"http://www.w3.org/1999/xhtml\"><table class=\"hl7__eu__lab__report\"><tr><th>Test</th><th>25-Oct-2016</th><th>Reference&#xA0;Range</th><th>Unit</th></tr><tr><td>Carbon dioxide, total [Moles/volume] in Blood</td><td>24.5</td><td>22 - 32</td><td></td><td>mmol/L</td></tr></table></div>"
        },
        "status": "final",
        "subject": {
          "reference": "urn:uuid:e3732aa1-623f-4e27-8667-8893dabd7251",
          "display": "Louise Köster"
        },
        "effectiveDateTime": "2016-10-25T04:02:53Z",
        "specimen": {
          "reference": "urn:uuid:9985ff05-f434-42f5-9226-909007db5323"
        }
      }
    },
    {
      "fullUrl": "urn:uuid:aad91670-23f3-434a-9a16-31d8f251f111",
      "resource": {
        "resourceType": "Observation",
        "id": "aad91670-23f3-434a-9a16-31d8f251f111",
        "meta": {
          "profile": [
            "http://hl7.eu/fhir/laboratory/StructureDefinition/Observation-resultslab-eu-lab"
          ]
        },
        "performer": [
          {
            "display": "The Central European Lab"
          }
        ],
        "category": [
          {
            "coding": [
              {
                "system": "http://terminology.hl7.org/CodeSystem/observation-category",
                "code": "laboratory"
              }
            ]
          }
        ],
        "code": {
          "coding": [
            {
              "code": "2093-3",
              "system": "http://loinc.org",
              "display": "Cholesterol [Mass/volume] in Serum or Plasma"
            }
          ],
          "text": "Cholesterol [Mass/volume] in Serum or Plasma"
        },
        "valueQuantity": {
          "system": "http://unitsofmeasure.org",
          "value": 116.8,
          "unit": "mg/dL",
          "code": "mg/dL"
        },
        "referenceRange": [
          {
            "low": {
              "value": 125,
              "code": "mg/dL",
              "system": "http://unitsofmeasure.org"
            }
          },
          {
            "high": {
              "value": 200,
              "code": "mg/dL",
              "system": "http://unitsofmeasure.org"
            }
          }
        ],
        "interpretation": [
          {
            "coding": [
              {
                "code": "L",
                "system": "http://terminology.hl7.org/CodeSystem/v3-ObservationInterpretation",
                "display": "Low"
              }
            ]
          }
        ],
        "text": {
          "status": "generated",
          "div": "<div xmlns=\"http://www.w3.org/1999/xhtml\"><table class=\"hl7__eu__lab__report\"><tr><th>Test</th><th>25-Oct-2016</th><th>Reference&#xA0;Range</th><th>Unit</th></tr><tr><td>Cholesterol [Mass/volume] in Serum or Plasma</td><td>116.8</td><td>125 - 200</td><td>L</td><td>mg/dL</td></tr></table></div>"
        },
        "status": "final",
        "subject": {
          "reference": "urn:uuid:e3732aa1-623f-4e27-8667-8893dabd7251",
          "display": "Louise Köster"
        },
        "effectiveDateTime": "2016-10-25T04:02:53Z",
        "specimen": {
          "reference": "urn:uuid:c47a70d2-9f4d-491b-af06-fe15f09ac5f7"
        }
      }
    },
    {
      "fullUrl": "urn:uuid:a2288d9b-6380-423d-98d1-49cabc021090",
      "resource": {
        "resourceType": "Observation",
        "id": "a2288d9b-6380-423d-98d1-49cabc021090",
        "meta": {
          "profile": [
            "http://hl7.eu/fhir/laboratory/StructureDefinition/Observation-resultslab-eu-lab"
          ]
        },
        "performer": [
          {
            "display": "The Central European Lab"
          }
        ],
        "category": [
          {
            "coding": [
              {
                "system": "http://terminology.hl7.org/CodeSystem/observation-category",
                "code": "laboratory"
              }
            ]
          }
        ],
        "code": {
          "coding": [
            {
              "code": "2571-8",
              "system": "http://loinc.org",
              "display": "Triglyceride [Mass/volume] in Serum or Plasma"
            }
          ],
          "text": "Triglyceride [Mass/volume] in Serum or Plasma"
        },
        "valueQuantity": {
          "system": "http://unitsofmeasure.org",
          "value": 100.2,
          "unit": "mg/dL",
          "code": "mg/dL"
        },
        "referenceRange": [
          {
            "low": {
              "value": 35,
              "code": "mg/dL",
              "system": "http://unitsofmeasure.org"
            }
          },
          {
            "high": {
              "value": 150,
              "code": "mg/dL",
              "system": "http://unitsofmeasure.org"
            }
          }
        ],
        "text": {
          "status": "generated",
          "div": "<div xmlns=\"http://www.w3.org/1999/xhtml\"><table class=\"hl7__eu__lab__report\"><tr><th>Test</th><th>25-Oct-2016</th><th>Reference&#xA0;Range</th><th>Unit</th></tr><tr><td>Triglyceride [Mass/volume] in Serum or Plasma</td><td>100.2</td><td>35 - 150</td><td></td><td>mg/dL</td></tr></table></div>"
        },
        "status": "final",
        "subject": {
          "reference": "urn:uuid:e3732aa1-623f-4e27-8667-8893dabd7251",
          "display": "Louise Köster"
        },
        "effectiveDateTime": "2016-10-25T04:02:53Z",
        "specimen": {
          "reference": "urn:uuid:c47a70d2-9f4d-491b-af06-fe15f09ac5f7"
        }
      }
    },
    {
      "fullUrl": "urn:uuid:07fc1711-b48c-4973-9589-a539ec7b1b70",
      "resource": {
        "resourceType": "Observation",
        "id": "07fc1711-b48c-4973-9589-a539ec7b1b70",
        "meta": {
          "profile": [
            "http://hl7.eu/fhir/laboratory/StructureDefinition/Observation-resultslab-eu-lab"
          ]
        },
        "performer": [
          {
            "display": "The Central European Lab"
          }
        ],
        "category": [
          {
            "coding": [
              {
                "system": "http://terminology.hl7.org/CodeSystem/observation-category",
                "code": "laboratory"
              }
            ]
          }
        ],
        "code": {
          "coding": [
            {
              "code": "18262-6",
              "system": "http://loinc.org",
              "display": "Cholesterol in LDL [Mass/volume] in Serum or Plasma by Direct assay"
            }
          ],
          "text": "Cholesterol in LDL [Mass/volume] in Serum or Plasma by Direct assay"
        },
        "valueQuantity": {
          "system": "http://unitsofmeasure.org",
          "value": 41.2,
          "unit": "mg/dL",
          "code": "mg/dL"
        },
        "referenceRange": [
          {
            "low": {
              "value": 0,
              "code": "mg/dL",
              "system": "http://unitsofmeasure.org"
            }
          },
          {
            "high": {
              "value": 130,
              "code": "mg/dL",
              "system": "http://unitsofmeasure.org"
            }
          }
        ],
        "text": {
          "status": "generated",
          "div": "<div xmlns=\"http://www.w3.org/1999/xhtml\"><table class=\"hl7__eu__lab__report\"><tr><th>Test</th><th>25-Oct-2016</th><th>Reference&#xA0;Range</th><th>Unit</th></tr><tr><td>Cholesterol in LDL [Mass/volume] in Serum or Plasma by Direct assay</td><td>41.2</td><td>0 - 130</td><td></td><td>mg/dL</td></tr></table></div>"
        },
        "status": "final",
        "subject": {
          "reference": "urn:uuid:e3732aa1-623f-4e27-8667-8893dabd7251",
          "display": "Louise Köster"
        },
        "effectiveDateTime": "2016-10-25T04:02:53Z",
        "specimen": {
          "reference": "urn:uuid:c47a70d2-9f4d-491b-af06-fe15f09ac5f7"
        }
      }
    },
    {
      "fullUrl": "urn:uuid:9a1729d9-6cd8-460c-a52c-59145de753ca",
      "resource": {
        "resourceType": "Observation",
        "id": "9a1729d9-6cd8-460c-a52c-59145de753ca",
        "meta": {
          "profile": [
            "http://hl7.eu/fhir/laboratory/StructureDefinition/Observation-resultslab-eu-lab"
          ]
        },
        "performer": [
          {
            "display": "The Central European Lab"
          }
        ],
        "category": [
          {
            "coding": [
              {
                "system": "http://terminology.hl7.org/CodeSystem/observation-category",
                "code": "laboratory"
              }
            ]
          }
        ],
        "code": {
          "coding": [
            {
              "code": "2085-9",
              "system": "http://loinc.org",
              "display": "Cholesterol in HDL [Mass/volume] in Serum or Plasma"
            }
          ],
          "text": "Cholesterol in HDL [Mass/volume] in Serum or Plasma"
        },
        "valueQuantity": {
          "system": "http://unitsofmeasure.org",
          "value": 55.6,
          "unit": "mg/dL",
          "code": "mg/dL"
        },
        "referenceRange": [
          {
            "low": {
              "value": 50,
              "code": "mg/dL",
              "system": "http://unitsofmeasure.org"
            }
          },
          {
            "high": {
              "value": 100,
              "code": "mg/dL",
              "system": "http://unitsofmeasure.org"
            }
          }
        ],
        "text": {
          "status": "generated",
          "div": "<div xmlns=\"http://www.w3.org/1999/xhtml\"><table class=\"hl7__eu__lab__report\"><tr><th>Test</th><th>25-Oct-2016</th><th>Reference&#xA0;Range</th><th>Unit</th></tr><tr><td>Cholesterol in HDL [Mass/volume] in Serum or Plasma</td><td>55.6</td><td>50 - 100</td><td></td><td>mg/dL</td></tr></table></div>"
        },
        "status": "final",
        "subject": {
          "reference": "urn:uuid:e3732aa1-623f-4e27-8667-8893dabd7251",
          "display": "Louise Köster"
        },
        "effectiveDateTime": "2016-10-25T04:02:53Z",
        "specimen": {
          "reference": "urn:uuid:c47a70d2-9f4d-491b-af06-fe15f09ac5f7"
        }
      }
    },
    {
      "fullUrl": "urn:uuid:559dd50c-c99a-48b7-937f-e968b9cd6f09",
      "resource": {
        "resourceType": "Device",
        "id": "559dd50c-c99a-48b7-937f-e968b9cd6f09",
        "deviceName": [
          {
            "name": "SYNDERAI Synthetic Generator",
            "type": "manufacturer-name"
          }
        ],
        "version": [
          {
            "value": "5.0"
          }
        ],
        "text": {
          "status": "generated",
          "div": "<div xmlns=\"http://www.w3.org/1999/xhtml\">SYNDERAI Synthetic Generator v5.0</div>"
        },
        "status": "active\"",
        "distinctIdentifier": "synderai-generator-50",
        "manufacturer": "SYNDERAI Project"
      }
    },
    {
      "fullUrl": "urn:uuid:5651088c-c77f-4093-a0e7-f8a0e729a53f",
      "resource": {
        "resourceType": "Provenance",
        "id": "5651088c-c77f-4093-a0e7-f8a0e729a53f",
        "target": [
          {
            "reference": "Patient/e3732aa1-623f-4e27-8667-8893dabd7251"
          },
          {
            "reference": "Bundle/c0734dc8-b6f4-4beb-8eb4-d30158fa0912"
          },
          {
            "reference": "Composition/9ab3655e-e04a-49c3-90d3-0027898a4a44"
          },
          {
            "reference": "PractitionerRole/3c57a344-29b4-4f39-8ab3-9834894bb99e"
          },
          {
            "reference": "Practitioner/8b37603a-82d3-420c-ac40-59272fbe77c9"
          },
          {
            "reference": "PractitionerRole/27ddcbe4-3402-4d7f-86a9-25a370a6e979"
          },
          {
            "reference": "Organization/f8adee05-d67c-4c3d-875b-11be035dfb3d"
          }
        ],
        "activity": {
          "text": "Synthetic Example Data Generation"
        },
        "policy": [
          "https://synderai.net/synderai-synthetic-data-policy"
        ],
        "agent": [
          {
            "type": {
              "text": "author"
            },
            "who": {
              "reference": "Device/559dd50c-c99a-48b7-937f-e968b9cd6f09"
            }
          }
        ],
        "reason": [
          {
            "text": "Interoperability Testing and Training (non-clinical use)"
          }
        ],
        "text": {
          "status": "generated",
          "div": "<div xmlns=\"http://www.w3.org/1999/xhtml\">Provenance for SYNDERAI Synthetic Example Data Resource</div>"
        },
        "recorded": "2016-10-25T06:02:53Z"
      }
    },
    {
      "fullUrl": "urn:uuid:3c57a344-29b4-4f39-8ab3-9834894bb99e",
      "resource": {
        "resourceType": "PractitionerRole",
        "id": "3c57a344-29b4-4f39-8ab3-9834894bb99e",
        "meta": {
          "profile": [
            "http://hl7.eu/fhir/base/StructureDefinition/practitionerRole-eu"
          ]
        },
        "text": {
          "status": "generated",
          "div": "<div xmlns=\"http://www.w3.org/1999/xhtml\">Laboratory Role Id: 3c57a344-29b4-4f39-8ab3-9834894bb99e</div>"
        },
        "practitioner": {
          "reference": "urn:uuid:8b37603a-82d3-420c-ac40-59272fbe77c9"
        }
      }
    },
    {
      "fullUrl": "urn:uuid:8b37603a-82d3-420c-ac40-59272fbe77c9",
      "resource": {
        "resourceType": "Practitioner",
        "id": "8b37603a-82d3-420c-ac40-59272fbe77c9",
        "meta": {
          "profile": [
            "http://hl7.eu/fhir/base/StructureDefinition/practitioner-eu"
          ]
        },
        "identifier": [
          {
            "assigner": {
              "display": "HL7 Europe"
            },
            "system": "urn:oid:2.16.840.1.113883.2.51.999",
            "value": "74bb4c85-a3ce-40e5-af2c-4dea1880459a"
          }
        ],
        "name": [
          {
            "prefix": [
              "dr"
            ],
            "given": [
              "Ex"
            ],
            "family": "Ample"
          }
        ],
        "address": [
          {
            "line": [
              "Laboratoire Central Européenne",
              "Boulevard du Jardin Botanique 32"
            ],
            "postalCode": "1000",
            "city": "Brussels",
            "country": "Belgium"
          }
        ],
        "text": {
          "status": "generated",
          "div": "<div xmlns=\"http://www.w3.org/1999/xhtml\">Laboratory: Laboratoire Central Européenne, 1000 Brussels, Belgium</div>"
        }
      }
    }
  ],
  "type": "document",
  "timestamp": "2016-10-25T06:02:53Z"
}
