{
  "resourceType": "Bundle",
  "id": "41c7691f-8c8c-403c-b451-c038027c6320",
  "meta": {
    "profile": [
      "http://hl7.eu/fhir/laboratory/StructureDefinition/Bundle-eu-lab"
    ]
  },
  "identifier": {
    "assigner": {
      "display": "HL7 Europe"
    },
    "system": "urn:oid:2.16.840.1.113883.2.51.999",
    "value": "222db4d9-e5e6-45b2-b688-357fee6b90a1"
  },
  "entry": [
    {
      "fullUrl": "urn:uuid:08561d61-1428-43e9-ba0b-911df873419a",
      "resource": {
        "resourceType": "Composition",
        "id": "08561d61-1428-43e9-ba0b-911df873419a",
        "meta": {
          "profile": [
            "http://hl7.eu/fhir/laboratory/StructureDefinition/Composition-eu-lab"
          ]
        },
        "identifier": {
          "assigner": {
            "display": "HL7 Europe"
          },
          "system": "urn:oid:2.16.840.1.113883.2.51.999",
          "value": "36dce04f-6e16-43eb-9e51-44857172447d"
        },
        "author": [
          {
            "reference": "urn:uuid:4050efce-35d8-473c-9c8d-30dc12965c19"
          }
        ],
        "category": [
          {
            "coding": [
              {
                "code": "26436-6",
                "system": "http://loinc.org",
                "display": "Laboratory studies (set)"
              }
            ]
          }
        ],
        "type": {
          "coding": [
            {
              "code": "11502-2",
              "system": "http://loinc.org",
              "display": "Laboratory report"
            }
          ],
          "text": "Laboratory Report"
        },
        "section": [
          {
            "code": {
              "coding": [
                {
                  "code": "26436-6",
                  "system": "http://loinc.org",
                  "display": "Laboratory studies (set)"
                }
              ],
              "text": "Laboratory studies"
            },
            "section": [
              {
                "code": {
                  "coding": [
                    {
                      "code": "$18719-5",
                      "system": "http://loinc.org",
                      "display": "Chemistry studies (set)"
                    }
                  ],
                  "text": "Chemistry"
                },
                "entry": [
                  {
                    "reference": "urn:uuid:b4bd63c8-e3a8-4c1c-b6a1-6e2dfbb7ac90"
                  },
                  {
                    "reference": "urn:uuid:a972b9c2-487d-48f2-8eee-7574a33140a0"
                  },
                  {
                    "reference": "urn:uuid:4f84a55e-f483-4fd3-bb55-f28798a73318"
                  },
                  {
                    "reference": "urn:uuid:4d69553b-0abb-4e2c-8a3f-929a3aa01b20"
                  },
                  {
                    "reference": "urn:uuid:9f62e8fa-059f-498f-b227-f1fdb7f9f5e4"
                  },
                  {
                    "reference": "urn:uuid:c9c5df8d-4ffd-4026-b22c-173b453f509c"
                  },
                  {
                    "reference": "urn:uuid:87a19caa-b324-47e0-9ce2-13db1f4708d2"
                  },
                  {
                    "reference": "urn:uuid:adfef6cb-2c2f-4374-9aaf-d29e0b22dd31"
                  },
                  {
                    "reference": "urn:uuid:64b9f583-48d7-4a6a-9258-0e9402862253"
                  },
                  {
                    "reference": "urn:uuid:c7bb656d-8ebe-4b41-9fbf-3e0ad2a76415"
                  },
                  {
                    "reference": "urn:uuid:a14e06fc-50b5-42ca-bef7-20335bdc5650"
                  },
                  {
                    "reference": "urn:uuid:1229eea7-d5a3-4337-93f2-c46a68bfb0c4"
                  },
                  {
                    "reference": "urn:uuid:703f3b0a-e90b-44bb-962c-0bb578b66f07"
                  },
                  {
                    "reference": "urn:uuid:6c529d50-bb32-46ee-b4fc-1695749e2571"
                  },
                  {
                    "reference": "urn:uuid:613aa435-a092-45b5-af2d-b203e8afcb17"
                  },
                  {
                    "reference": "urn:uuid:4cf06554-b9d3-4248-afc5-3a801a1b5c10"
                  },
                  {
                    "reference": "urn:uuid:342f1d1c-cd60-4387-a020-deee95eb9396"
                  },
                  {
                    "reference": "urn:uuid:b880dafc-d5b4-4b19-bb51-7cc5249bac54"
                  }
                ],
                "text": {
                  "status": "generated",
                  "div": "<div xmlns=\"http://www.w3.org/1999/xhtml\"><h3>Chemistry</h3><table class=\"hl7__eu__lab__report\"><thead><tr><th>Test</th><th>06-JAN-2016</th><th>Reference&#xA0;Range</th><th>Unit</th></tr></thead><tbody><tr><td>Glucose [Mass/volume] in Serum or Plasma</td><td>87.6</td><td>70 - 140</td><td>mg/dL</td></tr><tr><td>Urea nitrogen [Mass/volume] in Serum or Plasma</td><td>16.0</td><td>7 - 20</td><td>mg/dL</td></tr><tr><td>Creatinine [Mass/volume] in Serum or Plasma</td><td><strong>2.1 H</strong></td><td>0.9 - 1.3</td><td>mg/dL</td></tr><tr><td>Calcium [Mass/volume] in Serum or Plasma</td><td>8.6</td><td>8.5 - 10.5</td><td>mg/dL</td></tr><tr><td>Sodium [Moles/volume] in Serum or Plasma</td><td>137.5</td><td>135 - 145</td><td>mmol/L</td></tr><tr><td>Potassium [Moles/volume] in Serum or Plasma</td><td>3.9</td><td>3.5 - 5</td><td>mmol/L</td></tr><tr><td>Chloride [Moles/volume] in Serum or Plasma</td><td>104.2</td><td>98 - 108</td><td>mmol/L</td></tr><tr><td>Carbon dioxide, total [Moles/volume] in Serum or Plasma</td><td>22.8</td><td>22 - 29</td><td>mmol/L</td></tr><tr><td>Ketones [Presence] in Urine by Test strip</td><td>Urine ketone test = +</td><td></td><td></td></tr><tr><td>Hemoglobin A1c/Hemoglobin.total in Blood</td><td><strong>3.3 L</strong></td><td>4.3 - 6.4</td><td>%</td></tr><tr><td>Glucose [Mass/volume] in Blood</td><td>87.6</td><td>70 - 140</td><td>mg/dL</td></tr><tr><td>Urea nitrogen [Mass/volume] in Blood</td><td>16.0</td><td>7 - 20</td><td>mg/dL</td></tr><tr><td>Creatinine [Mass/volume] in Blood</td><td><strong>3.9 H</strong></td><td>0.6 - 1.3</td><td>mg/dL</td></tr><tr><td>Calcium [Mass/volume] in Blood</td><td>8.6</td><td>8.5 - 10.5</td><td>mg/dL</td></tr><tr><td>Sodium [Moles/volume] in Blood</td><td>137.5</td><td>135 - 145</td><td>mmol/L</td></tr><tr><td>Potassium [Moles/volume] in Blood</td><td>3.9</td><td>3.5 - 5.3</td><td>mmol/L</td></tr><tr><td>Chloride [Moles/volume] in Blood</td><td>104.2</td><td>98 - 110</td><td>mmol/L</td></tr><tr><td>Carbon dioxide, total [Moles/volume] in Blood</td><td>22.8</td><td>22 - 29</td><td>mmol/L</td></tr></tbody></table></div>"
                },
                "title": "Chemistry"
              },
              {
                "code": {
                  "coding": [
                    {
                      "code": "$18729-4",
                      "system": "http://loinc.org",
                      "display": "Urinalysis studies (set)"
                    }
                  ],
                  "text": "Urinalysis"
                },
                "entry": [
                  {
                    "reference": "urn:uuid:c77295e9-7c03-497a-968c-98a9042a2252"
                  },
                  {
                    "reference": "urn:uuid:f45eea77-2794-436a-9fef-30c7a5bf1f9a"
                  },
                  {
                    "reference": "urn:uuid:29b2f205-8618-45a0-aee5-9c0d4f1ad541"
                  },
                  {
                    "reference": "urn:uuid:03def43e-7ce5-42c1-9b34-5831d244db1f"
                  },
                  {
                    "reference": "urn:uuid:8d5155e7-61ef-420b-b5dd-0004e950eaf2"
                  },
                  {
                    "reference": "urn:uuid:985972f0-e80a-4a19-9229-8da5e0be5b86"
                  },
                  {
                    "reference": "urn:uuid:905e4ae7-3d5d-44bc-ad1b-878658658f21"
                  },
                  {
                    "reference": "urn:uuid:dd0e6b7a-9a90-457f-bd7b-d2bb184f20c5"
                  },
                  {
                    "reference": "urn:uuid:48b4f418-7aac-4c14-a9c5-a2f98d9a8bfd"
                  },
                  {
                    "reference": "urn:uuid:353a621f-f81f-45f0-b2d5-f92bbed9ac0a"
                  },
                  {
                    "reference": "urn:uuid:257f12ea-46bb-41f6-a7c5-b824cbb040e0"
                  },
                  {
                    "reference": "urn:uuid:dcaf9b7f-cd37-43a5-a620-4bb4b29458d5"
                  }
                ],
                "text": {
                  "status": "generated",
                  "div": "<div xmlns=\"http://www.w3.org/1999/xhtml\"><h3>Urinalysis</h3><table class=\"hl7__eu__lab__report\"><thead><tr><th>Test</th><th>06-JAN-2016</th><th>Reference&#xA0;Range</th><th>Unit</th></tr></thead><tbody><tr><td>Glucose [Mass/volume] in Urine by Test strip</td><td><strong>1.1 H</strong></td><td>0 - 0.8</td><td>mg/dL</td></tr><tr><td>Glucose [Presence] in Urine by Test strip</td><td>++</td><td></td><td></td></tr><tr><td>Bilirubin.total [Mass/volume] in Urine by Test strip</td><td><strong>1.1 H</strong></td><td>0.2 - 1</td><td>mg/dL</td></tr><tr><td>Bilirubin.total [Presence] in Urine by Test strip</td><td>Finding of bilirubin in urine</td><td></td><td></td></tr><tr><td>Ketones [Mass/volume] in Urine by Test strip</td><td>2.3</td><td>0 - 5</td><td>mg/dL</td></tr><tr><td>Specific gravity of Urine by Test strip</td><td><strong>1.0 L</strong></td><td>1.005 - 1.03</td><td>{nominal}</td></tr><tr><td>pH of Urine by Test strip</td><td>5.3</td><td>4.6 - 7</td><td>pH</td></tr><tr><td>Protein [Mass/volume] in Urine by Test strip</td><td><strong>273.3 H</strong></td><td>0 - 150</td><td>mg/dL</td></tr><tr><td>Protein [Presence] in Urine by Test strip</td><td>Urine protein test = ++</td><td></td><td></td></tr><tr><td>Nitrite [Presence] in Urine by Test strip</td><td>Urine nitrite negative</td><td></td><td></td></tr><tr><td>Hemoglobin [Presence] in Urine by Test strip</td><td>Urine blood test = negative</td><td></td><td></td></tr><tr><td>Leukocyte esterase [Presence] in Urine by Test strip</td><td>Urine leukocyte test negative</td><td></td><td></td></tr></tbody></table></div>"
                },
                "title": "Urinalysis"
              },
              {
                "code": {
                  "coding": [
                    {
                      "code": "$LP7846-1",
                      "system": "http://loinc.org",
                      "display": "Specimen information"
                    }
                  ],
                  "text": "Specimen information"
                },
                "entry": [
                  {
                    "reference": "urn:uuid:8d35b9e4-5583-4fe7-9982-029288b8a549"
                  },
                  {
                    "reference": "urn:uuid:45d43618-34d8-4d8f-9e0b-d384f6b08e5f"
                  },
                  {
                    "reference": "urn:uuid:64b36d7d-0619-4be5-9cf4-7fccb6b418a9"
                  },
                  {
                    "reference": "urn:uuid:a3725e16-ec0a-49d6-afec-1c0412723f94"
                  }
                ],
                "text": {
                  "status": "generated",
                  "div": "<div xmlns=\"http://www.w3.org/1999/xhtml\"><h3>Specimen information</h3><table class=\"hl7__eu__lab__report\"><thead><tr><th>Test</th><th>06-JAN-2016</th><th>Specimen</th><th></th></tr></thead><tbody><tr><td>Appearance of Urine</td><td>Cloudy urine</td><td>Urine</td><td></td></tr><tr><td>Odor of Urine</td><td>Urine smell ammoniacal</td><td>Urine</td><td></td></tr><tr><td>Clarity of Urine</td><td>Translucent</td><td>Urine</td><td></td></tr><tr><td>Color of Urine</td><td>Brown color</td><td>Urine</td><td></td></tr></tbody></table></div>"
                },
                "title": "Specimen information"
              }
            ],
            "title": "Laboratory Report"
          },
          {
            "text": {
              "status": "generated",
              "div": "<div xmlns=\"http://www.w3.org/1999/xhtml\"><h3>Annotation</h3><table class=\"hl7__eu__lab__report\"><tr><th>Conclusion and Recommendations based on this report and previous findings known to us</th></tr><tr><td>The patient shows significantly elevated creatinine, proteinuria, glucosuria, and bilirubinuria, with low urine specific gravity and abnormal urine appearance, suggesting impaired renal function, likely nephropathy. Blood glucose and HbA1c are not elevated, making diabetes less likely. No evidence of urinary tract infection. Recommend urgent nephrology evaluation for possible chronic kidney disease and further assessment of underlying etiology.</td></tr></table></div>"
            },
            "code": {
              "coding": [
                {
                  "system": "http://loinc.org",
                  "code": "48767-8",
                  "display": "Annotation comment"
                }
              ]
            },
            "title": "Annotation comment"
          }
        ],
        "status": "final",
        "subject": {
          "reference": "urn:uuid:ed0a60b9-0ef5-4fcd-adf0-b24bcf9f8632",
          "display": "Θεμιστοκλής Λιναρδάκη"
        },
        "date": "2016-01-06T07:16:00Z",
        "title": "Laboratory Report",
        "confidentiality": "N"
      }
    },
    {
      "fullUrl": "urn:uuid:aa6e7c83-5b85-444f-b8a2-3aaa1f8bc84d",
      "resource": {
        "resourceType": "DiagnosticReport",
        "id": "aa6e7c83-5b85-444f-b8a2-3aaa1f8bc84d",
        "meta": {
          "profile": [
            "http://hl7.eu/fhir/laboratory/StructureDefinition/DiagnosticReport-eu-lab"
          ]
        },
        "identifier": [
          {
            "assigner": {
              "display": "HL7 Europe"
            },
            "system": "urn:oid:2.16.840.1.113883.2.51.999",
            "value": "e8600c76-dbcd-42c4-b4db-875030bdd6fe"
          }
        ],
        "extension": [
          {
            "url": "http://hl7.org/fhir/5.0/StructureDefinition/extension-DiagnosticReport.composition",
            "valueReference": {
              "reference": "urn:uuid:36dce04f-6e16-43eb-9e51-44857172447d"
            }
          }
        ],
        "category": [
          {
            "coding": [
              {
                "code": "26436-6",
                "system": "http://loinc.org",
                "display": "Laboratory studies (set)"
              }
            ]
          }
        ],
        "specimen": [
          {
            "reference": "urn:uuid:81150387-0058-416d-9b5d-cfbc387b9240"
          },
          {
            "reference": "urn:uuid:90dcbd1c-7050-42ee-9966-e693e8dc47c8"
          },
          {
            "reference": "urn:uuid:f06d466f-0786-4ea1-8baa-a3a4fb0d3770"
          }
        ],
        "result": [
          {
            "reference": "urn:uuid:b4bd63c8-e3a8-4c1c-b6a1-6e2dfbb7ac90"
          },
          {
            "reference": "urn:uuid:a972b9c2-487d-48f2-8eee-7574a33140a0"
          },
          {
            "reference": "urn:uuid:4f84a55e-f483-4fd3-bb55-f28798a73318"
          },
          {
            "reference": "urn:uuid:4d69553b-0abb-4e2c-8a3f-929a3aa01b20"
          },
          {
            "reference": "urn:uuid:9f62e8fa-059f-498f-b227-f1fdb7f9f5e4"
          },
          {
            "reference": "urn:uuid:c9c5df8d-4ffd-4026-b22c-173b453f509c"
          },
          {
            "reference": "urn:uuid:87a19caa-b324-47e0-9ce2-13db1f4708d2"
          },
          {
            "reference": "urn:uuid:adfef6cb-2c2f-4374-9aaf-d29e0b22dd31"
          },
          {
            "reference": "urn:uuid:8d35b9e4-5583-4fe7-9982-029288b8a549"
          },
          {
            "reference": "urn:uuid:45d43618-34d8-4d8f-9e0b-d384f6b08e5f"
          },
          {
            "reference": "urn:uuid:64b36d7d-0619-4be5-9cf4-7fccb6b418a9"
          },
          {
            "reference": "urn:uuid:a3725e16-ec0a-49d6-afec-1c0412723f94"
          },
          {
            "reference": "urn:uuid:c77295e9-7c03-497a-968c-98a9042a2252"
          },
          {
            "reference": "urn:uuid:f45eea77-2794-436a-9fef-30c7a5bf1f9a"
          },
          {
            "reference": "urn:uuid:29b2f205-8618-45a0-aee5-9c0d4f1ad541"
          },
          {
            "reference": "urn:uuid:03def43e-7ce5-42c1-9b34-5831d244db1f"
          },
          {
            "reference": "urn:uuid:8d5155e7-61ef-420b-b5dd-0004e950eaf2"
          },
          {
            "reference": "urn:uuid:64b9f583-48d7-4a6a-9258-0e9402862253"
          },
          {
            "reference": "urn:uuid:985972f0-e80a-4a19-9229-8da5e0be5b86"
          },
          {
            "reference": "urn:uuid:905e4ae7-3d5d-44bc-ad1b-878658658f21"
          },
          {
            "reference": "urn:uuid:dd0e6b7a-9a90-457f-bd7b-d2bb184f20c5"
          },
          {
            "reference": "urn:uuid:48b4f418-7aac-4c14-a9c5-a2f98d9a8bfd"
          },
          {
            "reference": "urn:uuid:353a621f-f81f-45f0-b2d5-f92bbed9ac0a"
          },
          {
            "reference": "urn:uuid:257f12ea-46bb-41f6-a7c5-b824cbb040e0"
          },
          {
            "reference": "urn:uuid:dcaf9b7f-cd37-43a5-a620-4bb4b29458d5"
          },
          {
            "reference": "urn:uuid:c7bb656d-8ebe-4b41-9fbf-3e0ad2a76415"
          },
          {
            "reference": "urn:uuid:a14e06fc-50b5-42ca-bef7-20335bdc5650"
          },
          {
            "reference": "urn:uuid:1229eea7-d5a3-4337-93f2-c46a68bfb0c4"
          },
          {
            "reference": "urn:uuid:703f3b0a-e90b-44bb-962c-0bb578b66f07"
          },
          {
            "reference": "urn:uuid:6c529d50-bb32-46ee-b4fc-1695749e2571"
          },
          {
            "reference": "urn:uuid:613aa435-a092-45b5-af2d-b203e8afcb17"
          },
          {
            "reference": "urn:uuid:4cf06554-b9d3-4248-afc5-3a801a1b5c10"
          },
          {
            "reference": "urn:uuid:342f1d1c-cd60-4387-a020-deee95eb9396"
          },
          {
            "reference": "urn:uuid:b880dafc-d5b4-4b19-bb51-7cc5249bac54"
          }
        ],
        "status": "registered",
        "code": {
          "coding": [
            {
              "code": "11502-2",
              "system": "http://loinc.org",
              "display": "Laboratory report"
            }
          ]
        },
        "subject": {
          "reference": "urn:uuid:ed0a60b9-0ef5-4fcd-adf0-b24bcf9f8632",
          "display": "Θεμιστοκλής Λιναρδάκη"
        }
      }
    },
    {
      "fullUrl": "urn:uuid:ed0a60b9-0ef5-4fcd-adf0-b24bcf9f8632",
      "resource": {
        "resourceType": "Patient",
        "id": "ed0a60b9-0ef5-4fcd-adf0-b24bcf9f8632",
        "meta": {
          "security": [
            {
              "system": "http://terminology.hl7.org/CodeSystem/v3-ActReason",
              "code": "HTEST"
            },
            {
              "system": "http://terminology.hl7.org/CodeSystem/v3-ActReason",
              "code": "TRAIN"
            }
          ],
          "tag": [
            {
              "system": "https://synderai.net/fhir/CodeSystem/tags",
              "code": "synthetic",
              "display": "SYNDERAI Synthetic data"
            }
          ],
          "profile": [
            "http://hl7.eu/fhir/base/StructureDefinition/patient-eu-core"
          ]
        },
        "identifier": [
          {
            "type": {
              "coding": [
                {
                  "code": "PT",
                  "system": "http://terminology.hl7.org/CodeSystem/v2-0203"
                }
              ]
            },
            "system": "http://ec.europa.eu/identifier/eci",
            "value": "5962-476889-7"
          },
          {
            "type": {
              "coding": [
                {
                  "code": "MR",
                  "system": "http://terminology.hl7.org/CodeSystem/v2-0203"
                }
              ]
            },
            "system": "http://local.setting.eu/identifier",
            "value": "925e2603-2ef9-6bdf-1330-2ebf526636c4"
          }
        ],
        "name": [
          {
            "family": "Λιναρδάκη"
          },
          {
            "given": [
              "Θεμιστοκλής"
            ]
          },
          {
            "text": "Θεμιστοκλής Λιναρδάκη"
          }
        ],
        "address": [
          {
            "line": [
              "Αμαρύνθου 54-58"
            ],
            "use": "home",
            "type": "physical",
            "postalCode": "262 21",
            "city": "Πάτρα",
            "country": "Greece"
          }
        ],
        "telecom": [
          {
            "system": "phone",
            "value": "+302226364480"
          }
        ],
        "extension": [
          {
            "url": "http://hl7.org/fhir/StructureDefinition/patient-nationality",
            "valueCodeableConcept": {
              "coding": [
                {
                  "code": "GR",
                  "system": "http://hl7.org/fhir/ValueSet/country"
                }
              ]
            }
          }
        ],
        "text": {
          "status": "generated",
          "div": "<div xmlns=\"http://www.w3.org/1999/xhtml\"><table class=\"hl7__ips\"><tr><td>Θεμιστοκλής Λιναρδάκη</td><td>male</td><td>21-Jan-1974</td></tr></table></div>"
        },
        "gender": "male",
        "birthDate": "1974-01-21"
      }
    },
    {
      "fullUrl": "urn:uuid:69018b11-58d4-4c9b-b7e0-42d66bbce17b",
      "resource": {
        "resourceType": "ServiceRequest",
        "id": "69018b11-58d4-4c9b-b7e0-42d66bbce17b",
        "meta": {
          "profile": [
            "http://hl7.eu/fhir/laboratory/StructureDefinition/ServiceRequest-eu-lab"
          ]
        },
        "identifier": [
          {
            "system": "http://example.org",
            "value": "c372928e-c770-4154-8361-f490a6a574cc"
          }
        ],
        "specimen": [
          {
            "reference": "urn:uuid:81150387-0058-416d-9b5d-cfbc387b9240"
          },
          {
            "reference": "urn:uuid:90dcbd1c-7050-42ee-9966-e693e8dc47c8"
          },
          {
            "reference": "urn:uuid:f06d466f-0786-4ea1-8baa-a3a4fb0d3770"
          }
        ],
        "reasonCode": [
          {
            "coding": [
              {
                "code": "237602007",
                "system": "http://snomed.info/sct",
                "display": "Metabolic syndrome X"
              }
            ]
          },
          {
            "coding": [
              {
                "code": "433144002",
                "system": "http://snomed.info/sct",
                "display": "Chronic kidney disease stage 3"
              }
            ]
          },
          {
            "coding": [
              {
                "code": "157141000119108",
                "system": "http://snomed.info/sct",
                "display": "Proteinuria due to type 2 diabetes mellitus"
              }
            ]
          },
          {
            "coding": [
              {
                "code": "431856006",
                "system": "http://snomed.info/sct",
                "display": "Chronic kidney disease stage 2"
              }
            ]
          },
          {
            "coding": [
              {
                "code": "90781000119102",
                "system": "http://snomed.info/sct",
                "display": "Microalbuminuria due to type 2 diabetes mellitus"
              }
            ]
          },
          {
            "coding": [
              {
                "code": "127013003",
                "system": "http://snomed.info/sct",
                "display": "Disorder of kidney due to diabetes mellitus"
              }
            ]
          },
          {
            "coding": [
              {
                "code": "431855005",
                "system": "http://snomed.info/sct",
                "display": "Chronic kidney disease stage 1"
              }
            ]
          },
          {
            "coding": [
              {
                "code": "59621000",
                "system": "http://snomed.info/sct",
                "display": "Essential hypertension"
              }
            ]
          },
          {
            "coding": [
              {
                "code": "15777000",
                "system": "http://snomed.info/sct",
                "display": "Prediabetes"
              }
            ]
          },
          {
            "coding": [
              {
                "code": "271737000",
                "system": "http://snomed.info/sct",
                "display": "Anemia"
              }
            ]
          }
        ],
        "status": "active",
        "intent": "order",
        "code": {
          "coding": [
            {
              "code": "108252007",
              "system": "http://snomed.info/sct",
              "display": "Laboratory procedure"
            }
          ]
        },
        "subject": {
          "reference": "urn:uuid:ed0a60b9-0ef5-4fcd-adf0-b24bcf9f8632",
          "display": "Θεμιστοκλής Λιναρδάκη"
        },
        "requester": {
          "reference": "urn:uuid:548dc9a1-3ae4-457d-85bb-dfe543394f63"
        }
      }
    },
    {
      "fullUrl": "urn:uuid:548dc9a1-3ae4-457d-85bb-dfe543394f63",
      "resource": {
        "resourceType": "PractitionerRole",
        "id": "548dc9a1-3ae4-457d-85bb-dfe543394f63",
        "meta": {
          "profile": [
            "http://hl7.eu/fhir/base/StructureDefinition/practitionerRole-eu"
          ]
        },
        "text": {
          "status": "generated",
          "div": "<div xmlns=\"http://www.w3.org/1999/xhtml\">Provider Role Id: 548dc9a1-3ae4-457d-85bb-dfe543394f63</div>"
        },
        "organization": {
          "reference": "urn:uuid:32f906ba-4312-4b3e-935c-4eacf158dfc7"
        }
      }
    },
    {
      "fullUrl": "urn:uuid:32f906ba-4312-4b3e-935c-4eacf158dfc7",
      "resource": {
        "resourceType": "Organization",
        "id": "32f906ba-4312-4b3e-935c-4eacf158dfc7",
        "meta": {
          "profile": [
            "http://hl7.eu/fhir/base/StructureDefinition/organization-eu"
          ]
        },
        "identifier": [
          {
            "assigner": {
              "display": "HL7 Europe"
            },
            "system": "urn:oid:2.16.840.1.113883.2.51.999",
            "value": "af143482-a4fa-4810-a542-e0fc8237ee40"
          }
        ],
        "address": [
          {
            "line": [
              "211 Odós Filellinon"
            ],
            "city": "Patras",
            "postalCode": "262 21",
            "country": "Greece"
          }
        ],
        "text": {
          "status": "generated",
          "div": "<div xmlns=\"http://www.w3.org/1999/xhtml\">Provider Organization: Dr. Dimitris Economou</div>"
        },
        "name": "Dr. Dimitris Economou"
      }
    },
    {
      "fullUrl": "urn:uuid:81150387-0058-416d-9b5d-cfbc387b9240",
      "resource": {
        "resourceType": "Specimen",
        "id": "81150387-0058-416d-9b5d-cfbc387b9240",
        "meta": {
          "profile": [
            "http://hl7.eu/fhir/laboratory/StructureDefinition/Specimen-eu-lab"
          ]
        },
        "collection": {
          "collectedDateTime": "2016-01-06"
        },
        "text": {
          "status": "generated",
          "div": "<div xmlns=\"http://www.w3.org/1999/xhtml\"><table class=\"hl7__eu__lab__report\"><tr><th>Specimen</th><th>Collection Date</th></tr><tr><td>Acellular blood (serum or plasma) specimen</td><td><span class=\"nb\">06-Jan-2016</span></td></tr></table></div>"
        },
        "type": {
          "coding": [
            {
              "code": "122592007",
              "system": "http://snomed.info/sct",
              "display": "Acellular blood (serum or plasma) specimen"
            }
          ]
        }
      }
    },
    {
      "fullUrl": "urn:uuid:90dcbd1c-7050-42ee-9966-e693e8dc47c8",
      "resource": {
        "resourceType": "Specimen",
        "id": "90dcbd1c-7050-42ee-9966-e693e8dc47c8",
        "meta": {
          "profile": [
            "http://hl7.eu/fhir/laboratory/StructureDefinition/Specimen-eu-lab"
          ]
        },
        "collection": {
          "collectedDateTime": "2016-01-06"
        },
        "text": {
          "status": "generated",
          "div": "<div xmlns=\"http://www.w3.org/1999/xhtml\"><table class=\"hl7__eu__lab__report\"><tr><th>Specimen</th><th>Collection Date</th></tr><tr><td>Urine specimen</td><td><span class=\"nb\">06-Jan-2016</span></td></tr></table></div>"
        },
        "type": {
          "coding": [
            {
              "code": "122575003",
              "system": "http://snomed.info/sct",
              "display": "Urine specimen"
            }
          ]
        }
      }
    },
    {
      "fullUrl": "urn:uuid:f06d466f-0786-4ea1-8baa-a3a4fb0d3770",
      "resource": {
        "resourceType": "Specimen",
        "id": "f06d466f-0786-4ea1-8baa-a3a4fb0d3770",
        "meta": {
          "profile": [
            "http://hl7.eu/fhir/laboratory/StructureDefinition/Specimen-eu-lab"
          ]
        },
        "collection": {
          "collectedDateTime": "2016-01-06"
        },
        "text": {
          "status": "generated",
          "div": "<div xmlns=\"http://www.w3.org/1999/xhtml\"><table class=\"hl7__eu__lab__report\"><tr><th>Specimen</th><th>Collection Date</th></tr><tr><td>Whole blood specimen (specimen)</td><td><span class=\"nb\">06-Jan-2016</span></td></tr></table></div>"
        },
        "type": {
          "coding": [
            {
              "code": "258580003",
              "system": "http://snomed.info/sct",
              "display": "Whole blood specimen (specimen)"
            }
          ]
        }
      }
    },
    {
      "fullUrl": "urn:uuid:b4bd63c8-e3a8-4c1c-b6a1-6e2dfbb7ac90",
      "resource": {
        "resourceType": "Observation",
        "id": "b4bd63c8-e3a8-4c1c-b6a1-6e2dfbb7ac90",
        "meta": {
          "profile": [
            "http://hl7.eu/fhir/laboratory/StructureDefinition/Observation-resultslab-eu-lab"
          ]
        },
        "performer": [
          {
            "display": "The Central European Lab"
          }
        ],
        "category": [
          {
            "coding": [
              {
                "system": "http://terminology.hl7.org/CodeSystem/observation-category",
                "code": "laboratory"
              }
            ]
          }
        ],
        "code": {
          "coding": [
            {
              "code": "2345-7",
              "system": "http://loinc.org",
              "display": "Glucose [Mass/volume] in Serum or Plasma"
            }
          ],
          "text": "Glucose [Mass/volume] in Serum or Plasma"
        },
        "valueQuantity": {
          "system": "http://unitsofmeasure.org",
          "value": 87.6,
          "unit": "mg/dL",
          "code": "mg/dL"
        },
        "referenceRange": [
          {
            "low": {
              "value": 70,
              "code": "mg/dL",
              "system": "http://unitsofmeasure.org"
            }
          },
          {
            "high": {
              "value": 140,
              "code": "mg/dL",
              "system": "http://unitsofmeasure.org"
            }
          }
        ],
        "text": {
          "status": "generated",
          "div": "<div xmlns=\"http://www.w3.org/1999/xhtml\"><table class=\"hl7__eu__lab__report\"><tr><th>Test</th><th>06-Jan-2016</th><th>Reference&#xA0;Range</th><th>Unit</th></tr><tr><td>Glucose [Mass/volume] in Serum or Plasma</td><td>87.6</td><td>70 - 140</td><td></td><td>mg/dL</td></tr></table></div>"
        },
        "status": "final",
        "subject": {
          "reference": "urn:uuid:ed0a60b9-0ef5-4fcd-adf0-b24bcf9f8632",
          "display": "Θεμιστοκλής Λιναρδάκη"
        },
        "effectiveDateTime": "2016-01-06T06:16:00Z",
        "specimen": {
          "reference": "urn:uuid:81150387-0058-416d-9b5d-cfbc387b9240"
        }
      }
    },
    {
      "fullUrl": "urn:uuid:a972b9c2-487d-48f2-8eee-7574a33140a0",
      "resource": {
        "resourceType": "Observation",
        "id": "a972b9c2-487d-48f2-8eee-7574a33140a0",
        "meta": {
          "profile": [
            "http://hl7.eu/fhir/laboratory/StructureDefinition/Observation-resultslab-eu-lab"
          ]
        },
        "performer": [
          {
            "display": "The Central European Lab"
          }
        ],
        "category": [
          {
            "coding": [
              {
                "system": "http://terminology.hl7.org/CodeSystem/observation-category",
                "code": "laboratory"
              }
            ]
          }
        ],
        "code": {
          "coding": [
            {
              "code": "3094-0",
              "system": "http://loinc.org",
              "display": "Urea nitrogen [Mass/volume] in Serum or Plasma"
            }
          ],
          "text": "Urea nitrogen [Mass/volume] in Serum or Plasma"
        },
        "valueQuantity": {
          "system": "http://unitsofmeasure.org",
          "value": 16,
          "unit": "mg/dL",
          "code": "mg/dL"
        },
        "referenceRange": [
          {
            "low": {
              "value": 7,
              "code": "mg/dL",
              "system": "http://unitsofmeasure.org"
            }
          },
          {
            "high": {
              "value": 20,
              "code": "mg/dL",
              "system": "http://unitsofmeasure.org"
            }
          }
        ],
        "text": {
          "status": "generated",
          "div": "<div xmlns=\"http://www.w3.org/1999/xhtml\"><table class=\"hl7__eu__lab__report\"><tr><th>Test</th><th>06-Jan-2016</th><th>Reference&#xA0;Range</th><th>Unit</th></tr><tr><td>Urea nitrogen [Mass/volume] in Serum or Plasma</td><td>16.0</td><td>7 - 20</td><td></td><td>mg/dL</td></tr></table></div>"
        },
        "status": "final",
        "subject": {
          "reference": "urn:uuid:ed0a60b9-0ef5-4fcd-adf0-b24bcf9f8632",
          "display": "Θεμιστοκλής Λιναρδάκη"
        },
        "effectiveDateTime": "2016-01-06T06:16:00Z",
        "specimen": {
          "reference": "urn:uuid:81150387-0058-416d-9b5d-cfbc387b9240"
        }
      }
    },
    {
      "fullUrl": "urn:uuid:4f84a55e-f483-4fd3-bb55-f28798a73318",
      "resource": {
        "resourceType": "Observation",
        "id": "4f84a55e-f483-4fd3-bb55-f28798a73318",
        "meta": {
          "profile": [
            "http://hl7.eu/fhir/laboratory/StructureDefinition/Observation-resultslab-eu-lab"
          ]
        },
        "performer": [
          {
            "display": "The Central European Lab"
          }
        ],
        "category": [
          {
            "coding": [
              {
                "system": "http://terminology.hl7.org/CodeSystem/observation-category",
                "code": "laboratory"
              }
            ]
          }
        ],
        "code": {
          "coding": [
            {
              "code": "2160-0",
              "system": "http://loinc.org",
              "display": "Creatinine [Mass/volume] in Serum or Plasma"
            }
          ],
          "text": "Creatinine [Mass/volume] in Serum or Plasma"
        },
        "valueQuantity": {
          "system": "http://unitsofmeasure.org",
          "value": 2.1,
          "unit": "mg/dL",
          "code": "mg/dL"
        },
        "referenceRange": [
          {
            "low": {
              "value": 0.9,
              "code": "mg/dL",
              "system": "http://unitsofmeasure.org"
            }
          },
          {
            "high": {
              "value": 1.3,
              "code": "mg/dL",
              "system": "http://unitsofmeasure.org"
            }
          }
        ],
        "interpretation": [
          {
            "coding": [
              {
                "code": "H",
                "system": "http://terminology.hl7.org/CodeSystem/v3-ObservationInterpretation",
                "display": "High"
              }
            ]
          }
        ],
        "text": {
          "status": "generated",
          "div": "<div xmlns=\"http://www.w3.org/1999/xhtml\"><table class=\"hl7__eu__lab__report\"><tr><th>Test</th><th>06-Jan-2016</th><th>Reference&#xA0;Range</th><th>Unit</th></tr><tr><td>Creatinine [Mass/volume] in Serum or Plasma</td><td>2.1</td><td>0.9 - 1.3</td><td>H</td><td>mg/dL</td></tr></table></div>"
        },
        "status": "final",
        "subject": {
          "reference": "urn:uuid:ed0a60b9-0ef5-4fcd-adf0-b24bcf9f8632",
          "display": "Θεμιστοκλής Λιναρδάκη"
        },
        "effectiveDateTime": "2016-01-06T06:16:00Z",
        "specimen": {
          "reference": "urn:uuid:81150387-0058-416d-9b5d-cfbc387b9240"
        }
      }
    },
    {
      "fullUrl": "urn:uuid:4d69553b-0abb-4e2c-8a3f-929a3aa01b20",
      "resource": {
        "resourceType": "Observation",
        "id": "4d69553b-0abb-4e2c-8a3f-929a3aa01b20",
        "meta": {
          "profile": [
            "http://hl7.eu/fhir/laboratory/StructureDefinition/Observation-resultslab-eu-lab"
          ]
        },
        "performer": [
          {
            "display": "The Central European Lab"
          }
        ],
        "category": [
          {
            "coding": [
              {
                "system": "http://terminology.hl7.org/CodeSystem/observation-category",
                "code": "laboratory"
              }
            ]
          }
        ],
        "code": {
          "coding": [
            {
              "code": "17861-6",
              "system": "http://loinc.org",
              "display": "Calcium [Mass/volume] in Serum or Plasma"
            }
          ],
          "text": "Calcium [Mass/volume] in Serum or Plasma"
        },
        "valueQuantity": {
          "system": "http://unitsofmeasure.org",
          "value": 8.6,
          "unit": "mg/dL",
          "code": "mg/dL"
        },
        "referenceRange": [
          {
            "low": {
              "value": 8.5,
              "code": "mg/dL",
              "system": "http://unitsofmeasure.org"
            }
          },
          {
            "high": {
              "value": 10.5,
              "code": "mg/dL",
              "system": "http://unitsofmeasure.org"
            }
          }
        ],
        "text": {
          "status": "generated",
          "div": "<div xmlns=\"http://www.w3.org/1999/xhtml\"><table class=\"hl7__eu__lab__report\"><tr><th>Test</th><th>06-Jan-2016</th><th>Reference&#xA0;Range</th><th>Unit</th></tr><tr><td>Calcium [Mass/volume] in Serum or Plasma</td><td>8.6</td><td>8.5 - 10.5</td><td></td><td>mg/dL</td></tr></table></div>"
        },
        "status": "final",
        "subject": {
          "reference": "urn:uuid:ed0a60b9-0ef5-4fcd-adf0-b24bcf9f8632",
          "display": "Θεμιστοκλής Λιναρδάκη"
        },
        "effectiveDateTime": "2016-01-06T06:16:00Z",
        "specimen": {
          "reference": "urn:uuid:81150387-0058-416d-9b5d-cfbc387b9240"
        }
      }
    },
    {
      "fullUrl": "urn:uuid:9f62e8fa-059f-498f-b227-f1fdb7f9f5e4",
      "resource": {
        "resourceType": "Observation",
        "id": "9f62e8fa-059f-498f-b227-f1fdb7f9f5e4",
        "meta": {
          "profile": [
            "http://hl7.eu/fhir/laboratory/StructureDefinition/Observation-resultslab-eu-lab"
          ]
        },
        "performer": [
          {
            "display": "The Central European Lab"
          }
        ],
        "category": [
          {
            "coding": [
              {
                "system": "http://terminology.hl7.org/CodeSystem/observation-category",
                "code": "laboratory"
              }
            ]
          }
        ],
        "code": {
          "coding": [
            {
              "code": "2951-2",
              "system": "http://loinc.org",
              "display": "Sodium [Moles/volume] in Serum or Plasma"
            }
          ],
          "text": "Sodium [Moles/volume] in Serum or Plasma"
        },
        "valueQuantity": {
          "system": "http://unitsofmeasure.org",
          "value": 137.5,
          "unit": "mmol/L",
          "code": "mmol/L"
        },
        "referenceRange": [
          {
            "low": {
              "value": 135,
              "code": "mmol/L",
              "system": "http://unitsofmeasure.org"
            }
          },
          {
            "high": {
              "value": 145,
              "code": "mmol/L",
              "system": "http://unitsofmeasure.org"
            }
          }
        ],
        "text": {
          "status": "generated",
          "div": "<div xmlns=\"http://www.w3.org/1999/xhtml\"><table class=\"hl7__eu__lab__report\"><tr><th>Test</th><th>06-Jan-2016</th><th>Reference&#xA0;Range</th><th>Unit</th></tr><tr><td>Sodium [Moles/volume] in Serum or Plasma</td><td>137.5</td><td>135 - 145</td><td></td><td>mmol/L</td></tr></table></div>"
        },
        "status": "final",
        "subject": {
          "reference": "urn:uuid:ed0a60b9-0ef5-4fcd-adf0-b24bcf9f8632",
          "display": "Θεμιστοκλής Λιναρδάκη"
        },
        "effectiveDateTime": "2016-01-06T06:16:00Z",
        "specimen": {
          "reference": "urn:uuid:81150387-0058-416d-9b5d-cfbc387b9240"
        }
      }
    },
    {
      "fullUrl": "urn:uuid:c9c5df8d-4ffd-4026-b22c-173b453f509c",
      "resource": {
        "resourceType": "Observation",
        "id": "c9c5df8d-4ffd-4026-b22c-173b453f509c",
        "meta": {
          "profile": [
            "http://hl7.eu/fhir/laboratory/StructureDefinition/Observation-resultslab-eu-lab"
          ]
        },
        "performer": [
          {
            "display": "The Central European Lab"
          }
        ],
        "category": [
          {
            "coding": [
              {
                "system": "http://terminology.hl7.org/CodeSystem/observation-category",
                "code": "laboratory"
              }
            ]
          }
        ],
        "code": {
          "coding": [
            {
              "code": "2823-3",
              "system": "http://loinc.org",
              "display": "Potassium [Moles/volume] in Serum or Plasma"
            }
          ],
          "text": "Potassium [Moles/volume] in Serum or Plasma"
        },
        "valueQuantity": {
          "system": "http://unitsofmeasure.org",
          "value": 3.9,
          "unit": "mmol/L",
          "code": "mmol/L"
        },
        "referenceRange": [
          {
            "low": {
              "value": 3.5,
              "code": "mmol/L",
              "system": "http://unitsofmeasure.org"
            }
          },
          {
            "high": {
              "value": 5,
              "code": "mmol/L",
              "system": "http://unitsofmeasure.org"
            }
          }
        ],
        "text": {
          "status": "generated",
          "div": "<div xmlns=\"http://www.w3.org/1999/xhtml\"><table class=\"hl7__eu__lab__report\"><tr><th>Test</th><th>06-Jan-2016</th><th>Reference&#xA0;Range</th><th>Unit</th></tr><tr><td>Potassium [Moles/volume] in Serum or Plasma</td><td>3.9</td><td>3.5 - 5</td><td></td><td>mmol/L</td></tr></table></div>"
        },
        "status": "final",
        "subject": {
          "reference": "urn:uuid:ed0a60b9-0ef5-4fcd-adf0-b24bcf9f8632",
          "display": "Θεμιστοκλής Λιναρδάκη"
        },
        "effectiveDateTime": "2016-01-06T06:16:00Z",
        "specimen": {
          "reference": "urn:uuid:81150387-0058-416d-9b5d-cfbc387b9240"
        }
      }
    },
    {
      "fullUrl": "urn:uuid:87a19caa-b324-47e0-9ce2-13db1f4708d2",
      "resource": {
        "resourceType": "Observation",
        "id": "87a19caa-b324-47e0-9ce2-13db1f4708d2",
        "meta": {
          "profile": [
            "http://hl7.eu/fhir/laboratory/StructureDefinition/Observation-resultslab-eu-lab"
          ]
        },
        "performer": [
          {
            "display": "The Central European Lab"
          }
        ],
        "category": [
          {
            "coding": [
              {
                "system": "http://terminology.hl7.org/CodeSystem/observation-category",
                "code": "laboratory"
              }
            ]
          }
        ],
        "code": {
          "coding": [
            {
              "code": "2075-0",
              "system": "http://loinc.org",
              "display": "Chloride [Moles/volume] in Serum or Plasma"
            }
          ],
          "text": "Chloride [Moles/volume] in Serum or Plasma"
        },
        "valueQuantity": {
          "system": "http://unitsofmeasure.org",
          "value": 104.2,
          "unit": "mmol/L",
          "code": "mmol/L"
        },
        "referenceRange": [
          {
            "low": {
              "value": 98,
              "code": "mmol/L",
              "system": "http://unitsofmeasure.org"
            }
          },
          {
            "high": {
              "value": 108,
              "code": "mmol/L",
              "system": "http://unitsofmeasure.org"
            }
          }
        ],
        "text": {
          "status": "generated",
          "div": "<div xmlns=\"http://www.w3.org/1999/xhtml\"><table class=\"hl7__eu__lab__report\"><tr><th>Test</th><th>06-Jan-2016</th><th>Reference&#xA0;Range</th><th>Unit</th></tr><tr><td>Chloride [Moles/volume] in Serum or Plasma</td><td>104.2</td><td>98 - 108</td><td></td><td>mmol/L</td></tr></table></div>"
        },
        "status": "final",
        "subject": {
          "reference": "urn:uuid:ed0a60b9-0ef5-4fcd-adf0-b24bcf9f8632",
          "display": "Θεμιστοκλής Λιναρδάκη"
        },
        "effectiveDateTime": "2016-01-06T06:16:00Z",
        "specimen": {
          "reference": "urn:uuid:81150387-0058-416d-9b5d-cfbc387b9240"
        }
      }
    },
    {
      "fullUrl": "urn:uuid:adfef6cb-2c2f-4374-9aaf-d29e0b22dd31",
      "resource": {
        "resourceType": "Observation",
        "id": "adfef6cb-2c2f-4374-9aaf-d29e0b22dd31",
        "meta": {
          "profile": [
            "http://hl7.eu/fhir/laboratory/StructureDefinition/Observation-resultslab-eu-lab"
          ]
        },
        "performer": [
          {
            "display": "The Central European Lab"
          }
        ],
        "category": [
          {
            "coding": [
              {
                "system": "http://terminology.hl7.org/CodeSystem/observation-category",
                "code": "laboratory"
              }
            ]
          }
        ],
        "code": {
          "coding": [
            {
              "code": "2028-9",
              "system": "http://loinc.org",
              "display": "Carbon dioxide, total [Moles/volume] in Serum or Plasma"
            }
          ],
          "text": "Carbon dioxide, total [Moles/volume] in Serum or Plasma"
        },
        "valueQuantity": {
          "system": "http://unitsofmeasure.org",
          "value": 22.8,
          "unit": "mmol/L",
          "code": "mmol/L"
        },
        "referenceRange": [
          {
            "low": {
              "value": 22,
              "code": "mmol/L",
              "system": "http://unitsofmeasure.org"
            }
          },
          {
            "high": {
              "value": 29,
              "code": "mmol/L",
              "system": "http://unitsofmeasure.org"
            }
          }
        ],
        "text": {
          "status": "generated",
          "div": "<div xmlns=\"http://www.w3.org/1999/xhtml\"><table class=\"hl7__eu__lab__report\"><tr><th>Test</th><th>06-Jan-2016</th><th>Reference&#xA0;Range</th><th>Unit</th></tr><tr><td>Carbon dioxide, total [Moles/volume] in Serum or Plasma</td><td>22.8</td><td>22 - 29</td><td></td><td>mmol/L</td></tr></table></div>"
        },
        "status": "final",
        "subject": {
          "reference": "urn:uuid:ed0a60b9-0ef5-4fcd-adf0-b24bcf9f8632",
          "display": "Θεμιστοκλής Λιναρδάκη"
        },
        "effectiveDateTime": "2016-01-06T06:16:00Z",
        "specimen": {
          "reference": "urn:uuid:81150387-0058-416d-9b5d-cfbc387b9240"
        }
      }
    },
    {
      "fullUrl": "urn:uuid:8d35b9e4-5583-4fe7-9982-029288b8a549",
      "resource": {
        "resourceType": "Observation",
        "id": "8d35b9e4-5583-4fe7-9982-029288b8a549",
        "meta": {
          "profile": [
            "http://hl7.eu/fhir/laboratory/StructureDefinition/Observation-resultslab-eu-lab"
          ]
        },
        "performer": [
          {
            "display": "The Central European Lab"
          }
        ],
        "category": [
          {
            "coding": [
              {
                "system": "http://terminology.hl7.org/CodeSystem/observation-category",
                "code": "laboratory"
              }
            ]
          }
        ],
        "code": {
          "coding": [
            {
              "code": "5767-9",
              "system": "http://loinc.org",
              "display": "Appearance of Urine"
            }
          ],
          "text": "Appearance of Urine"
        },
        "text": {
          "status": "generated",
          "div": "<div xmlns=\"http://www.w3.org/1999/xhtml\"><table class=\"hl7__eu__lab__report\"><tr><th>Test</th><th>06-Jan-2016</th><th>Reference&#xA0;Range</th><th>Unit</th></tr><tr><td>Appearance of Urine</td></tr></table></div>"
        },
        "status": "final",
        "subject": {
          "reference": "urn:uuid:ed0a60b9-0ef5-4fcd-adf0-b24bcf9f8632",
          "display": "Θεμιστοκλής Λιναρδάκη"
        },
        "effectiveDateTime": "2016-01-06T06:16:00Z",
        "specimen": {
          "reference": "urn:uuid:90dcbd1c-7050-42ee-9966-e693e8dc47c8"
        }
      }
    },
    {
      "fullUrl": "urn:uuid:45d43618-34d8-4d8f-9e0b-d384f6b08e5f",
      "resource": {
        "resourceType": "Observation",
        "id": "45d43618-34d8-4d8f-9e0b-d384f6b08e5f",
        "meta": {
          "profile": [
            "http://hl7.eu/fhir/laboratory/StructureDefinition/Observation-resultslab-eu-lab"
          ]
        },
        "performer": [
          {
            "display": "The Central European Lab"
          }
        ],
        "category": [
          {
            "coding": [
              {
                "system": "http://terminology.hl7.org/CodeSystem/observation-category",
                "code": "laboratory"
              }
            ]
          }
        ],
        "code": {
          "coding": [
            {
              "code": "34533-0",
              "system": "http://loinc.org",
              "display": "Odor of Urine"
            }
          ],
          "text": "Odor of Urine"
        },
        "text": {
          "status": "generated",
          "div": "<div xmlns=\"http://www.w3.org/1999/xhtml\"><table class=\"hl7__eu__lab__report\"><tr><th>Test</th><th>06-Jan-2016</th><th>Reference&#xA0;Range</th><th>Unit</th></tr><tr><td>Odor of Urine</td></tr></table></div>"
        },
        "status": "final",
        "subject": {
          "reference": "urn:uuid:ed0a60b9-0ef5-4fcd-adf0-b24bcf9f8632",
          "display": "Θεμιστοκλής Λιναρδάκη"
        },
        "effectiveDateTime": "2016-01-06T06:16:00Z",
        "specimen": {
          "reference": "urn:uuid:90dcbd1c-7050-42ee-9966-e693e8dc47c8"
        }
      }
    },
    {
      "fullUrl": "urn:uuid:64b36d7d-0619-4be5-9cf4-7fccb6b418a9",
      "resource": {
        "resourceType": "Observation",
        "id": "64b36d7d-0619-4be5-9cf4-7fccb6b418a9",
        "meta": {
          "profile": [
            "http://hl7.eu/fhir/laboratory/StructureDefinition/Observation-resultslab-eu-lab"
          ]
        },
        "performer": [
          {
            "display": "The Central European Lab"
          }
        ],
        "category": [
          {
            "coding": [
              {
                "system": "http://terminology.hl7.org/CodeSystem/observation-category",
                "code": "laboratory"
              }
            ]
          }
        ],
        "code": {
          "coding": [
            {
              "code": "32167-9",
              "system": "http://loinc.org",
              "display": "Clarity of Urine"
            }
          ],
          "text": "Clarity of Urine"
        },
        "text": {
          "status": "generated",
          "div": "<div xmlns=\"http://www.w3.org/1999/xhtml\"><table class=\"hl7__eu__lab__report\"><tr><th>Test</th><th>06-Jan-2016</th><th>Reference&#xA0;Range</th><th>Unit</th></tr><tr><td>Clarity of Urine</td></tr></table></div>"
        },
        "status": "final",
        "subject": {
          "reference": "urn:uuid:ed0a60b9-0ef5-4fcd-adf0-b24bcf9f8632",
          "display": "Θεμιστοκλής Λιναρδάκη"
        },
        "effectiveDateTime": "2016-01-06T06:16:00Z",
        "specimen": {
          "reference": "urn:uuid:90dcbd1c-7050-42ee-9966-e693e8dc47c8"
        }
      }
    },
    {
      "fullUrl": "urn:uuid:a3725e16-ec0a-49d6-afec-1c0412723f94",
      "resource": {
        "resourceType": "Observation",
        "id": "a3725e16-ec0a-49d6-afec-1c0412723f94",
        "meta": {
          "profile": [
            "http://hl7.eu/fhir/laboratory/StructureDefinition/Observation-resultslab-eu-lab"
          ]
        },
        "performer": [
          {
            "display": "The Central European Lab"
          }
        ],
        "category": [
          {
            "coding": [
              {
                "system": "http://terminology.hl7.org/CodeSystem/observation-category",
                "code": "laboratory"
              }
            ]
          }
        ],
        "code": {
          "coding": [
            {
              "code": "5778-6",
              "system": "http://loinc.org",
              "display": "Color of Urine"
            }
          ],
          "text": "Color of Urine"
        },
        "text": {
          "status": "generated",
          "div": "<div xmlns=\"http://www.w3.org/1999/xhtml\"><table class=\"hl7__eu__lab__report\"><tr><th>Test</th><th>06-Jan-2016</th><th>Reference&#xA0;Range</th><th>Unit</th></tr><tr><td>Color of Urine</td></tr></table></div>"
        },
        "status": "final",
        "subject": {
          "reference": "urn:uuid:ed0a60b9-0ef5-4fcd-adf0-b24bcf9f8632",
          "display": "Θεμιστοκλής Λιναρδάκη"
        },
        "effectiveDateTime": "2016-01-06T06:16:00Z",
        "specimen": {
          "reference": "urn:uuid:90dcbd1c-7050-42ee-9966-e693e8dc47c8"
        }
      }
    },
    {
      "fullUrl": "urn:uuid:c77295e9-7c03-497a-968c-98a9042a2252",
      "resource": {
        "resourceType": "Observation",
        "id": "c77295e9-7c03-497a-968c-98a9042a2252",
        "meta": {
          "profile": [
            "http://hl7.eu/fhir/laboratory/StructureDefinition/Observation-resultslab-eu-lab"
          ]
        },
        "performer": [
          {
            "display": "The Central European Lab"
          }
        ],
        "category": [
          {
            "coding": [
              {
                "system": "http://terminology.hl7.org/CodeSystem/observation-category",
                "code": "laboratory"
              }
            ]
          }
        ],
        "code": {
          "coding": [
            {
              "code": "5792-7",
              "system": "http://loinc.org",
              "display": "Glucose [Mass/volume] in Urine by Test strip"
            }
          ],
          "text": "Glucose [Mass/volume] in Urine by Test strip"
        },
        "valueQuantity": {
          "system": "http://unitsofmeasure.org",
          "value": 1.1,
          "unit": "mg/dL",
          "code": "mg/dL"
        },
        "referenceRange": [
          {
            "low": {
              "value": 0,
              "code": "mg/dL",
              "system": "http://unitsofmeasure.org"
            }
          },
          {
            "high": {
              "value": 0.8,
              "code": "mg/dL",
              "system": "http://unitsofmeasure.org"
            }
          }
        ],
        "interpretation": [
          {
            "coding": [
              {
                "code": "H",
                "system": "http://terminology.hl7.org/CodeSystem/v3-ObservationInterpretation",
                "display": "High"
              }
            ]
          }
        ],
        "text": {
          "status": "generated",
          "div": "<div xmlns=\"http://www.w3.org/1999/xhtml\"><table class=\"hl7__eu__lab__report\"><tr><th>Test</th><th>06-Jan-2016</th><th>Reference&#xA0;Range</th><th>Unit</th></tr><tr><td>Glucose [Mass/volume] in Urine by Test strip</td><td>1.1</td><td>0 - 0.8</td><td>H</td><td>mg/dL</td></tr></table></div>"
        },
        "status": "final",
        "subject": {
          "reference": "urn:uuid:ed0a60b9-0ef5-4fcd-adf0-b24bcf9f8632",
          "display": "Θεμιστοκλής Λιναρδάκη"
        },
        "effectiveDateTime": "2016-01-06T06:16:00Z",
        "specimen": {
          "reference": "urn:uuid:90dcbd1c-7050-42ee-9966-e693e8dc47c8"
        }
      }
    },
    {
      "fullUrl": "urn:uuid:f45eea77-2794-436a-9fef-30c7a5bf1f9a",
      "resource": {
        "resourceType": "Observation",
        "id": "f45eea77-2794-436a-9fef-30c7a5bf1f9a",
        "meta": {
          "profile": [
            "http://hl7.eu/fhir/laboratory/StructureDefinition/Observation-resultslab-eu-lab"
          ]
        },
        "performer": [
          {
            "display": "The Central European Lab"
          }
        ],
        "category": [
          {
            "coding": [
              {
                "system": "http://terminology.hl7.org/CodeSystem/observation-category",
                "code": "laboratory"
              }
            ]
          }
        ],
        "code": {
          "coding": [
            {
              "code": "25428-4",
              "system": "http://loinc.org",
              "display": "Glucose [Presence] in Urine by Test strip"
            }
          ],
          "text": "Glucose [Presence] in Urine by Test strip"
        },
        "text": {
          "status": "generated",
          "div": "<div xmlns=\"http://www.w3.org/1999/xhtml\"><table class=\"hl7__eu__lab__report\"><tr><th>Test</th><th>06-Jan-2016</th><th>Reference&#xA0;Range</th><th>Unit</th></tr><tr><td>Glucose [Presence] in Urine by Test strip</td></tr></table></div>"
        },
        "status": "final",
        "subject": {
          "reference": "urn:uuid:ed0a60b9-0ef5-4fcd-adf0-b24bcf9f8632",
          "display": "Θεμιστοκλής Λιναρδάκη"
        },
        "effectiveDateTime": "2016-01-06T06:16:00Z",
        "specimen": {
          "reference": "urn:uuid:90dcbd1c-7050-42ee-9966-e693e8dc47c8"
        }
      }
    },
    {
      "fullUrl": "urn:uuid:29b2f205-8618-45a0-aee5-9c0d4f1ad541",
      "resource": {
        "resourceType": "Observation",
        "id": "29b2f205-8618-45a0-aee5-9c0d4f1ad541",
        "meta": {
          "profile": [
            "http://hl7.eu/fhir/laboratory/StructureDefinition/Observation-resultslab-eu-lab"
          ]
        },
        "performer": [
          {
            "display": "The Central European Lab"
          }
        ],
        "category": [
          {
            "coding": [
              {
                "system": "http://terminology.hl7.org/CodeSystem/observation-category",
                "code": "laboratory"
              }
            ]
          }
        ],
        "code": {
          "coding": [
            {
              "code": "20505-4",
              "system": "http://loinc.org",
              "display": "Bilirubin.total [Mass/volume] in Urine by Test strip"
            }
          ],
          "text": "Bilirubin.total [Mass/volume] in Urine by Test strip"
        },
        "valueQuantity": {
          "system": "http://unitsofmeasure.org",
          "value": 1.1,
          "unit": "mg/dL",
          "code": "mg/dL"
        },
        "referenceRange": [
          {
            "low": {
              "value": 0.2,
              "code": "mg/dL",
              "system": "http://unitsofmeasure.org"
            }
          },
          {
            "high": {
              "value": 1,
              "code": "mg/dL",
              "system": "http://unitsofmeasure.org"
            }
          }
        ],
        "interpretation": [
          {
            "coding": [
              {
                "code": "H",
                "system": "http://terminology.hl7.org/CodeSystem/v3-ObservationInterpretation",
                "display": "High"
              }
            ]
          }
        ],
        "text": {
          "status": "generated",
          "div": "<div xmlns=\"http://www.w3.org/1999/xhtml\"><table class=\"hl7__eu__lab__report\"><tr><th>Test</th><th>06-Jan-2016</th><th>Reference&#xA0;Range</th><th>Unit</th></tr><tr><td>Bilirubin.total [Mass/volume] in Urine by Test strip</td><td>1.1</td><td>0.2 - 1</td><td>H</td><td>mg/dL</td></tr></table></div>"
        },
        "status": "final",
        "subject": {
          "reference": "urn:uuid:ed0a60b9-0ef5-4fcd-adf0-b24bcf9f8632",
          "display": "Θεμιστοκλής Λιναρδάκη"
        },
        "effectiveDateTime": "2016-01-06T06:16:00Z",
        "specimen": {
          "reference": "urn:uuid:90dcbd1c-7050-42ee-9966-e693e8dc47c8"
        }
      }
    },
    {
      "fullUrl": "urn:uuid:03def43e-7ce5-42c1-9b34-5831d244db1f",
      "resource": {
        "resourceType": "Observation",
        "id": "03def43e-7ce5-42c1-9b34-5831d244db1f",
        "meta": {
          "profile": [
            "http://hl7.eu/fhir/laboratory/StructureDefinition/Observation-resultslab-eu-lab"
          ]
        },
        "performer": [
          {
            "display": "The Central European Lab"
          }
        ],
        "category": [
          {
            "coding": [
              {
                "system": "http://terminology.hl7.org/CodeSystem/observation-category",
                "code": "laboratory"
              }
            ]
          }
        ],
        "code": {
          "coding": [
            {
              "code": "5770-3",
              "system": "http://loinc.org",
              "display": "Bilirubin.total [Presence] in Urine by Test strip"
            }
          ],
          "text": "Bilirubin.total [Presence] in Urine by Test strip"
        },
        "text": {
          "status": "generated",
          "div": "<div xmlns=\"http://www.w3.org/1999/xhtml\"><table class=\"hl7__eu__lab__report\"><tr><th>Test</th><th>06-Jan-2016</th><th>Reference&#xA0;Range</th><th>Unit</th></tr><tr><td>Bilirubin.total [Presence] in Urine by Test strip</td></tr></table></div>"
        },
        "status": "final",
        "subject": {
          "reference": "urn:uuid:ed0a60b9-0ef5-4fcd-adf0-b24bcf9f8632",
          "display": "Θεμιστοκλής Λιναρδάκη"
        },
        "effectiveDateTime": "2016-01-06T06:16:00Z",
        "specimen": {
          "reference": "urn:uuid:90dcbd1c-7050-42ee-9966-e693e8dc47c8"
        }
      }
    },
    {
      "fullUrl": "urn:uuid:8d5155e7-61ef-420b-b5dd-0004e950eaf2",
      "resource": {
        "resourceType": "Observation",
        "id": "8d5155e7-61ef-420b-b5dd-0004e950eaf2",
        "meta": {
          "profile": [
            "http://hl7.eu/fhir/laboratory/StructureDefinition/Observation-resultslab-eu-lab"
          ]
        },
        "performer": [
          {
            "display": "The Central European Lab"
          }
        ],
        "category": [
          {
            "coding": [
              {
                "system": "http://terminology.hl7.org/CodeSystem/observation-category",
                "code": "laboratory"
              }
            ]
          }
        ],
        "code": {
          "coding": [
            {
              "code": "5797-6",
              "system": "http://loinc.org",
              "display": "Ketones [Mass/volume] in Urine by Test strip"
            }
          ],
          "text": "Ketones [Mass/volume] in Urine by Test strip"
        },
        "valueQuantity": {
          "system": "http://unitsofmeasure.org",
          "value": 2.3,
          "unit": "mg/dL",
          "code": "mg/dL"
        },
        "referenceRange": [
          {
            "low": {
              "value": 0,
              "code": "mg/dL",
              "system": "http://unitsofmeasure.org"
            }
          },
          {
            "high": {
              "value": 5,
              "code": "mg/dL",
              "system": "http://unitsofmeasure.org"
            }
          }
        ],
        "text": {
          "status": "generated",
          "div": "<div xmlns=\"http://www.w3.org/1999/xhtml\"><table class=\"hl7__eu__lab__report\"><tr><th>Test</th><th>06-Jan-2016</th><th>Reference&#xA0;Range</th><th>Unit</th></tr><tr><td>Ketones [Mass/volume] in Urine by Test strip</td><td>2.3</td><td>0 - 5</td><td></td><td>mg/dL</td></tr></table></div>"
        },
        "status": "final",
        "subject": {
          "reference": "urn:uuid:ed0a60b9-0ef5-4fcd-adf0-b24bcf9f8632",
          "display": "Θεμιστοκλής Λιναρδάκη"
        },
        "effectiveDateTime": "2016-01-06T06:16:00Z",
        "specimen": {
          "reference": "urn:uuid:90dcbd1c-7050-42ee-9966-e693e8dc47c8"
        }
      }
    },
    {
      "fullUrl": "urn:uuid:64b9f583-48d7-4a6a-9258-0e9402862253",
      "resource": {
        "resourceType": "Observation",
        "id": "64b9f583-48d7-4a6a-9258-0e9402862253",
        "meta": {
          "profile": [
            "http://hl7.eu/fhir/laboratory/StructureDefinition/Observation-resultslab-eu-lab"
          ]
        },
        "performer": [
          {
            "display": "The Central European Lab"
          }
        ],
        "category": [
          {
            "coding": [
              {
                "system": "http://terminology.hl7.org/CodeSystem/observation-category",
                "code": "laboratory"
              }
            ]
          }
        ],
        "code": {
          "coding": [
            {
              "code": "2514-8",
              "system": "http://loinc.org",
              "display": "Ketones [Presence] in Urine by Test strip"
            }
          ],
          "text": "Ketones [Presence] in Urine by Test strip"
        },
        "text": {
          "status": "generated",
          "div": "<div xmlns=\"http://www.w3.org/1999/xhtml\"><table class=\"hl7__eu__lab__report\"><tr><th>Test</th><th>06-Jan-2016</th><th>Reference&#xA0;Range</th><th>Unit</th></tr><tr><td>Ketones [Presence] in Urine by Test strip</td></tr></table></div>"
        },
        "status": "final",
        "subject": {
          "reference": "urn:uuid:ed0a60b9-0ef5-4fcd-adf0-b24bcf9f8632",
          "display": "Θεμιστοκλής Λιναρδάκη"
        },
        "effectiveDateTime": "2016-01-06T06:16:00Z",
        "specimen": {
          "reference": "urn:uuid:90dcbd1c-7050-42ee-9966-e693e8dc47c8"
        }
      }
    },
    {
      "fullUrl": "urn:uuid:985972f0-e80a-4a19-9229-8da5e0be5b86",
      "resource": {
        "resourceType": "Observation",
        "id": "985972f0-e80a-4a19-9229-8da5e0be5b86",
        "meta": {
          "profile": [
            "http://hl7.eu/fhir/laboratory/StructureDefinition/Observation-resultslab-eu-lab"
          ]
        },
        "performer": [
          {
            "display": "The Central European Lab"
          }
        ],
        "category": [
          {
            "coding": [
              {
                "system": "http://terminology.hl7.org/CodeSystem/observation-category",
                "code": "laboratory"
              }
            ]
          }
        ],
        "code": {
          "coding": [
            {
              "code": "5811-5",
              "system": "http://loinc.org",
              "display": "Specific gravity of Urine by Test strip"
            }
          ],
          "text": "Specific gravity of Urine by Test strip"
        },
        "valueQuantity": {
          "system": "http://unitsofmeasure.org",
          "value": 1,
          "unit": "{nominal}",
          "code": "{nominal}"
        },
        "referenceRange": [
          {
            "low": {
              "value": 1.005,
              "code": "g/mL",
              "system": "http://unitsofmeasure.org"
            }
          },
          {
            "high": {
              "value": 1.03,
              "code": "g/mL",
              "system": "http://unitsofmeasure.org"
            }
          }
        ],
        "interpretation": [
          {
            "coding": [
              {
                "code": "L",
                "system": "http://terminology.hl7.org/CodeSystem/v3-ObservationInterpretation",
                "display": "Low"
              }
            ]
          }
        ],
        "text": {
          "status": "generated",
          "div": "<div xmlns=\"http://www.w3.org/1999/xhtml\"><table class=\"hl7__eu__lab__report\"><tr><th>Test</th><th>06-Jan-2016</th><th>Reference&#xA0;Range</th><th>Unit</th></tr><tr><td>Specific gravity of Urine by Test strip</td><td>1.0</td><td>1.005 - 1.03</td><td>L</td><td>{nominal}</td></tr></table></div>"
        },
        "status": "final",
        "subject": {
          "reference": "urn:uuid:ed0a60b9-0ef5-4fcd-adf0-b24bcf9f8632",
          "display": "Θεμιστοκλής Λιναρδάκη"
        },
        "effectiveDateTime": "2016-01-06T06:16:00Z",
        "specimen": {
          "reference": "urn:uuid:90dcbd1c-7050-42ee-9966-e693e8dc47c8"
        }
      }
    },
    {
      "fullUrl": "urn:uuid:905e4ae7-3d5d-44bc-ad1b-878658658f21",
      "resource": {
        "resourceType": "Observation",
        "id": "905e4ae7-3d5d-44bc-ad1b-878658658f21",
        "meta": {
          "profile": [
            "http://hl7.eu/fhir/laboratory/StructureDefinition/Observation-resultslab-eu-lab"
          ]
        },
        "performer": [
          {
            "display": "The Central European Lab"
          }
        ],
        "category": [
          {
            "coding": [
              {
                "system": "http://terminology.hl7.org/CodeSystem/observation-category",
                "code": "laboratory"
              }
            ]
          }
        ],
        "code": {
          "coding": [
            {
              "code": "5803-2",
              "system": "http://loinc.org",
              "display": "pH of Urine by Test strip"
            }
          ],
          "text": "pH of Urine by Test strip"
        },
        "valueQuantity": {
          "system": "http://unitsofmeasure.org",
          "value": 5.3,
          "unit": "pH",
          "code": "pH"
        },
        "referenceRange": [
          {
            "low": {
              "value": 4.6,
              "code": "pH",
              "system": "http://unitsofmeasure.org"
            }
          },
          {
            "high": {
              "value": 7,
              "code": "pH",
              "system": "http://unitsofmeasure.org"
            }
          }
        ],
        "text": {
          "status": "generated",
          "div": "<div xmlns=\"http://www.w3.org/1999/xhtml\"><table class=\"hl7__eu__lab__report\"><tr><th>Test</th><th>06-Jan-2016</th><th>Reference&#xA0;Range</th><th>Unit</th></tr><tr><td>pH of Urine by Test strip</td><td>5.3</td><td>4.6 - 7</td><td></td><td>pH</td></tr></table></div>"
        },
        "status": "final",
        "subject": {
          "reference": "urn:uuid:ed0a60b9-0ef5-4fcd-adf0-b24bcf9f8632",
          "display": "Θεμιστοκλής Λιναρδάκη"
        },
        "effectiveDateTime": "2016-01-06T06:16:00Z",
        "specimen": {
          "reference": "urn:uuid:90dcbd1c-7050-42ee-9966-e693e8dc47c8"
        }
      }
    },
    {
      "fullUrl": "urn:uuid:dd0e6b7a-9a90-457f-bd7b-d2bb184f20c5",
      "resource": {
        "resourceType": "Observation",
        "id": "dd0e6b7a-9a90-457f-bd7b-d2bb184f20c5",
        "meta": {
          "profile": [
            "http://hl7.eu/fhir/laboratory/StructureDefinition/Observation-resultslab-eu-lab"
          ]
        },
        "performer": [
          {
            "display": "The Central European Lab"
          }
        ],
        "category": [
          {
            "coding": [
              {
                "system": "http://terminology.hl7.org/CodeSystem/observation-category",
                "code": "laboratory"
              }
            ]
          }
        ],
        "code": {
          "coding": [
            {
              "code": "5804-0",
              "system": "http://loinc.org",
              "display": "Protein [Mass/volume] in Urine by Test strip"
            }
          ],
          "text": "Protein [Mass/volume] in Urine by Test strip"
        },
        "valueQuantity": {
          "system": "http://unitsofmeasure.org",
          "value": 273.3,
          "unit": "mg/dL",
          "code": "mg/dL"
        },
        "referenceRange": [
          {
            "low": {
              "value": 0,
              "code": "mg/dL",
              "system": "http://unitsofmeasure.org"
            }
          },
          {
            "high": {
              "value": 150,
              "code": "mg/dL",
              "system": "http://unitsofmeasure.org"
            }
          }
        ],
        "interpretation": [
          {
            "coding": [
              {
                "code": "H",
                "system": "http://terminology.hl7.org/CodeSystem/v3-ObservationInterpretation",
                "display": "High"
              }
            ]
          }
        ],
        "text": {
          "status": "generated",
          "div": "<div xmlns=\"http://www.w3.org/1999/xhtml\"><table class=\"hl7__eu__lab__report\"><tr><th>Test</th><th>06-Jan-2016</th><th>Reference&#xA0;Range</th><th>Unit</th></tr><tr><td>Protein [Mass/volume] in Urine by Test strip</td><td>273.3</td><td>0 - 150</td><td>H</td><td>mg/dL</td></tr></table></div>"
        },
        "status": "final",
        "subject": {
          "reference": "urn:uuid:ed0a60b9-0ef5-4fcd-adf0-b24bcf9f8632",
          "display": "Θεμιστοκλής Λιναρδάκη"
        },
        "effectiveDateTime": "2016-01-06T06:16:00Z",
        "specimen": {
          "reference": "urn:uuid:90dcbd1c-7050-42ee-9966-e693e8dc47c8"
        }
      }
    },
    {
      "fullUrl": "urn:uuid:48b4f418-7aac-4c14-a9c5-a2f98d9a8bfd",
      "resource": {
        "resourceType": "Observation",
        "id": "48b4f418-7aac-4c14-a9c5-a2f98d9a8bfd",
        "meta": {
          "profile": [
            "http://hl7.eu/fhir/laboratory/StructureDefinition/Observation-resultslab-eu-lab"
          ]
        },
        "performer": [
          {
            "display": "The Central European Lab"
          }
        ],
        "category": [
          {
            "coding": [
              {
                "system": "http://terminology.hl7.org/CodeSystem/observation-category",
                "code": "laboratory"
              }
            ]
          }
        ],
        "code": {
          "coding": [
            {
              "code": "20454-5",
              "system": "http://loinc.org",
              "display": "Protein [Presence] in Urine by Test strip"
            }
          ],
          "text": "Protein [Presence] in Urine by Test strip"
        },
        "text": {
          "status": "generated",
          "div": "<div xmlns=\"http://www.w3.org/1999/xhtml\"><table class=\"hl7__eu__lab__report\"><tr><th>Test</th><th>06-Jan-2016</th><th>Reference&#xA0;Range</th><th>Unit</th></tr><tr><td>Protein [Presence] in Urine by Test strip</td></tr></table></div>"
        },
        "status": "final",
        "subject": {
          "reference": "urn:uuid:ed0a60b9-0ef5-4fcd-adf0-b24bcf9f8632",
          "display": "Θεμιστοκλής Λιναρδάκη"
        },
        "effectiveDateTime": "2016-01-06T06:16:00Z",
        "specimen": {
          "reference": "urn:uuid:90dcbd1c-7050-42ee-9966-e693e8dc47c8"
        }
      }
    },
    {
      "fullUrl": "urn:uuid:353a621f-f81f-45f0-b2d5-f92bbed9ac0a",
      "resource": {
        "resourceType": "Observation",
        "id": "353a621f-f81f-45f0-b2d5-f92bbed9ac0a",
        "meta": {
          "profile": [
            "http://hl7.eu/fhir/laboratory/StructureDefinition/Observation-resultslab-eu-lab"
          ]
        },
        "performer": [
          {
            "display": "The Central European Lab"
          }
        ],
        "category": [
          {
            "coding": [
              {
                "system": "http://terminology.hl7.org/CodeSystem/observation-category",
                "code": "laboratory"
              }
            ]
          }
        ],
        "code": {
          "coding": [
            {
              "code": "5802-4",
              "system": "http://loinc.org",
              "display": "Nitrite [Presence] in Urine by Test strip"
            }
          ],
          "text": "Nitrite [Presence] in Urine by Test strip"
        },
        "text": {
          "status": "generated",
          "div": "<div xmlns=\"http://www.w3.org/1999/xhtml\"><table class=\"hl7__eu__lab__report\"><tr><th>Test</th><th>06-Jan-2016</th><th>Reference&#xA0;Range</th><th>Unit</th></tr><tr><td>Nitrite [Presence] in Urine by Test strip</td></tr></table></div>"
        },
        "status": "final",
        "subject": {
          "reference": "urn:uuid:ed0a60b9-0ef5-4fcd-adf0-b24bcf9f8632",
          "display": "Θεμιστοκλής Λιναρδάκη"
        },
        "effectiveDateTime": "2016-01-06T06:16:00Z",
        "specimen": {
          "reference": "urn:uuid:90dcbd1c-7050-42ee-9966-e693e8dc47c8"
        }
      }
    },
    {
      "fullUrl": "urn:uuid:257f12ea-46bb-41f6-a7c5-b824cbb040e0",
      "resource": {
        "resourceType": "Observation",
        "id": "257f12ea-46bb-41f6-a7c5-b824cbb040e0",
        "meta": {
          "profile": [
            "http://hl7.eu/fhir/laboratory/StructureDefinition/Observation-resultslab-eu-lab"
          ]
        },
        "performer": [
          {
            "display": "The Central European Lab"
          }
        ],
        "category": [
          {
            "coding": [
              {
                "system": "http://terminology.hl7.org/CodeSystem/observation-category",
                "code": "laboratory"
              }
            ]
          }
        ],
        "code": {
          "coding": [
            {
              "code": "5794-3",
              "system": "http://loinc.org",
              "display": "Hemoglobin [Presence] in Urine by Test strip"
            }
          ],
          "text": "Hemoglobin [Presence] in Urine by Test strip"
        },
        "text": {
          "status": "generated",
          "div": "<div xmlns=\"http://www.w3.org/1999/xhtml\"><table class=\"hl7__eu__lab__report\"><tr><th>Test</th><th>06-Jan-2016</th><th>Reference&#xA0;Range</th><th>Unit</th></tr><tr><td>Hemoglobin [Presence] in Urine by Test strip</td></tr></table></div>"
        },
        "status": "final",
        "subject": {
          "reference": "urn:uuid:ed0a60b9-0ef5-4fcd-adf0-b24bcf9f8632",
          "display": "Θεμιστοκλής Λιναρδάκη"
        },
        "effectiveDateTime": "2016-01-06T06:16:00Z",
        "specimen": {
          "reference": "urn:uuid:90dcbd1c-7050-42ee-9966-e693e8dc47c8"
        }
      }
    },
    {
      "fullUrl": "urn:uuid:dcaf9b7f-cd37-43a5-a620-4bb4b29458d5",
      "resource": {
        "resourceType": "Observation",
        "id": "dcaf9b7f-cd37-43a5-a620-4bb4b29458d5",
        "meta": {
          "profile": [
            "http://hl7.eu/fhir/laboratory/StructureDefinition/Observation-resultslab-eu-lab"
          ]
        },
        "performer": [
          {
            "display": "The Central European Lab"
          }
        ],
        "category": [
          {
            "coding": [
              {
                "system": "http://terminology.hl7.org/CodeSystem/observation-category",
                "code": "laboratory"
              }
            ]
          }
        ],
        "code": {
          "coding": [
            {
              "code": "5799-2",
              "system": "http://loinc.org",
              "display": "Leukocyte esterase [Presence] in Urine by Test strip"
            }
          ],
          "text": "Leukocyte esterase [Presence] in Urine by Test strip"
        },
        "text": {
          "status": "generated",
          "div": "<div xmlns=\"http://www.w3.org/1999/xhtml\"><table class=\"hl7__eu__lab__report\"><tr><th>Test</th><th>06-Jan-2016</th><th>Reference&#xA0;Range</th><th>Unit</th></tr><tr><td>Leukocyte esterase [Presence] in Urine by Test strip</td></tr></table></div>"
        },
        "status": "final",
        "subject": {
          "reference": "urn:uuid:ed0a60b9-0ef5-4fcd-adf0-b24bcf9f8632",
          "display": "Θεμιστοκλής Λιναρδάκη"
        },
        "effectiveDateTime": "2016-01-06T06:16:00Z",
        "specimen": {
          "reference": "urn:uuid:90dcbd1c-7050-42ee-9966-e693e8dc47c8"
        }
      }
    },
    {
      "fullUrl": "urn:uuid:c7bb656d-8ebe-4b41-9fbf-3e0ad2a76415",
      "resource": {
        "resourceType": "Observation",
        "id": "c7bb656d-8ebe-4b41-9fbf-3e0ad2a76415",
        "meta": {
          "profile": [
            "http://hl7.eu/fhir/laboratory/StructureDefinition/Observation-resultslab-eu-lab"
          ]
        },
        "performer": [
          {
            "display": "The Central European Lab"
          }
        ],
        "category": [
          {
            "coding": [
              {
                "system": "http://terminology.hl7.org/CodeSystem/observation-category",
                "code": "laboratory"
              }
            ]
          }
        ],
        "code": {
          "coding": [
            {
              "code": "4548-4",
              "system": "http://loinc.org",
              "display": "Hemoglobin A1c/Hemoglobin.total in Blood"
            }
          ],
          "text": "Hemoglobin A1c/Hemoglobin.total in Blood"
        },
        "valueQuantity": {
          "system": "http://unitsofmeasure.org",
          "value": 3.3,
          "unit": "%",
          "code": "%"
        },
        "referenceRange": [
          {
            "low": {
              "value": 4.3,
              "code": "%",
              "system": "http://unitsofmeasure.org"
            }
          },
          {
            "high": {
              "value": 6.4,
              "code": "%",
              "system": "http://unitsofmeasure.org"
            }
          }
        ],
        "interpretation": [
          {
            "coding": [
              {
                "code": "L",
                "system": "http://terminology.hl7.org/CodeSystem/v3-ObservationInterpretation",
                "display": "Low"
              }
            ]
          }
        ],
        "text": {
          "status": "generated",
          "div": "<div xmlns=\"http://www.w3.org/1999/xhtml\"><table class=\"hl7__eu__lab__report\"><tr><th>Test</th><th>06-Jan-2016</th><th>Reference&#xA0;Range</th><th>Unit</th></tr><tr><td>Hemoglobin A1c/Hemoglobin.total in Blood</td><td>3.3</td><td>4.3 - 6.4</td><td>L</td><td>%</td></tr></table></div>"
        },
        "status": "final",
        "subject": {
          "reference": "urn:uuid:ed0a60b9-0ef5-4fcd-adf0-b24bcf9f8632",
          "display": "Θεμιστοκλής Λιναρδάκη"
        },
        "effectiveDateTime": "2016-01-06T06:16:00Z",
        "specimen": {
          "reference": "urn:uuid:f06d466f-0786-4ea1-8baa-a3a4fb0d3770"
        }
      }
    },
    {
      "fullUrl": "urn:uuid:a14e06fc-50b5-42ca-bef7-20335bdc5650",
      "resource": {
        "resourceType": "Observation",
        "id": "a14e06fc-50b5-42ca-bef7-20335bdc5650",
        "meta": {
          "profile": [
            "http://hl7.eu/fhir/laboratory/StructureDefinition/Observation-resultslab-eu-lab"
          ]
        },
        "performer": [
          {
            "display": "The Central European Lab"
          }
        ],
        "category": [
          {
            "coding": [
              {
                "system": "http://terminology.hl7.org/CodeSystem/observation-category",
                "code": "laboratory"
              }
            ]
          }
        ],
        "code": {
          "coding": [
            {
              "code": "2339-0",
              "system": "http://loinc.org",
              "display": "Glucose [Mass/volume] in Blood"
            }
          ],
          "text": "Glucose [Mass/volume] in Blood"
        },
        "valueQuantity": {
          "system": "http://unitsofmeasure.org",
          "value": 87.6,
          "unit": "mg/dL",
          "code": "mg/dL"
        },
        "referenceRange": [
          {
            "low": {
              "value": 70,
              "code": "mg/dL",
              "system": "http://unitsofmeasure.org"
            }
          },
          {
            "high": {
              "value": 140,
              "code": "mg/dL",
              "system": "http://unitsofmeasure.org"
            }
          }
        ],
        "text": {
          "status": "generated",
          "div": "<div xmlns=\"http://www.w3.org/1999/xhtml\"><table class=\"hl7__eu__lab__report\"><tr><th>Test</th><th>06-Jan-2016</th><th>Reference&#xA0;Range</th><th>Unit</th></tr><tr><td>Glucose [Mass/volume] in Blood</td><td>87.6</td><td>70 - 140</td><td></td><td>mg/dL</td></tr></table></div>"
        },
        "status": "final",
        "subject": {
          "reference": "urn:uuid:ed0a60b9-0ef5-4fcd-adf0-b24bcf9f8632",
          "display": "Θεμιστοκλής Λιναρδάκη"
        },
        "effectiveDateTime": "2016-01-06T06:16:00Z",
        "specimen": {
          "reference": "urn:uuid:f06d466f-0786-4ea1-8baa-a3a4fb0d3770"
        }
      }
    },
    {
      "fullUrl": "urn:uuid:1229eea7-d5a3-4337-93f2-c46a68bfb0c4",
      "resource": {
        "resourceType": "Observation",
        "id": "1229eea7-d5a3-4337-93f2-c46a68bfb0c4",
        "meta": {
          "profile": [
            "http://hl7.eu/fhir/laboratory/StructureDefinition/Observation-resultslab-eu-lab"
          ]
        },
        "performer": [
          {
            "display": "The Central European Lab"
          }
        ],
        "category": [
          {
            "coding": [
              {
                "system": "http://terminology.hl7.org/CodeSystem/observation-category",
                "code": "laboratory"
              }
            ]
          }
        ],
        "code": {
          "coding": [
            {
              "code": "6299-2",
              "system": "http://loinc.org",
              "display": "Urea nitrogen [Mass/volume] in Blood"
            }
          ],
          "text": "Urea nitrogen [Mass/volume] in Blood"
        },
        "valueQuantity": {
          "system": "http://unitsofmeasure.org",
          "value": 16,
          "unit": "mg/dL",
          "code": "mg/dL"
        },
        "referenceRange": [
          {
            "low": {
              "value": 7,
              "code": "mg/dL",
              "system": "http://unitsofmeasure.org"
            }
          },
          {
            "high": {
              "value": 20,
              "code": "mg/dL",
              "system": "http://unitsofmeasure.org"
            }
          }
        ],
        "text": {
          "status": "generated",
          "div": "<div xmlns=\"http://www.w3.org/1999/xhtml\"><table class=\"hl7__eu__lab__report\"><tr><th>Test</th><th>06-Jan-2016</th><th>Reference&#xA0;Range</th><th>Unit</th></tr><tr><td>Urea nitrogen [Mass/volume] in Blood</td><td>16.0</td><td>7 - 20</td><td></td><td>mg/dL</td></tr></table></div>"
        },
        "status": "final",
        "subject": {
          "reference": "urn:uuid:ed0a60b9-0ef5-4fcd-adf0-b24bcf9f8632",
          "display": "Θεμιστοκλής Λιναρδάκη"
        },
        "effectiveDateTime": "2016-01-06T06:16:00Z",
        "specimen": {
          "reference": "urn:uuid:f06d466f-0786-4ea1-8baa-a3a4fb0d3770"
        }
      }
    },
    {
      "fullUrl": "urn:uuid:703f3b0a-e90b-44bb-962c-0bb578b66f07",
      "resource": {
        "resourceType": "Observation",
        "id": "703f3b0a-e90b-44bb-962c-0bb578b66f07",
        "meta": {
          "profile": [
            "http://hl7.eu/fhir/laboratory/StructureDefinition/Observation-resultslab-eu-lab"
          ]
        },
        "performer": [
          {
            "display": "The Central European Lab"
          }
        ],
        "category": [
          {
            "coding": [
              {
                "system": "http://terminology.hl7.org/CodeSystem/observation-category",
                "code": "laboratory"
              }
            ]
          }
        ],
        "code": {
          "coding": [
            {
              "code": "38483-4",
              "system": "http://loinc.org",
              "display": "Creatinine [Mass/volume] in Blood"
            }
          ],
          "text": "Creatinine [Mass/volume] in Blood"
        },
        "valueQuantity": {
          "system": "http://unitsofmeasure.org",
          "value": 3.9,
          "unit": "mg/dL",
          "code": "mg/dL"
        },
        "referenceRange": [
          {
            "low": {
              "value": 0.6,
              "code": "mg/dL",
              "system": "http://unitsofmeasure.org"
            }
          },
          {
            "high": {
              "value": 1.3,
              "code": "mg/dL",
              "system": "http://unitsofmeasure.org"
            }
          }
        ],
        "interpretation": [
          {
            "coding": [
              {
                "code": "H",
                "system": "http://terminology.hl7.org/CodeSystem/v3-ObservationInterpretation",
                "display": "High"
              }
            ]
          }
        ],
        "text": {
          "status": "generated",
          "div": "<div xmlns=\"http://www.w3.org/1999/xhtml\"><table class=\"hl7__eu__lab__report\"><tr><th>Test</th><th>06-Jan-2016</th><th>Reference&#xA0;Range</th><th>Unit</th></tr><tr><td>Creatinine [Mass/volume] in Blood</td><td>3.9</td><td>0.6 - 1.3</td><td>H</td><td>mg/dL</td></tr></table></div>"
        },
        "status": "final",
        "subject": {
          "reference": "urn:uuid:ed0a60b9-0ef5-4fcd-adf0-b24bcf9f8632",
          "display": "Θεμιστοκλής Λιναρδάκη"
        },
        "effectiveDateTime": "2016-01-06T06:16:00Z",
        "specimen": {
          "reference": "urn:uuid:f06d466f-0786-4ea1-8baa-a3a4fb0d3770"
        }
      }
    },
    {
      "fullUrl": "urn:uuid:6c529d50-bb32-46ee-b4fc-1695749e2571",
      "resource": {
        "resourceType": "Observation",
        "id": "6c529d50-bb32-46ee-b4fc-1695749e2571",
        "meta": {
          "profile": [
            "http://hl7.eu/fhir/laboratory/StructureDefinition/Observation-resultslab-eu-lab"
          ]
        },
        "performer": [
          {
            "display": "The Central European Lab"
          }
        ],
        "category": [
          {
            "coding": [
              {
                "system": "http://terminology.hl7.org/CodeSystem/observation-category",
                "code": "laboratory"
              }
            ]
          }
        ],
        "code": {
          "coding": [
            {
              "code": "49765-1",
              "system": "http://loinc.org",
              "display": "Calcium [Mass/volume] in Blood"
            }
          ],
          "text": "Calcium [Mass/volume] in Blood"
        },
        "valueQuantity": {
          "system": "http://unitsofmeasure.org",
          "value": 8.6,
          "unit": "mg/dL",
          "code": "mg/dL"
        },
        "referenceRange": [
          {
            "low": {
              "value": 8.5,
              "code": "mg/dL",
              "system": "http://unitsofmeasure.org"
            }
          },
          {
            "high": {
              "value": 10.5,
              "code": "mg/dL",
              "system": "http://unitsofmeasure.org"
            }
          }
        ],
        "text": {
          "status": "generated",
          "div": "<div xmlns=\"http://www.w3.org/1999/xhtml\"><table class=\"hl7__eu__lab__report\"><tr><th>Test</th><th>06-Jan-2016</th><th>Reference&#xA0;Range</th><th>Unit</th></tr><tr><td>Calcium [Mass/volume] in Blood</td><td>8.6</td><td>8.5 - 10.5</td><td></td><td>mg/dL</td></tr></table></div>"
        },
        "status": "final",
        "subject": {
          "reference": "urn:uuid:ed0a60b9-0ef5-4fcd-adf0-b24bcf9f8632",
          "display": "Θεμιστοκλής Λιναρδάκη"
        },
        "effectiveDateTime": "2016-01-06T06:16:00Z",
        "specimen": {
          "reference": "urn:uuid:f06d466f-0786-4ea1-8baa-a3a4fb0d3770"
        }
      }
    },
    {
      "fullUrl": "urn:uuid:613aa435-a092-45b5-af2d-b203e8afcb17",
      "resource": {
        "resourceType": "Observation",
        "id": "613aa435-a092-45b5-af2d-b203e8afcb17",
        "meta": {
          "profile": [
            "http://hl7.eu/fhir/laboratory/StructureDefinition/Observation-resultslab-eu-lab"
          ]
        },
        "performer": [
          {
            "display": "The Central European Lab"
          }
        ],
        "category": [
          {
            "coding": [
              {
                "system": "http://terminology.hl7.org/CodeSystem/observation-category",
                "code": "laboratory"
              }
            ]
          }
        ],
        "code": {
          "coding": [
            {
              "code": "2947-0",
              "system": "http://loinc.org",
              "display": "Sodium [Moles/volume] in Blood"
            }
          ],
          "text": "Sodium [Moles/volume] in Blood"
        },
        "valueQuantity": {
          "system": "http://unitsofmeasure.org",
          "value": 137.5,
          "unit": "mmol/L",
          "code": "mmol/L"
        },
        "referenceRange": [
          {
            "low": {
              "value": 135,
              "code": "mmol/L",
              "system": "http://unitsofmeasure.org"
            }
          },
          {
            "high": {
              "value": 145,
              "code": "mmol/L",
              "system": "http://unitsofmeasure.org"
            }
          }
        ],
        "text": {
          "status": "generated",
          "div": "<div xmlns=\"http://www.w3.org/1999/xhtml\"><table class=\"hl7__eu__lab__report\"><tr><th>Test</th><th>06-Jan-2016</th><th>Reference&#xA0;Range</th><th>Unit</th></tr><tr><td>Sodium [Moles/volume] in Blood</td><td>137.5</td><td>135 - 145</td><td></td><td>mmol/L</td></tr></table></div>"
        },
        "status": "final",
        "subject": {
          "reference": "urn:uuid:ed0a60b9-0ef5-4fcd-adf0-b24bcf9f8632",
          "display": "Θεμιστοκλής Λιναρδάκη"
        },
        "effectiveDateTime": "2016-01-06T06:16:00Z",
        "specimen": {
          "reference": "urn:uuid:f06d466f-0786-4ea1-8baa-a3a4fb0d3770"
        }
      }
    },
    {
      "fullUrl": "urn:uuid:4cf06554-b9d3-4248-afc5-3a801a1b5c10",
      "resource": {
        "resourceType": "Observation",
        "id": "4cf06554-b9d3-4248-afc5-3a801a1b5c10",
        "meta": {
          "profile": [
            "http://hl7.eu/fhir/laboratory/StructureDefinition/Observation-resultslab-eu-lab"
          ]
        },
        "performer": [
          {
            "display": "The Central European Lab"
          }
        ],
        "category": [
          {
            "coding": [
              {
                "system": "http://terminology.hl7.org/CodeSystem/observation-category",
                "code": "laboratory"
              }
            ]
          }
        ],
        "code": {
          "coding": [
            {
              "code": "6298-4",
              "system": "http://loinc.org",
              "display": "Potassium [Moles/volume] in Blood"
            }
          ],
          "text": "Potassium [Moles/volume] in Blood"
        },
        "valueQuantity": {
          "system": "http://unitsofmeasure.org",
          "value": 3.9,
          "unit": "mmol/L",
          "code": "mmol/L"
        },
        "referenceRange": [
          {
            "low": {
              "value": 3.5,
              "code": "mmol/L",
              "system": "http://unitsofmeasure.org"
            }
          },
          {
            "high": {
              "value": 5.3,
              "code": "mmol/L",
              "system": "http://unitsofmeasure.org"
            }
          }
        ],
        "text": {
          "status": "generated",
          "div": "<div xmlns=\"http://www.w3.org/1999/xhtml\"><table class=\"hl7__eu__lab__report\"><tr><th>Test</th><th>06-Jan-2016</th><th>Reference&#xA0;Range</th><th>Unit</th></tr><tr><td>Potassium [Moles/volume] in Blood</td><td>3.9</td><td>3.5 - 5.3</td><td></td><td>mmol/L</td></tr></table></div>"
        },
        "status": "final",
        "subject": {
          "reference": "urn:uuid:ed0a60b9-0ef5-4fcd-adf0-b24bcf9f8632",
          "display": "Θεμιστοκλής Λιναρδάκη"
        },
        "effectiveDateTime": "2016-01-06T06:16:00Z",
        "specimen": {
          "reference": "urn:uuid:f06d466f-0786-4ea1-8baa-a3a4fb0d3770"
        }
      }
    },
    {
      "fullUrl": "urn:uuid:342f1d1c-cd60-4387-a020-deee95eb9396",
      "resource": {
        "resourceType": "Observation",
        "id": "342f1d1c-cd60-4387-a020-deee95eb9396",
        "meta": {
          "profile": [
            "http://hl7.eu/fhir/laboratory/StructureDefinition/Observation-resultslab-eu-lab"
          ]
        },
        "performer": [
          {
            "display": "The Central European Lab"
          }
        ],
        "category": [
          {
            "coding": [
              {
                "system": "http://terminology.hl7.org/CodeSystem/observation-category",
                "code": "laboratory"
              }
            ]
          }
        ],
        "code": {
          "coding": [
            {
              "code": "2069-3",
              "system": "http://loinc.org",
              "display": "Chloride [Moles/volume] in Blood"
            }
          ],
          "text": "Chloride [Moles/volume] in Blood"
        },
        "valueQuantity": {
          "system": "http://unitsofmeasure.org",
          "value": 104.2,
          "unit": "mmol/L",
          "code": "mmol/L"
        },
        "referenceRange": [
          {
            "low": {
              "value": 98,
              "code": "mmol/L",
              "system": "http://unitsofmeasure.org"
            }
          },
          {
            "high": {
              "value": 110,
              "code": "mmol/L",
              "system": "http://unitsofmeasure.org"
            }
          }
        ],
        "text": {
          "status": "generated",
          "div": "<div xmlns=\"http://www.w3.org/1999/xhtml\"><table class=\"hl7__eu__lab__report\"><tr><th>Test</th><th>06-Jan-2016</th><th>Reference&#xA0;Range</th><th>Unit</th></tr><tr><td>Chloride [Moles/volume] in Blood</td><td>104.2</td><td>98 - 110</td><td></td><td>mmol/L</td></tr></table></div>"
        },
        "status": "final",
        "subject": {
          "reference": "urn:uuid:ed0a60b9-0ef5-4fcd-adf0-b24bcf9f8632",
          "display": "Θεμιστοκλής Λιναρδάκη"
        },
        "effectiveDateTime": "2016-01-06T06:16:00Z",
        "specimen": {
          "reference": "urn:uuid:f06d466f-0786-4ea1-8baa-a3a4fb0d3770"
        }
      }
    },
    {
      "fullUrl": "urn:uuid:b880dafc-d5b4-4b19-bb51-7cc5249bac54",
      "resource": {
        "resourceType": "Observation",
        "id": "b880dafc-d5b4-4b19-bb51-7cc5249bac54",
        "meta": {
          "profile": [
            "http://hl7.eu/fhir/laboratory/StructureDefinition/Observation-resultslab-eu-lab"
          ]
        },
        "performer": [
          {
            "display": "The Central European Lab"
          }
        ],
        "category": [
          {
            "coding": [
              {
                "system": "http://terminology.hl7.org/CodeSystem/observation-category",
                "code": "laboratory"
              }
            ]
          }
        ],
        "code": {
          "coding": [
            {
              "code": "20565-8",
              "system": "http://loinc.org",
              "display": "Carbon dioxide, total [Moles/volume] in Blood"
            }
          ],
          "text": "Carbon dioxide, total [Moles/volume] in Blood"
        },
        "valueQuantity": {
          "system": "http://unitsofmeasure.org",
          "value": 22.8,
          "unit": "mmol/L",
          "code": "mmol/L"
        },
        "referenceRange": [
          {
            "low": {
              "value": 22,
              "code": "mmol/L",
              "system": "http://unitsofmeasure.org"
            }
          },
          {
            "high": {
              "value": 29,
              "code": "mmol/L",
              "system": "http://unitsofmeasure.org"
            }
          }
        ],
        "text": {
          "status": "generated",
          "div": "<div xmlns=\"http://www.w3.org/1999/xhtml\"><table class=\"hl7__eu__lab__report\"><tr><th>Test</th><th>06-Jan-2016</th><th>Reference&#xA0;Range</th><th>Unit</th></tr><tr><td>Carbon dioxide, total [Moles/volume] in Blood</td><td>22.8</td><td>22 - 29</td><td></td><td>mmol/L</td></tr></table></div>"
        },
        "status": "final",
        "subject": {
          "reference": "urn:uuid:ed0a60b9-0ef5-4fcd-adf0-b24bcf9f8632",
          "display": "Θεμιστοκλής Λιναρδάκη"
        },
        "effectiveDateTime": "2016-01-06T06:16:00Z",
        "specimen": {
          "reference": "urn:uuid:f06d466f-0786-4ea1-8baa-a3a4fb0d3770"
        }
      }
    },
    {
      "fullUrl": "urn:uuid:9bc586b3-c894-485e-9ead-1f3773d8bfe0",
      "resource": {
        "resourceType": "Device",
        "id": "9bc586b3-c894-485e-9ead-1f3773d8bfe0",
        "deviceName": [
          {
            "name": "SYNDERAI Synthetic Generator",
            "type": "manufacturer-name"
          }
        ],
        "version": [
          {
            "value": "5.0"
          }
        ],
        "text": {
          "status": "generated",
          "div": "<div xmlns=\"http://www.w3.org/1999/xhtml\">SYNDERAI Synthetic Generator v5.0</div>"
        },
        "status": "active\"",
        "distinctIdentifier": "synderai-generator-50",
        "manufacturer": "SYNDERAI Project"
      }
    },
    {
      "fullUrl": "urn:uuid:d88d39b0-1ba4-41c4-9854-811e3f055e3b",
      "resource": {
        "resourceType": "Provenance",
        "id": "d88d39b0-1ba4-41c4-9854-811e3f055e3b",
        "target": [
          {
            "reference": "Patient/ed0a60b9-0ef5-4fcd-adf0-b24bcf9f8632"
          },
          {
            "reference": "Bundle/41c7691f-8c8c-403c-b451-c038027c6320"
          },
          {
            "reference": "Composition/08561d61-1428-43e9-ba0b-911df873419a"
          },
          {
            "reference": "PractitionerRole/4050efce-35d8-473c-9c8d-30dc12965c19"
          },
          {
            "reference": "Practitioner/72a14b6f-4f6d-4e6b-92b2-72a26c06dde1"
          },
          {
            "reference": "PractitionerRole/548dc9a1-3ae4-457d-85bb-dfe543394f63"
          },
          {
            "reference": "Organization/32f906ba-4312-4b3e-935c-4eacf158dfc7"
          }
        ],
        "activity": {
          "text": "Synthetic Example Data Generation"
        },
        "policy": [
          "https://synderai.net/synderai-synthetic-data-policy"
        ],
        "agent": [
          {
            "type": {
              "text": "author"
            },
            "who": {
              "reference": "Device/9bc586b3-c894-485e-9ead-1f3773d8bfe0"
            }
          }
        ],
        "reason": [
          {
            "text": "Interoperability Testing and Training (non-clinical use)"
          }
        ],
        "text": {
          "status": "generated",
          "div": "<div xmlns=\"http://www.w3.org/1999/xhtml\">Provenance for SYNDERAI Synthetic Example Data Resource</div>"
        },
        "recorded": "2016-01-06T07:16:00Z"
      }
    },
    {
      "fullUrl": "urn:uuid:4050efce-35d8-473c-9c8d-30dc12965c19",
      "resource": {
        "resourceType": "PractitionerRole",
        "id": "4050efce-35d8-473c-9c8d-30dc12965c19",
        "meta": {
          "profile": [
            "http://hl7.eu/fhir/base/StructureDefinition/practitionerRole-eu"
          ]
        },
        "text": {
          "status": "generated",
          "div": "<div xmlns=\"http://www.w3.org/1999/xhtml\">Laboratory Role Id: 4050efce-35d8-473c-9c8d-30dc12965c19</div>"
        },
        "practitioner": {
          "reference": "urn:uuid:72a14b6f-4f6d-4e6b-92b2-72a26c06dde1"
        }
      }
    },
    {
      "fullUrl": "urn:uuid:72a14b6f-4f6d-4e6b-92b2-72a26c06dde1",
      "resource": {
        "resourceType": "Practitioner",
        "id": "72a14b6f-4f6d-4e6b-92b2-72a26c06dde1",
        "meta": {
          "profile": [
            "http://hl7.eu/fhir/base/StructureDefinition/practitioner-eu"
          ]
        },
        "identifier": [
          {
            "assigner": {
              "display": "HL7 Europe"
            },
            "system": "urn:oid:2.16.840.1.113883.2.51.999",
            "value": "42d6fbc5-75e7-4d29-bfa1-50ed1f187f58"
          }
        ],
        "name": [
          {
            "prefix": [
              "dr"
            ],
            "given": [
              "Ex"
            ],
            "family": "Ample"
          }
        ],
        "address": [
          {
            "line": [
              "Laboratoire Central Européenne",
              "Boulevard du Jardin Botanique 32"
            ],
            "postalCode": "1000",
            "city": "Brussels",
            "country": "Belgium"
          }
        ],
        "text": {
          "status": "generated",
          "div": "<div xmlns=\"http://www.w3.org/1999/xhtml\">Laboratory: Laboratoire Central Européenne, 1000 Brussels, Belgium</div>"
        }
      }
    }
  ],
  "type": "document",
  "timestamp": "2016-01-06T07:16:00Z"
}
