{
  "resourceType": "Bundle",
  "id": "a2003ade-8b94-4bf4-895c-05fd2f8c47eb",
  "meta": {
    "profile": [
      "http://hl7.eu/fhir/laboratory/StructureDefinition/Bundle-eu-lab"
    ]
  },
  "identifier": {
    "assigner": {
      "display": "HL7 Europe"
    },
    "system": "urn:oid:2.16.840.1.113883.2.51.999",
    "value": "528a6e20-3726-4c2a-bd9a-7215d9dff073"
  },
  "entry": [
    {
      "fullUrl": "urn:uuid:35df38dd-5911-4ddc-9fce-1e464192e844",
      "resource": {
        "resourceType": "Composition",
        "id": "35df38dd-5911-4ddc-9fce-1e464192e844",
        "meta": {
          "profile": [
            "http://hl7.eu/fhir/laboratory/StructureDefinition/Composition-eu-lab"
          ]
        },
        "identifier": {
          "assigner": {
            "display": "HL7 Europe"
          },
          "system": "urn:oid:2.16.840.1.113883.2.51.999",
          "value": "f7c4ceb5-4ae2-44bf-a7bb-96fb92253e0b"
        },
        "author": [
          {
            "reference": "urn:uuid:95809cb5-696a-4724-8a21-3f1c70180f4d"
          }
        ],
        "category": [
          {
            "coding": [
              {
                "code": "26436-6",
                "system": "http://loinc.org",
                "display": "Laboratory studies (set)"
              }
            ]
          }
        ],
        "type": {
          "coding": [
            {
              "code": "11502-2",
              "system": "http://loinc.org",
              "display": "Laboratory report"
            }
          ],
          "text": "Laboratory Report"
        },
        "section": [
          {
            "code": {
              "coding": [
                {
                  "code": "26436-6",
                  "system": "http://loinc.org",
                  "display": "Laboratory studies (set)"
                }
              ],
              "text": "Laboratory studies"
            },
            "section": [
              {
                "code": {
                  "coding": [
                    {
                      "code": "$18719-5",
                      "system": "http://loinc.org",
                      "display": "Chemistry studies (set)"
                    }
                  ],
                  "text": "Chemistry"
                },
                "entry": [
                  {
                    "reference": "urn:uuid:3ad1c0d5-d05b-4ba1-b8d4-6536357508cd"
                  },
                  {
                    "reference": "urn:uuid:6c3c2cb2-f6c4-4f17-9ada-c64ed243c839"
                  },
                  {
                    "reference": "urn:uuid:c1b8a9f3-7f44-4c7a-977b-1fb6df58199a"
                  },
                  {
                    "reference": "urn:uuid:dfbc134a-b624-4a4e-b009-1cf6dcb6469f"
                  },
                  {
                    "reference": "urn:uuid:d2085bab-e8d6-4544-9132-58f700ac2130"
                  },
                  {
                    "reference": "urn:uuid:c1895096-a2c5-4eb2-9ef0-02452563191a"
                  },
                  {
                    "reference": "urn:uuid:b923e2bb-350f-4b06-b813-76fec932bb76"
                  },
                  {
                    "reference": "urn:uuid:72db3897-1ada-41a9-ba95-6eea1352b641"
                  },
                  {
                    "reference": "urn:uuid:295beb11-7e56-4beb-bb0a-b27076f945bc"
                  },
                  {
                    "reference": "urn:uuid:d3a5e613-4182-4c3c-aa15-d8ef34f16448"
                  },
                  {
                    "reference": "urn:uuid:12b6c4b3-b5ce-49cc-a346-8d7cd55757b1"
                  },
                  {
                    "reference": "urn:uuid:d7d19a2b-cdad-4ec4-b5b4-1160fc1412f1"
                  },
                  {
                    "reference": "urn:uuid:f5430ed2-ad27-47b8-ae79-09690cc095c9"
                  },
                  {
                    "reference": "urn:uuid:96309c26-ff7a-4747-92c3-0384e33cc9fe"
                  }
                ],
                "text": {
                  "status": "generated",
                  "div": "<div xmlns=\"http://www.w3.org/1999/xhtml\"><h3>Chemistry</h3><table class=\"hl7__eu__lab__report\"><thead><tr><th>Test</th><th>22-SEP-2020</th><th>Reference&#xA0;Range</th><th>Unit</th></tr></thead><tbody><tr><td>Hemoglobin A1c/Hemoglobin.total in Blood</td><td>5.4</td><td>4.5 - 6.4</td><td>%</td></tr><tr><td>Glucose [Mass/volume] in Blood</td><td>74.6</td><td>70 - 140</td><td>mg/dL</td></tr><tr><td>Urea nitrogen [Mass/volume] in Blood</td><td>11.3</td><td>7 - 25</td><td>mg/dL</td></tr><tr><td>Creatinine [Mass/volume] in Blood</td><td><strong>0.6 L</strong></td><td>0.9 - 1.3</td><td>mg/dL</td></tr><tr><td>Calcium [Mass/volume] in Blood</td><td>9.7</td><td>8.5 - 10.5</td><td>mg/dL</td></tr><tr><td>Sodium [Moles/volume] in Blood</td><td>140.4</td><td>135 - 145</td><td>mmol/L</td></tr><tr><td>Potassium [Moles/volume] in Blood</td><td>4.3</td><td>3.5 - 5.1</td><td>mmol/L</td></tr><tr><td>Chloride [Moles/volume] in Blood</td><td>109.0</td><td>98 - 110</td><td>mmol/L</td></tr><tr><td>Carbon dioxide, total [Moles/volume] in Blood</td><td>25.4</td><td>22 - 29</td><td>mmol/L</td></tr><tr><td>Cholesterol [Mass/volume] in Serum or Plasma</td><td><strong>307.8 H</strong></td><td>100 - 200</td><td>mg/dL</td></tr><tr><td>Triglyceride [Mass/volume] in Serum or Plasma</td><td>113.3</td><td>45 - 175</td><td>mg/dL</td></tr><tr><td>Cholesterol in LDL [Mass/volume] in Serum or Plasma by Direct assay</td><td><strong>228.0 H</strong></td><td>0 - 190</td><td>mg/dL</td></tr><tr><td>Cholesterol in HDL [Mass/volume] in Serum or Plasma</td><td>57.2</td><td>40 - 100</td><td>mg/dL</td></tr><tr><td>Microalbumin/Creatinine [Mass Ratio] in Urine</td><td>13.0</td><td>0 - 30</td><td>mg/g</td></tr></tbody></table></div>"
                },
                "title": "Chemistry"
              }
            ],
            "title": "Laboratory Report"
          },
          {
            "text": {
              "status": "generated",
              "div": "<div xmlns=\"http://www.w3.org/1999/xhtml\"><h3>Annotation</h3><table class=\"hl7__eu__lab__report\"><tr><th>Conclusion and Recommendations based on this report and previous findings known to us</th></tr><tr><td>Most parameters are within normal limits. Notable findings include mildly decreased creatinine, likely reflecting low muscle mass in an elderly patient, and significantly elevated total and LDL cholesterol, indicating increased cardiovascular risk. Glucose control is adequate. Renal function and electrolytes are normal. Recommend addressing hypercholesterolemia and monitoring cardiovascular risk factors.</td></tr></table></div>"
            },
            "code": {
              "coding": [
                {
                  "system": "http://loinc.org",
                  "code": "48767-8",
                  "display": "Annotation comment"
                }
              ]
            },
            "title": "Annotation comment"
          }
        ],
        "status": "final",
        "subject": {
          "reference": "urn:uuid:1ad5b980-4161-4ab9-8747-0ff0ae8faaaf",
          "display": "Urbano Cantón"
        },
        "date": "2020-09-22T19:07:13Z",
        "title": "Laboratory Report",
        "confidentiality": "N"
      }
    },
    {
      "fullUrl": "urn:uuid:d5f0d022-2ebb-49ec-8a35-be1c14acb7e8",
      "resource": {
        "resourceType": "DiagnosticReport",
        "id": "d5f0d022-2ebb-49ec-8a35-be1c14acb7e8",
        "meta": {
          "profile": [
            "http://hl7.eu/fhir/laboratory/StructureDefinition/DiagnosticReport-eu-lab"
          ]
        },
        "identifier": [
          {
            "assigner": {
              "display": "HL7 Europe"
            },
            "system": "urn:oid:2.16.840.1.113883.2.51.999",
            "value": "ceabb5d8-a0c5-40b4-a0c8-f7f433786edf"
          }
        ],
        "extension": [
          {
            "url": "http://hl7.org/fhir/5.0/StructureDefinition/extension-DiagnosticReport.composition",
            "valueReference": {
              "reference": "urn:uuid:f7c4ceb5-4ae2-44bf-a7bb-96fb92253e0b"
            }
          }
        ],
        "category": [
          {
            "coding": [
              {
                "code": "26436-6",
                "system": "http://loinc.org",
                "display": "Laboratory studies (set)"
              }
            ]
          }
        ],
        "specimen": [
          {
            "reference": "urn:uuid:c00a1bb5-4a79-4fb3-a4b4-90a5fd80d865"
          },
          {
            "reference": "urn:uuid:51198884-7c7a-4698-aecb-8e258bc93e5b"
          },
          {
            "reference": "urn:uuid:f4152246-ac57-4f95-9cfa-38222aad8404"
          }
        ],
        "result": [
          {
            "reference": "urn:uuid:3ad1c0d5-d05b-4ba1-b8d4-6536357508cd"
          },
          {
            "reference": "urn:uuid:6c3c2cb2-f6c4-4f17-9ada-c64ed243c839"
          },
          {
            "reference": "urn:uuid:c1b8a9f3-7f44-4c7a-977b-1fb6df58199a"
          },
          {
            "reference": "urn:uuid:dfbc134a-b624-4a4e-b009-1cf6dcb6469f"
          },
          {
            "reference": "urn:uuid:d2085bab-e8d6-4544-9132-58f700ac2130"
          },
          {
            "reference": "urn:uuid:c1895096-a2c5-4eb2-9ef0-02452563191a"
          },
          {
            "reference": "urn:uuid:b923e2bb-350f-4b06-b813-76fec932bb76"
          },
          {
            "reference": "urn:uuid:72db3897-1ada-41a9-ba95-6eea1352b641"
          },
          {
            "reference": "urn:uuid:295beb11-7e56-4beb-bb0a-b27076f945bc"
          },
          {
            "reference": "urn:uuid:d3a5e613-4182-4c3c-aa15-d8ef34f16448"
          },
          {
            "reference": "urn:uuid:12b6c4b3-b5ce-49cc-a346-8d7cd55757b1"
          },
          {
            "reference": "urn:uuid:d7d19a2b-cdad-4ec4-b5b4-1160fc1412f1"
          },
          {
            "reference": "urn:uuid:f5430ed2-ad27-47b8-ae79-09690cc095c9"
          },
          {
            "reference": "urn:uuid:96309c26-ff7a-4747-92c3-0384e33cc9fe"
          }
        ],
        "status": "registered",
        "code": {
          "coding": [
            {
              "code": "11502-2",
              "system": "http://loinc.org",
              "display": "Laboratory report"
            }
          ]
        },
        "subject": {
          "reference": "urn:uuid:1ad5b980-4161-4ab9-8747-0ff0ae8faaaf",
          "display": "Urbano Cantón"
        }
      }
    },
    {
      "fullUrl": "urn:uuid:1ad5b980-4161-4ab9-8747-0ff0ae8faaaf",
      "resource": {
        "resourceType": "Patient",
        "id": "1ad5b980-4161-4ab9-8747-0ff0ae8faaaf",
        "meta": {
          "security": [
            {
              "system": "http://terminology.hl7.org/CodeSystem/v3-ActReason",
              "code": "HTEST"
            },
            {
              "system": "http://terminology.hl7.org/CodeSystem/v3-ActReason",
              "code": "TRAIN"
            }
          ],
          "tag": [
            {
              "system": "https://synderai.net/fhir/CodeSystem/tags",
              "code": "synthetic",
              "display": "SYNDERAI Synthetic data"
            }
          ],
          "profile": [
            "http://hl7.eu/fhir/base/StructureDefinition/patient-eu-core"
          ]
        },
        "identifier": [
          {
            "type": {
              "coding": [
                {
                  "code": "PT",
                  "system": "http://terminology.hl7.org/CodeSystem/v2-0203"
                }
              ]
            },
            "system": "http://ec.europa.eu/identifier/eci",
            "value": "8854-480268-4"
          },
          {
            "type": {
              "coding": [
                {
                  "code": "MR",
                  "system": "http://terminology.hl7.org/CodeSystem/v2-0203"
                }
              ]
            },
            "system": "http://local.setting.eu/identifier",
            "value": "91128f5c-658f-cfab-4640-b680ec2e24a1"
          }
        ],
        "name": [
          {
            "family": "Cantón"
          },
          {
            "given": [
              "Urbano"
            ]
          },
          {
            "text": "Urbano Cantón"
          }
        ],
        "address": [
          {
            "line": [
              "Vial Vito Trujillo 29 Piso 2 "
            ],
            "use": "home",
            "type": "physical",
            "postalCode": "38001",
            "city": "Santa Cruz de Tenerife",
            "country": "Spain"
          }
        ],
        "telecom": [
          {
            "system": "phone",
            "value": "+34 740 588 857"
          }
        ],
        "extension": [
          {
            "url": "http://hl7.org/fhir/StructureDefinition/patient-nationality",
            "valueCodeableConcept": {
              "coding": [
                {
                  "code": "ES",
                  "system": "http://hl7.org/fhir/ValueSet/country"
                }
              ]
            }
          }
        ],
        "text": {
          "status": "generated",
          "div": "<div xmlns=\"http://www.w3.org/1999/xhtml\"><table class=\"hl7__ips\"><tr><td>Urbano Cantón</td><td>male</td><td>01-Apr-1945</td></tr></table></div>"
        },
        "gender": "male",
        "birthDate": "1945-04-01"
      }
    },
    {
      "fullUrl": "urn:uuid:30344782-e156-4bd9-a150-bf0a6c472ba1",
      "resource": {
        "resourceType": "ServiceRequest",
        "id": "30344782-e156-4bd9-a150-bf0a6c472ba1",
        "meta": {
          "profile": [
            "http://hl7.eu/fhir/laboratory/StructureDefinition/ServiceRequest-eu-lab"
          ]
        },
        "identifier": [
          {
            "system": "http://example.org",
            "value": "02387749-36c9-473b-bc8f-f8aa99263d59"
          }
        ],
        "specimen": [
          {
            "reference": "urn:uuid:c00a1bb5-4a79-4fb3-a4b4-90a5fd80d865"
          },
          {
            "reference": "urn:uuid:51198884-7c7a-4698-aecb-8e258bc93e5b"
          },
          {
            "reference": "urn:uuid:f4152246-ac57-4f95-9cfa-38222aad8404"
          }
        ],
        "reasonCode": [
          {
            "coding": [
              {
                "code": "55822004",
                "system": "http://snomed.info/sct",
                "display": "Hyperlipidemia"
              }
            ]
          },
          {
            "coding": [
              {
                "code": "401314000",
                "system": "http://snomed.info/sct",
                "display": "Acute non-ST segment elevation myocardial infarction"
              }
            ]
          },
          {
            "coding": [
              {
                "code": "6525002",
                "system": "http://snomed.info/sct",
                "display": "Dependent drug abuse"
              }
            ]
          },
          {
            "coding": [
              {
                "code": "124171000119105",
                "system": "http://snomed.info/sct",
                "display": "Chronic intractable migraine without aura"
              }
            ]
          },
          {
            "coding": [
              {
                "code": "414545008",
                "system": "http://snomed.info/sct",
                "display": "Ischemic heart disease"
              }
            ]
          },
          {
            "coding": [
              {
                "code": "368581000119106",
                "system": "http://snomed.info/sct",
                "display": "Neuropathy due to type 2 diabetes mellitus"
              }
            ]
          },
          {
            "coding": [
              {
                "code": "80394007",
                "system": "http://snomed.info/sct",
                "display": "Hyperglycemia"
              }
            ]
          },
          {
            "coding": [
              {
                "code": "237602007",
                "system": "http://snomed.info/sct",
                "display": "Metabolic syndrome X"
              }
            ]
          },
          {
            "coding": [
              {
                "code": "302870006",
                "system": "http://snomed.info/sct",
                "display": "Hypertriglyceridemia"
              }
            ]
          },
          {
            "coding": [
              {
                "code": "44054006",
                "system": "http://snomed.info/sct",
                "display": "Type 2 diabetes mellitus"
              }
            ]
          },
          {
            "coding": [
              {
                "code": "59621000",
                "system": "http://snomed.info/sct",
                "display": "Essential hypertension"
              }
            ]
          },
          {
            "coding": [
              {
                "code": "271737000",
                "system": "http://snomed.info/sct",
                "display": "Anemia"
              }
            ]
          },
          {
            "coding": [
              {
                "code": "40055000",
                "system": "http://snomed.info/sct",
                "display": "Chronic sinusitis"
              }
            ]
          }
        ],
        "status": "active",
        "intent": "order",
        "code": {
          "coding": [
            {
              "code": "108252007",
              "system": "http://snomed.info/sct",
              "display": "Laboratory procedure"
            }
          ]
        },
        "subject": {
          "reference": "urn:uuid:1ad5b980-4161-4ab9-8747-0ff0ae8faaaf",
          "display": "Urbano Cantón"
        },
        "requester": {
          "reference": "urn:uuid:e54ab1c5-a0c4-41a0-b183-7404fb471ba7"
        }
      }
    },
    {
      "fullUrl": "urn:uuid:e54ab1c5-a0c4-41a0-b183-7404fb471ba7",
      "resource": {
        "resourceType": "PractitionerRole",
        "id": "e54ab1c5-a0c4-41a0-b183-7404fb471ba7",
        "meta": {
          "profile": [
            "http://hl7.eu/fhir/base/StructureDefinition/practitionerRole-eu"
          ]
        },
        "text": {
          "status": "generated",
          "div": "<div xmlns=\"http://www.w3.org/1999/xhtml\">Provider Role Id: e54ab1c5-a0c4-41a0-b183-7404fb471ba7</div>"
        },
        "organization": {
          "reference": "urn:uuid:4c2a322a-675e-4296-b702-fbb8638d5f32"
        }
      }
    },
    {
      "fullUrl": "urn:uuid:4c2a322a-675e-4296-b702-fbb8638d5f32",
      "resource": {
        "resourceType": "Organization",
        "id": "4c2a322a-675e-4296-b702-fbb8638d5f32",
        "meta": {
          "profile": [
            "http://hl7.eu/fhir/base/StructureDefinition/organization-eu"
          ]
        },
        "identifier": [
          {
            "assigner": {
              "display": "HL7 Europe"
            },
            "system": "urn:oid:2.16.840.1.113883.2.51.999",
            "value": "3dbd1cf1-ad9b-4d10-9d63-82d5adcee018"
          }
        ],
        "address": [
          {
            "country": "Spain"
          }
        ],
        "text": {
          "status": "generated",
          "div": "<div xmlns=\"http://www.w3.org/1999/xhtml\">Provider Organization: Centro de Salud Ruiz de Padrón</div>"
        },
        "name": "Centro de Salud Ruiz de Padrón"
      }
    },
    {
      "fullUrl": "urn:uuid:c00a1bb5-4a79-4fb3-a4b4-90a5fd80d865",
      "resource": {
        "resourceType": "Specimen",
        "id": "c00a1bb5-4a79-4fb3-a4b4-90a5fd80d865",
        "meta": {
          "profile": [
            "http://hl7.eu/fhir/laboratory/StructureDefinition/Specimen-eu-lab"
          ]
        },
        "collection": {
          "collectedDateTime": "2020-09-22"
        },
        "text": {
          "status": "generated",
          "div": "<div xmlns=\"http://www.w3.org/1999/xhtml\"><table class=\"hl7__eu__lab__report\"><tr><th>Specimen</th><th>Collection Date</th></tr><tr><td>Whole blood specimen (specimen)</td><td><span class=\"nb\">22-Sep-2020</span></td></tr></table></div>"
        },
        "type": {
          "coding": [
            {
              "code": "258580003",
              "system": "http://snomed.info/sct",
              "display": "Whole blood specimen (specimen)"
            }
          ]
        }
      }
    },
    {
      "fullUrl": "urn:uuid:51198884-7c7a-4698-aecb-8e258bc93e5b",
      "resource": {
        "resourceType": "Specimen",
        "id": "51198884-7c7a-4698-aecb-8e258bc93e5b",
        "meta": {
          "profile": [
            "http://hl7.eu/fhir/laboratory/StructureDefinition/Specimen-eu-lab"
          ]
        },
        "collection": {
          "collectedDateTime": "2020-09-22"
        },
        "text": {
          "status": "generated",
          "div": "<div xmlns=\"http://www.w3.org/1999/xhtml\"><table class=\"hl7__eu__lab__report\"><tr><th>Specimen</th><th>Collection Date</th></tr><tr><td>Acellular blood (serum or plasma) specimen</td><td><span class=\"nb\">22-Sep-2020</span></td></tr></table></div>"
        },
        "type": {
          "coding": [
            {
              "code": "122592007",
              "system": "http://snomed.info/sct",
              "display": "Acellular blood (serum or plasma) specimen"
            }
          ]
        }
      }
    },
    {
      "fullUrl": "urn:uuid:f4152246-ac57-4f95-9cfa-38222aad8404",
      "resource": {
        "resourceType": "Specimen",
        "id": "f4152246-ac57-4f95-9cfa-38222aad8404",
        "meta": {
          "profile": [
            "http://hl7.eu/fhir/laboratory/StructureDefinition/Specimen-eu-lab"
          ]
        },
        "collection": {
          "collectedDateTime": "2020-09-22"
        },
        "text": {
          "status": "generated",
          "div": "<div xmlns=\"http://www.w3.org/1999/xhtml\"><table class=\"hl7__eu__lab__report\"><tr><th>Specimen</th><th>Collection Date</th></tr><tr><td>Urine specimen</td><td><span class=\"nb\">22-Sep-2020</span></td></tr></table></div>"
        },
        "type": {
          "coding": [
            {
              "code": "122575003",
              "system": "http://snomed.info/sct",
              "display": "Urine specimen"
            }
          ]
        }
      }
    },
    {
      "fullUrl": "urn:uuid:3ad1c0d5-d05b-4ba1-b8d4-6536357508cd",
      "resource": {
        "resourceType": "Observation",
        "id": "3ad1c0d5-d05b-4ba1-b8d4-6536357508cd",
        "meta": {
          "profile": [
            "http://hl7.eu/fhir/laboratory/StructureDefinition/Observation-resultslab-eu-lab"
          ]
        },
        "performer": [
          {
            "display": "The Central European Lab"
          }
        ],
        "category": [
          {
            "coding": [
              {
                "system": "http://terminology.hl7.org/CodeSystem/observation-category",
                "code": "laboratory"
              }
            ]
          }
        ],
        "code": {
          "coding": [
            {
              "code": "4548-4",
              "system": "http://loinc.org",
              "display": "Hemoglobin A1c/Hemoglobin.total in Blood"
            }
          ],
          "text": "Hemoglobin A1c/Hemoglobin.total in Blood"
        },
        "valueQuantity": {
          "system": "http://unitsofmeasure.org",
          "value": 5.4,
          "unit": "%",
          "code": "%"
        },
        "referenceRange": [
          {
            "low": {
              "value": 4.5,
              "code": "%",
              "system": "http://unitsofmeasure.org"
            }
          },
          {
            "high": {
              "value": 6.4,
              "code": "%",
              "system": "http://unitsofmeasure.org"
            }
          }
        ],
        "text": {
          "status": "generated",
          "div": "<div xmlns=\"http://www.w3.org/1999/xhtml\"><table class=\"hl7__eu__lab__report\"><tr><th>Test</th><th>22-Sep-2020</th><th>Reference&#xA0;Range</th><th>Unit</th></tr><tr><td>Hemoglobin A1c/Hemoglobin.total in Blood</td><td>5.4</td><td>4.5 - 6.4</td><td></td><td>%</td></tr></table></div>"
        },
        "status": "final",
        "subject": {
          "reference": "urn:uuid:1ad5b980-4161-4ab9-8747-0ff0ae8faaaf",
          "display": "Urbano Cantón"
        },
        "effectiveDateTime": "2020-09-22T17:07:13Z",
        "specimen": {
          "reference": "urn:uuid:c00a1bb5-4a79-4fb3-a4b4-90a5fd80d865"
        }
      }
    },
    {
      "fullUrl": "urn:uuid:6c3c2cb2-f6c4-4f17-9ada-c64ed243c839",
      "resource": {
        "resourceType": "Observation",
        "id": "6c3c2cb2-f6c4-4f17-9ada-c64ed243c839",
        "meta": {
          "profile": [
            "http://hl7.eu/fhir/laboratory/StructureDefinition/Observation-resultslab-eu-lab"
          ]
        },
        "performer": [
          {
            "display": "The Central European Lab"
          }
        ],
        "category": [
          {
            "coding": [
              {
                "system": "http://terminology.hl7.org/CodeSystem/observation-category",
                "code": "laboratory"
              }
            ]
          }
        ],
        "code": {
          "coding": [
            {
              "code": "2339-0",
              "system": "http://loinc.org",
              "display": "Glucose [Mass/volume] in Blood"
            }
          ],
          "text": "Glucose [Mass/volume] in Blood"
        },
        "valueQuantity": {
          "system": "http://unitsofmeasure.org",
          "value": 74.6,
          "unit": "mg/dL",
          "code": "mg/dL"
        },
        "referenceRange": [
          {
            "low": {
              "value": 70,
              "code": "mg/dL",
              "system": "http://unitsofmeasure.org"
            }
          },
          {
            "high": {
              "value": 140,
              "code": "mg/dL",
              "system": "http://unitsofmeasure.org"
            }
          }
        ],
        "text": {
          "status": "generated",
          "div": "<div xmlns=\"http://www.w3.org/1999/xhtml\"><table class=\"hl7__eu__lab__report\"><tr><th>Test</th><th>22-Sep-2020</th><th>Reference&#xA0;Range</th><th>Unit</th></tr><tr><td>Glucose [Mass/volume] in Blood</td><td>74.6</td><td>70 - 140</td><td></td><td>mg/dL</td></tr></table></div>"
        },
        "status": "final",
        "subject": {
          "reference": "urn:uuid:1ad5b980-4161-4ab9-8747-0ff0ae8faaaf",
          "display": "Urbano Cantón"
        },
        "effectiveDateTime": "2020-09-22T17:07:13Z",
        "specimen": {
          "reference": "urn:uuid:c00a1bb5-4a79-4fb3-a4b4-90a5fd80d865"
        }
      }
    },
    {
      "fullUrl": "urn:uuid:c1b8a9f3-7f44-4c7a-977b-1fb6df58199a",
      "resource": {
        "resourceType": "Observation",
        "id": "c1b8a9f3-7f44-4c7a-977b-1fb6df58199a",
        "meta": {
          "profile": [
            "http://hl7.eu/fhir/laboratory/StructureDefinition/Observation-resultslab-eu-lab"
          ]
        },
        "performer": [
          {
            "display": "The Central European Lab"
          }
        ],
        "category": [
          {
            "coding": [
              {
                "system": "http://terminology.hl7.org/CodeSystem/observation-category",
                "code": "laboratory"
              }
            ]
          }
        ],
        "code": {
          "coding": [
            {
              "code": "6299-2",
              "system": "http://loinc.org",
              "display": "Urea nitrogen [Mass/volume] in Blood"
            }
          ],
          "text": "Urea nitrogen [Mass/volume] in Blood"
        },
        "valueQuantity": {
          "system": "http://unitsofmeasure.org",
          "value": 11.3,
          "unit": "mg/dL",
          "code": "mg/dL"
        },
        "referenceRange": [
          {
            "low": {
              "value": 7,
              "code": "mg/dL",
              "system": "http://unitsofmeasure.org"
            }
          },
          {
            "high": {
              "value": 25,
              "code": "mg/dL",
              "system": "http://unitsofmeasure.org"
            }
          }
        ],
        "text": {
          "status": "generated",
          "div": "<div xmlns=\"http://www.w3.org/1999/xhtml\"><table class=\"hl7__eu__lab__report\"><tr><th>Test</th><th>22-Sep-2020</th><th>Reference&#xA0;Range</th><th>Unit</th></tr><tr><td>Urea nitrogen [Mass/volume] in Blood</td><td>11.3</td><td>7 - 25</td><td></td><td>mg/dL</td></tr></table></div>"
        },
        "status": "final",
        "subject": {
          "reference": "urn:uuid:1ad5b980-4161-4ab9-8747-0ff0ae8faaaf",
          "display": "Urbano Cantón"
        },
        "effectiveDateTime": "2020-09-22T17:07:13Z",
        "specimen": {
          "reference": "urn:uuid:c00a1bb5-4a79-4fb3-a4b4-90a5fd80d865"
        }
      }
    },
    {
      "fullUrl": "urn:uuid:dfbc134a-b624-4a4e-b009-1cf6dcb6469f",
      "resource": {
        "resourceType": "Observation",
        "id": "dfbc134a-b624-4a4e-b009-1cf6dcb6469f",
        "meta": {
          "profile": [
            "http://hl7.eu/fhir/laboratory/StructureDefinition/Observation-resultslab-eu-lab"
          ]
        },
        "performer": [
          {
            "display": "The Central European Lab"
          }
        ],
        "category": [
          {
            "coding": [
              {
                "system": "http://terminology.hl7.org/CodeSystem/observation-category",
                "code": "laboratory"
              }
            ]
          }
        ],
        "code": {
          "coding": [
            {
              "code": "38483-4",
              "system": "http://loinc.org",
              "display": "Creatinine [Mass/volume] in Blood"
            }
          ],
          "text": "Creatinine [Mass/volume] in Blood"
        },
        "valueQuantity": {
          "system": "http://unitsofmeasure.org",
          "value": 0.6,
          "unit": "mg/dL",
          "code": "mg/dL"
        },
        "referenceRange": [
          {
            "low": {
              "value": 0.9,
              "code": "mg/dL",
              "system": "http://unitsofmeasure.org"
            }
          },
          {
            "high": {
              "value": 1.3,
              "code": "mg/dL",
              "system": "http://unitsofmeasure.org"
            }
          }
        ],
        "interpretation": [
          {
            "coding": [
              {
                "code": "L",
                "system": "http://terminology.hl7.org/CodeSystem/v3-ObservationInterpretation",
                "display": "Low"
              }
            ]
          }
        ],
        "text": {
          "status": "generated",
          "div": "<div xmlns=\"http://www.w3.org/1999/xhtml\"><table class=\"hl7__eu__lab__report\"><tr><th>Test</th><th>22-Sep-2020</th><th>Reference&#xA0;Range</th><th>Unit</th></tr><tr><td>Creatinine [Mass/volume] in Blood</td><td>0.6</td><td>0.9 - 1.3</td><td>L</td><td>mg/dL</td></tr></table></div>"
        },
        "status": "final",
        "subject": {
          "reference": "urn:uuid:1ad5b980-4161-4ab9-8747-0ff0ae8faaaf",
          "display": "Urbano Cantón"
        },
        "effectiveDateTime": "2020-09-22T17:07:13Z",
        "specimen": {
          "reference": "urn:uuid:c00a1bb5-4a79-4fb3-a4b4-90a5fd80d865"
        }
      }
    },
    {
      "fullUrl": "urn:uuid:d2085bab-e8d6-4544-9132-58f700ac2130",
      "resource": {
        "resourceType": "Observation",
        "id": "d2085bab-e8d6-4544-9132-58f700ac2130",
        "meta": {
          "profile": [
            "http://hl7.eu/fhir/laboratory/StructureDefinition/Observation-resultslab-eu-lab"
          ]
        },
        "performer": [
          {
            "display": "The Central European Lab"
          }
        ],
        "category": [
          {
            "coding": [
              {
                "system": "http://terminology.hl7.org/CodeSystem/observation-category",
                "code": "laboratory"
              }
            ]
          }
        ],
        "code": {
          "coding": [
            {
              "code": "49765-1",
              "system": "http://loinc.org",
              "display": "Calcium [Mass/volume] in Blood"
            }
          ],
          "text": "Calcium [Mass/volume] in Blood"
        },
        "valueQuantity": {
          "system": "http://unitsofmeasure.org",
          "value": 9.7,
          "unit": "mg/dL",
          "code": "mg/dL"
        },
        "referenceRange": [
          {
            "low": {
              "value": 8.5,
              "code": "mg/dL",
              "system": "http://unitsofmeasure.org"
            }
          },
          {
            "high": {
              "value": 10.5,
              "code": "mg/dL",
              "system": "http://unitsofmeasure.org"
            }
          }
        ],
        "text": {
          "status": "generated",
          "div": "<div xmlns=\"http://www.w3.org/1999/xhtml\"><table class=\"hl7__eu__lab__report\"><tr><th>Test</th><th>22-Sep-2020</th><th>Reference&#xA0;Range</th><th>Unit</th></tr><tr><td>Calcium [Mass/volume] in Blood</td><td>9.7</td><td>8.5 - 10.5</td><td></td><td>mg/dL</td></tr></table></div>"
        },
        "status": "final",
        "subject": {
          "reference": "urn:uuid:1ad5b980-4161-4ab9-8747-0ff0ae8faaaf",
          "display": "Urbano Cantón"
        },
        "effectiveDateTime": "2020-09-22T17:07:13Z",
        "specimen": {
          "reference": "urn:uuid:c00a1bb5-4a79-4fb3-a4b4-90a5fd80d865"
        }
      }
    },
    {
      "fullUrl": "urn:uuid:c1895096-a2c5-4eb2-9ef0-02452563191a",
      "resource": {
        "resourceType": "Observation",
        "id": "c1895096-a2c5-4eb2-9ef0-02452563191a",
        "meta": {
          "profile": [
            "http://hl7.eu/fhir/laboratory/StructureDefinition/Observation-resultslab-eu-lab"
          ]
        },
        "performer": [
          {
            "display": "The Central European Lab"
          }
        ],
        "category": [
          {
            "coding": [
              {
                "system": "http://terminology.hl7.org/CodeSystem/observation-category",
                "code": "laboratory"
              }
            ]
          }
        ],
        "code": {
          "coding": [
            {
              "code": "2947-0",
              "system": "http://loinc.org",
              "display": "Sodium [Moles/volume] in Blood"
            }
          ],
          "text": "Sodium [Moles/volume] in Blood"
        },
        "valueQuantity": {
          "system": "http://unitsofmeasure.org",
          "value": 140.4,
          "unit": "mmol/L",
          "code": "mmol/L"
        },
        "referenceRange": [
          {
            "low": {
              "value": 135,
              "code": "mmol/L",
              "system": "http://unitsofmeasure.org"
            }
          },
          {
            "high": {
              "value": 145,
              "code": "mmol/L",
              "system": "http://unitsofmeasure.org"
            }
          }
        ],
        "text": {
          "status": "generated",
          "div": "<div xmlns=\"http://www.w3.org/1999/xhtml\"><table class=\"hl7__eu__lab__report\"><tr><th>Test</th><th>22-Sep-2020</th><th>Reference&#xA0;Range</th><th>Unit</th></tr><tr><td>Sodium [Moles/volume] in Blood</td><td>140.4</td><td>135 - 145</td><td></td><td>mmol/L</td></tr></table></div>"
        },
        "status": "final",
        "subject": {
          "reference": "urn:uuid:1ad5b980-4161-4ab9-8747-0ff0ae8faaaf",
          "display": "Urbano Cantón"
        },
        "effectiveDateTime": "2020-09-22T17:07:13Z",
        "specimen": {
          "reference": "urn:uuid:c00a1bb5-4a79-4fb3-a4b4-90a5fd80d865"
        }
      }
    },
    {
      "fullUrl": "urn:uuid:b923e2bb-350f-4b06-b813-76fec932bb76",
      "resource": {
        "resourceType": "Observation",
        "id": "b923e2bb-350f-4b06-b813-76fec932bb76",
        "meta": {
          "profile": [
            "http://hl7.eu/fhir/laboratory/StructureDefinition/Observation-resultslab-eu-lab"
          ]
        },
        "performer": [
          {
            "display": "The Central European Lab"
          }
        ],
        "category": [
          {
            "coding": [
              {
                "system": "http://terminology.hl7.org/CodeSystem/observation-category",
                "code": "laboratory"
              }
            ]
          }
        ],
        "code": {
          "coding": [
            {
              "code": "6298-4",
              "system": "http://loinc.org",
              "display": "Potassium [Moles/volume] in Blood"
            }
          ],
          "text": "Potassium [Moles/volume] in Blood"
        },
        "valueQuantity": {
          "system": "http://unitsofmeasure.org",
          "value": 4.3,
          "unit": "mmol/L",
          "code": "mmol/L"
        },
        "referenceRange": [
          {
            "low": {
              "value": 3.5,
              "code": "mmol/L",
              "system": "http://unitsofmeasure.org"
            }
          },
          {
            "high": {
              "value": 5.1,
              "code": "mmol/L",
              "system": "http://unitsofmeasure.org"
            }
          }
        ],
        "text": {
          "status": "generated",
          "div": "<div xmlns=\"http://www.w3.org/1999/xhtml\"><table class=\"hl7__eu__lab__report\"><tr><th>Test</th><th>22-Sep-2020</th><th>Reference&#xA0;Range</th><th>Unit</th></tr><tr><td>Potassium [Moles/volume] in Blood</td><td>4.3</td><td>3.5 - 5.1</td><td></td><td>mmol/L</td></tr></table></div>"
        },
        "status": "final",
        "subject": {
          "reference": "urn:uuid:1ad5b980-4161-4ab9-8747-0ff0ae8faaaf",
          "display": "Urbano Cantón"
        },
        "effectiveDateTime": "2020-09-22T17:07:13Z",
        "specimen": {
          "reference": "urn:uuid:c00a1bb5-4a79-4fb3-a4b4-90a5fd80d865"
        }
      }
    },
    {
      "fullUrl": "urn:uuid:72db3897-1ada-41a9-ba95-6eea1352b641",
      "resource": {
        "resourceType": "Observation",
        "id": "72db3897-1ada-41a9-ba95-6eea1352b641",
        "meta": {
          "profile": [
            "http://hl7.eu/fhir/laboratory/StructureDefinition/Observation-resultslab-eu-lab"
          ]
        },
        "performer": [
          {
            "display": "The Central European Lab"
          }
        ],
        "category": [
          {
            "coding": [
              {
                "system": "http://terminology.hl7.org/CodeSystem/observation-category",
                "code": "laboratory"
              }
            ]
          }
        ],
        "code": {
          "coding": [
            {
              "code": "2069-3",
              "system": "http://loinc.org",
              "display": "Chloride [Moles/volume] in Blood"
            }
          ],
          "text": "Chloride [Moles/volume] in Blood"
        },
        "valueQuantity": {
          "system": "http://unitsofmeasure.org",
          "value": 109,
          "unit": "mmol/L",
          "code": "mmol/L"
        },
        "referenceRange": [
          {
            "low": {
              "value": 98,
              "code": "mmol/L",
              "system": "http://unitsofmeasure.org"
            }
          },
          {
            "high": {
              "value": 110,
              "code": "mmol/L",
              "system": "http://unitsofmeasure.org"
            }
          }
        ],
        "text": {
          "status": "generated",
          "div": "<div xmlns=\"http://www.w3.org/1999/xhtml\"><table class=\"hl7__eu__lab__report\"><tr><th>Test</th><th>22-Sep-2020</th><th>Reference&#xA0;Range</th><th>Unit</th></tr><tr><td>Chloride [Moles/volume] in Blood</td><td>109.0</td><td>98 - 110</td><td></td><td>mmol/L</td></tr></table></div>"
        },
        "status": "final",
        "subject": {
          "reference": "urn:uuid:1ad5b980-4161-4ab9-8747-0ff0ae8faaaf",
          "display": "Urbano Cantón"
        },
        "effectiveDateTime": "2020-09-22T17:07:13Z",
        "specimen": {
          "reference": "urn:uuid:c00a1bb5-4a79-4fb3-a4b4-90a5fd80d865"
        }
      }
    },
    {
      "fullUrl": "urn:uuid:295beb11-7e56-4beb-bb0a-b27076f945bc",
      "resource": {
        "resourceType": "Observation",
        "id": "295beb11-7e56-4beb-bb0a-b27076f945bc",
        "meta": {
          "profile": [
            "http://hl7.eu/fhir/laboratory/StructureDefinition/Observation-resultslab-eu-lab"
          ]
        },
        "performer": [
          {
            "display": "The Central European Lab"
          }
        ],
        "category": [
          {
            "coding": [
              {
                "system": "http://terminology.hl7.org/CodeSystem/observation-category",
                "code": "laboratory"
              }
            ]
          }
        ],
        "code": {
          "coding": [
            {
              "code": "20565-8",
              "system": "http://loinc.org",
              "display": "Carbon dioxide, total [Moles/volume] in Blood"
            }
          ],
          "text": "Carbon dioxide, total [Moles/volume] in Blood"
        },
        "valueQuantity": {
          "system": "http://unitsofmeasure.org",
          "value": 25.4,
          "unit": "mmol/L",
          "code": "mmol/L"
        },
        "referenceRange": [
          {
            "low": {
              "value": 22,
              "code": "mmol/L",
              "system": "http://unitsofmeasure.org"
            }
          },
          {
            "high": {
              "value": 29,
              "code": "mmol/L",
              "system": "http://unitsofmeasure.org"
            }
          }
        ],
        "text": {
          "status": "generated",
          "div": "<div xmlns=\"http://www.w3.org/1999/xhtml\"><table class=\"hl7__eu__lab__report\"><tr><th>Test</th><th>22-Sep-2020</th><th>Reference&#xA0;Range</th><th>Unit</th></tr><tr><td>Carbon dioxide, total [Moles/volume] in Blood</td><td>25.4</td><td>22 - 29</td><td></td><td>mmol/L</td></tr></table></div>"
        },
        "status": "final",
        "subject": {
          "reference": "urn:uuid:1ad5b980-4161-4ab9-8747-0ff0ae8faaaf",
          "display": "Urbano Cantón"
        },
        "effectiveDateTime": "2020-09-22T17:07:13Z",
        "specimen": {
          "reference": "urn:uuid:c00a1bb5-4a79-4fb3-a4b4-90a5fd80d865"
        }
      }
    },
    {
      "fullUrl": "urn:uuid:d3a5e613-4182-4c3c-aa15-d8ef34f16448",
      "resource": {
        "resourceType": "Observation",
        "id": "d3a5e613-4182-4c3c-aa15-d8ef34f16448",
        "meta": {
          "profile": [
            "http://hl7.eu/fhir/laboratory/StructureDefinition/Observation-resultslab-eu-lab"
          ]
        },
        "performer": [
          {
            "display": "The Central European Lab"
          }
        ],
        "category": [
          {
            "coding": [
              {
                "system": "http://terminology.hl7.org/CodeSystem/observation-category",
                "code": "laboratory"
              }
            ]
          }
        ],
        "code": {
          "coding": [
            {
              "code": "2093-3",
              "system": "http://loinc.org",
              "display": "Cholesterol [Mass/volume] in Serum or Plasma"
            }
          ],
          "text": "Cholesterol [Mass/volume] in Serum or Plasma"
        },
        "valueQuantity": {
          "system": "http://unitsofmeasure.org",
          "value": 307.8,
          "unit": "mg/dL",
          "code": "mg/dL"
        },
        "referenceRange": [
          {
            "low": {
              "value": 100,
              "code": "mg/dL",
              "system": "http://unitsofmeasure.org"
            }
          },
          {
            "high": {
              "value": 200,
              "code": "mg/dL",
              "system": "http://unitsofmeasure.org"
            }
          }
        ],
        "interpretation": [
          {
            "coding": [
              {
                "code": "H",
                "system": "http://terminology.hl7.org/CodeSystem/v3-ObservationInterpretation",
                "display": "High"
              }
            ]
          }
        ],
        "text": {
          "status": "generated",
          "div": "<div xmlns=\"http://www.w3.org/1999/xhtml\"><table class=\"hl7__eu__lab__report\"><tr><th>Test</th><th>22-Sep-2020</th><th>Reference&#xA0;Range</th><th>Unit</th></tr><tr><td>Cholesterol [Mass/volume] in Serum or Plasma</td><td>307.8</td><td>100 - 200</td><td>H</td><td>mg/dL</td></tr></table></div>"
        },
        "status": "final",
        "subject": {
          "reference": "urn:uuid:1ad5b980-4161-4ab9-8747-0ff0ae8faaaf",
          "display": "Urbano Cantón"
        },
        "effectiveDateTime": "2020-09-22T17:07:13Z",
        "specimen": {
          "reference": "urn:uuid:51198884-7c7a-4698-aecb-8e258bc93e5b"
        }
      }
    },
    {
      "fullUrl": "urn:uuid:12b6c4b3-b5ce-49cc-a346-8d7cd55757b1",
      "resource": {
        "resourceType": "Observation",
        "id": "12b6c4b3-b5ce-49cc-a346-8d7cd55757b1",
        "meta": {
          "profile": [
            "http://hl7.eu/fhir/laboratory/StructureDefinition/Observation-resultslab-eu-lab"
          ]
        },
        "performer": [
          {
            "display": "The Central European Lab"
          }
        ],
        "category": [
          {
            "coding": [
              {
                "system": "http://terminology.hl7.org/CodeSystem/observation-category",
                "code": "laboratory"
              }
            ]
          }
        ],
        "code": {
          "coding": [
            {
              "code": "2571-8",
              "system": "http://loinc.org",
              "display": "Triglyceride [Mass/volume] in Serum or Plasma"
            }
          ],
          "text": "Triglyceride [Mass/volume] in Serum or Plasma"
        },
        "valueQuantity": {
          "system": "http://unitsofmeasure.org",
          "value": 113.3,
          "unit": "mg/dL",
          "code": "mg/dL"
        },
        "referenceRange": [
          {
            "low": {
              "value": 45,
              "code": "mg/dL",
              "system": "http://unitsofmeasure.org"
            }
          },
          {
            "high": {
              "value": 175,
              "code": "mg/dL",
              "system": "http://unitsofmeasure.org"
            }
          }
        ],
        "text": {
          "status": "generated",
          "div": "<div xmlns=\"http://www.w3.org/1999/xhtml\"><table class=\"hl7__eu__lab__report\"><tr><th>Test</th><th>22-Sep-2020</th><th>Reference&#xA0;Range</th><th>Unit</th></tr><tr><td>Triglyceride [Mass/volume] in Serum or Plasma</td><td>113.3</td><td>45 - 175</td><td></td><td>mg/dL</td></tr></table></div>"
        },
        "status": "final",
        "subject": {
          "reference": "urn:uuid:1ad5b980-4161-4ab9-8747-0ff0ae8faaaf",
          "display": "Urbano Cantón"
        },
        "effectiveDateTime": "2020-09-22T17:07:13Z",
        "specimen": {
          "reference": "urn:uuid:51198884-7c7a-4698-aecb-8e258bc93e5b"
        }
      }
    },
    {
      "fullUrl": "urn:uuid:d7d19a2b-cdad-4ec4-b5b4-1160fc1412f1",
      "resource": {
        "resourceType": "Observation",
        "id": "d7d19a2b-cdad-4ec4-b5b4-1160fc1412f1",
        "meta": {
          "profile": [
            "http://hl7.eu/fhir/laboratory/StructureDefinition/Observation-resultslab-eu-lab"
          ]
        },
        "performer": [
          {
            "display": "The Central European Lab"
          }
        ],
        "category": [
          {
            "coding": [
              {
                "system": "http://terminology.hl7.org/CodeSystem/observation-category",
                "code": "laboratory"
              }
            ]
          }
        ],
        "code": {
          "coding": [
            {
              "code": "18262-6",
              "system": "http://loinc.org",
              "display": "Cholesterol in LDL [Mass/volume] in Serum or Plasma by Direct assay"
            }
          ],
          "text": "Cholesterol in LDL [Mass/volume] in Serum or Plasma by Direct assay"
        },
        "valueQuantity": {
          "system": "http://unitsofmeasure.org",
          "value": 228,
          "unit": "mg/dL",
          "code": "mg/dL"
        },
        "referenceRange": [
          {
            "low": {
              "value": 0,
              "code": "mg/dL",
              "system": "http://unitsofmeasure.org"
            }
          },
          {
            "high": {
              "value": 190,
              "code": "mg/dL",
              "system": "http://unitsofmeasure.org"
            }
          }
        ],
        "interpretation": [
          {
            "coding": [
              {
                "code": "H",
                "system": "http://terminology.hl7.org/CodeSystem/v3-ObservationInterpretation",
                "display": "High"
              }
            ]
          }
        ],
        "text": {
          "status": "generated",
          "div": "<div xmlns=\"http://www.w3.org/1999/xhtml\"><table class=\"hl7__eu__lab__report\"><tr><th>Test</th><th>22-Sep-2020</th><th>Reference&#xA0;Range</th><th>Unit</th></tr><tr><td>Cholesterol in LDL [Mass/volume] in Serum or Plasma by Direct assay</td><td>228.0</td><td>0 - 190</td><td>H</td><td>mg/dL</td></tr></table></div>"
        },
        "status": "final",
        "subject": {
          "reference": "urn:uuid:1ad5b980-4161-4ab9-8747-0ff0ae8faaaf",
          "display": "Urbano Cantón"
        },
        "effectiveDateTime": "2020-09-22T17:07:13Z",
        "specimen": {
          "reference": "urn:uuid:51198884-7c7a-4698-aecb-8e258bc93e5b"
        }
      }
    },
    {
      "fullUrl": "urn:uuid:f5430ed2-ad27-47b8-ae79-09690cc095c9",
      "resource": {
        "resourceType": "Observation",
        "id": "f5430ed2-ad27-47b8-ae79-09690cc095c9",
        "meta": {
          "profile": [
            "http://hl7.eu/fhir/laboratory/StructureDefinition/Observation-resultslab-eu-lab"
          ]
        },
        "performer": [
          {
            "display": "The Central European Lab"
          }
        ],
        "category": [
          {
            "coding": [
              {
                "system": "http://terminology.hl7.org/CodeSystem/observation-category",
                "code": "laboratory"
              }
            ]
          }
        ],
        "code": {
          "coding": [
            {
              "code": "2085-9",
              "system": "http://loinc.org",
              "display": "Cholesterol in HDL [Mass/volume] in Serum or Plasma"
            }
          ],
          "text": "Cholesterol in HDL [Mass/volume] in Serum or Plasma"
        },
        "valueQuantity": {
          "system": "http://unitsofmeasure.org",
          "value": 57.2,
          "unit": "mg/dL",
          "code": "mg/dL"
        },
        "referenceRange": [
          {
            "low": {
              "value": 40,
              "code": "mg/dL",
              "system": "http://unitsofmeasure.org"
            }
          },
          {
            "high": {
              "value": 100,
              "code": "mg/dL",
              "system": "http://unitsofmeasure.org"
            }
          }
        ],
        "text": {
          "status": "generated",
          "div": "<div xmlns=\"http://www.w3.org/1999/xhtml\"><table class=\"hl7__eu__lab__report\"><tr><th>Test</th><th>22-Sep-2020</th><th>Reference&#xA0;Range</th><th>Unit</th></tr><tr><td>Cholesterol in HDL [Mass/volume] in Serum or Plasma</td><td>57.2</td><td>40 - 100</td><td></td><td>mg/dL</td></tr></table></div>"
        },
        "status": "final",
        "subject": {
          "reference": "urn:uuid:1ad5b980-4161-4ab9-8747-0ff0ae8faaaf",
          "display": "Urbano Cantón"
        },
        "effectiveDateTime": "2020-09-22T17:07:13Z",
        "specimen": {
          "reference": "urn:uuid:51198884-7c7a-4698-aecb-8e258bc93e5b"
        }
      }
    },
    {
      "fullUrl": "urn:uuid:96309c26-ff7a-4747-92c3-0384e33cc9fe",
      "resource": {
        "resourceType": "Observation",
        "id": "96309c26-ff7a-4747-92c3-0384e33cc9fe",
        "meta": {
          "profile": [
            "http://hl7.eu/fhir/laboratory/StructureDefinition/Observation-resultslab-eu-lab"
          ]
        },
        "performer": [
          {
            "display": "The Central European Lab"
          }
        ],
        "category": [
          {
            "coding": [
              {
                "system": "http://terminology.hl7.org/CodeSystem/observation-category",
                "code": "laboratory"
              }
            ]
          }
        ],
        "code": {
          "coding": [
            {
              "code": "14959-1",
              "system": "http://loinc.org",
              "display": "Microalbumin/Creatinine [Mass Ratio] in Urine"
            }
          ],
          "text": "Microalbumin/Creatinine [Mass Ratio] in Urine"
        },
        "valueQuantity": {
          "system": "http://unitsofmeasure.org",
          "value": 13,
          "unit": "mg/g",
          "code": "mg/g"
        },
        "referenceRange": [
          {
            "low": {
              "value": 0,
              "code": "mg/g",
              "system": "http://unitsofmeasure.org"
            }
          },
          {
            "high": {
              "value": 30,
              "code": "mg/g",
              "system": "http://unitsofmeasure.org"
            }
          }
        ],
        "text": {
          "status": "generated",
          "div": "<div xmlns=\"http://www.w3.org/1999/xhtml\"><table class=\"hl7__eu__lab__report\"><tr><th>Test</th><th>22-Sep-2020</th><th>Reference&#xA0;Range</th><th>Unit</th></tr><tr><td>Microalbumin/Creatinine [Mass Ratio] in Urine</td><td>13.0</td><td>0 - 30</td><td></td><td>mg/g</td></tr></table></div>"
        },
        "status": "final",
        "subject": {
          "reference": "urn:uuid:1ad5b980-4161-4ab9-8747-0ff0ae8faaaf",
          "display": "Urbano Cantón"
        },
        "effectiveDateTime": "2020-09-22T17:07:13Z",
        "specimen": {
          "reference": "urn:uuid:f4152246-ac57-4f95-9cfa-38222aad8404"
        }
      }
    },
    {
      "fullUrl": "urn:uuid:987c613c-0413-4521-9cac-a322fc2ca95c",
      "resource": {
        "resourceType": "Device",
        "id": "987c613c-0413-4521-9cac-a322fc2ca95c",
        "deviceName": [
          {
            "name": "SYNDERAI Synthetic Generator",
            "type": "manufacturer-name"
          }
        ],
        "version": [
          {
            "value": "5.0"
          }
        ],
        "text": {
          "status": "generated",
          "div": "<div xmlns=\"http://www.w3.org/1999/xhtml\">SYNDERAI Synthetic Generator v5.0</div>"
        },
        "status": "active\"",
        "distinctIdentifier": "synderai-generator-50",
        "manufacturer": "SYNDERAI Project"
      }
    },
    {
      "fullUrl": "urn:uuid:781c84a6-b393-4ff2-be6f-5bc288dc3666",
      "resource": {
        "resourceType": "Provenance",
        "id": "781c84a6-b393-4ff2-be6f-5bc288dc3666",
        "target": [
          {
            "reference": "Patient/1ad5b980-4161-4ab9-8747-0ff0ae8faaaf"
          },
          {
            "reference": "Bundle/a2003ade-8b94-4bf4-895c-05fd2f8c47eb"
          },
          {
            "reference": "Composition/35df38dd-5911-4ddc-9fce-1e464192e844"
          },
          {
            "reference": "PractitionerRole/95809cb5-696a-4724-8a21-3f1c70180f4d"
          },
          {
            "reference": "Practitioner/e4bd803c-0e35-4b57-86f6-1b592d1ee2a0"
          },
          {
            "reference": "PractitionerRole/e54ab1c5-a0c4-41a0-b183-7404fb471ba7"
          },
          {
            "reference": "Organization/4c2a322a-675e-4296-b702-fbb8638d5f32"
          }
        ],
        "activity": {
          "text": "Synthetic Example Data Generation"
        },
        "policy": [
          "https://synderai.net/synderai-synthetic-data-policy"
        ],
        "agent": [
          {
            "type": {
              "text": "author"
            },
            "who": {
              "reference": "Device/987c613c-0413-4521-9cac-a322fc2ca95c"
            }
          }
        ],
        "reason": [
          {
            "text": "Interoperability Testing and Training (non-clinical use)"
          }
        ],
        "text": {
          "status": "generated",
          "div": "<div xmlns=\"http://www.w3.org/1999/xhtml\">Provenance for SYNDERAI Synthetic Example Data Resource</div>"
        },
        "recorded": "2020-09-22T19:07:13Z"
      }
    },
    {
      "fullUrl": "urn:uuid:95809cb5-696a-4724-8a21-3f1c70180f4d",
      "resource": {
        "resourceType": "PractitionerRole",
        "id": "95809cb5-696a-4724-8a21-3f1c70180f4d",
        "meta": {
          "profile": [
            "http://hl7.eu/fhir/base/StructureDefinition/practitionerRole-eu"
          ]
        },
        "text": {
          "status": "generated",
          "div": "<div xmlns=\"http://www.w3.org/1999/xhtml\">Laboratory Role Id: 95809cb5-696a-4724-8a21-3f1c70180f4d</div>"
        },
        "practitioner": {
          "reference": "urn:uuid:e4bd803c-0e35-4b57-86f6-1b592d1ee2a0"
        }
      }
    },
    {
      "fullUrl": "urn:uuid:e4bd803c-0e35-4b57-86f6-1b592d1ee2a0",
      "resource": {
        "resourceType": "Practitioner",
        "id": "e4bd803c-0e35-4b57-86f6-1b592d1ee2a0",
        "meta": {
          "profile": [
            "http://hl7.eu/fhir/base/StructureDefinition/practitioner-eu"
          ]
        },
        "identifier": [
          {
            "assigner": {
              "display": "HL7 Europe"
            },
            "system": "urn:oid:2.16.840.1.113883.2.51.999",
            "value": "49e8d6fe-2933-4257-9234-b9698fb5694b"
          }
        ],
        "name": [
          {
            "prefix": [
              "dr"
            ],
            "given": [
              "Ex"
            ],
            "family": "Ample"
          }
        ],
        "address": [
          {
            "line": [
              "Laboratoire Central Européenne",
              "Boulevard du Jardin Botanique 32"
            ],
            "postalCode": "1000",
            "city": "Brussels",
            "country": "Belgium"
          }
        ],
        "text": {
          "status": "generated",
          "div": "<div xmlns=\"http://www.w3.org/1999/xhtml\">Laboratory: Laboratoire Central Européenne, 1000 Brussels, Belgium</div>"
        }
      }
    }
  ],
  "type": "document",
  "timestamp": "2020-09-22T19:07:13Z"
}
