{
  "resourceType": "Bundle",
  "id": "802e296e-8f2e-4a83-8ea8-baf812c50a8f",
  "meta": {
    "profile": [
      "http://hl7.eu/fhir/laboratory/StructureDefinition/Bundle-eu-lab"
    ]
  },
  "identifier": {
    "assigner": {
      "display": "HL7 Europe"
    },
    "system": "urn:oid:2.16.840.1.113883.2.51.999",
    "value": "6690b687-948f-4c8a-b082-3d6fde3a44b2"
  },
  "entry": [
    {
      "fullUrl": "urn:uuid:216ebc4e-9329-40fd-85b4-581fb5631046",
      "resource": {
        "resourceType": "Composition",
        "id": "216ebc4e-9329-40fd-85b4-581fb5631046",
        "meta": {
          "profile": [
            "http://hl7.eu/fhir/laboratory/StructureDefinition/Composition-eu-lab"
          ]
        },
        "identifier": {
          "assigner": {
            "display": "HL7 Europe"
          },
          "system": "urn:oid:2.16.840.1.113883.2.51.999",
          "value": "53114614-2823-4d59-8fc4-9c8c9711f6ed"
        },
        "author": [
          {
            "reference": "urn:uuid:b64accff-ad00-45b2-89bd-564db784e9f1"
          }
        ],
        "category": [
          {
            "coding": [
              {
                "code": "26436-6",
                "system": "http://loinc.org",
                "display": "Laboratory studies (set)"
              }
            ]
          }
        ],
        "type": {
          "coding": [
            {
              "code": "11502-2",
              "system": "http://loinc.org",
              "display": "Laboratory report"
            }
          ],
          "text": "Laboratory Report"
        },
        "section": [
          {
            "code": {
              "coding": [
                {
                  "code": "26436-6",
                  "system": "http://loinc.org",
                  "display": "Laboratory studies (set)"
                }
              ],
              "text": "Laboratory studies"
            },
            "section": [
              {
                "code": {
                  "coding": [
                    {
                      "code": "$18719-5",
                      "system": "http://loinc.org",
                      "display": "Chemistry studies (set)"
                    }
                  ],
                  "text": "Chemistry"
                },
                "entry": [
                  {
                    "reference": "urn:uuid:d4b48b34-7997-4981-bf81-cee1fc6deb56"
                  },
                  {
                    "reference": "urn:uuid:f80a3477-a60b-41c1-ad29-428e61134c66"
                  },
                  {
                    "reference": "urn:uuid:5133f27f-c60e-41da-9a6b-ea0779a8c306"
                  },
                  {
                    "reference": "urn:uuid:84b40871-ac63-4145-b4f0-fda115728f08"
                  },
                  {
                    "reference": "urn:uuid:c1582940-972d-458b-ac77-617ee03aea72"
                  },
                  {
                    "reference": "urn:uuid:642b5bf7-22fa-4778-b1bc-a835c70f2424"
                  },
                  {
                    "reference": "urn:uuid:abac8add-4530-4fd5-95e5-1f2b4e823d15"
                  },
                  {
                    "reference": "urn:uuid:f06feebc-daa0-4e66-bab2-9ce32adba13b"
                  },
                  {
                    "reference": "urn:uuid:bbd23579-8c41-49d9-a302-8422ad7c7c65"
                  },
                  {
                    "reference": "urn:uuid:ba5287f0-d2ac-4952-95d2-78eb9dd02233"
                  },
                  {
                    "reference": "urn:uuid:a7f9061c-8b95-48a0-a3cf-b1362bc4ffa6"
                  },
                  {
                    "reference": "urn:uuid:4247f698-322d-4327-91a6-73cd2219671f"
                  },
                  {
                    "reference": "urn:uuid:f04907a0-6698-405f-b73c-fa79eb48d976"
                  },
                  {
                    "reference": "urn:uuid:9cafe86a-7c84-4b9c-8d82-fdad9caaac7d"
                  },
                  {
                    "reference": "urn:uuid:702115a5-fcfe-4a5d-910b-1b06c9231ab5"
                  },
                  {
                    "reference": "urn:uuid:599d64a6-3bff-43f8-a7da-3d558bf8764e"
                  },
                  {
                    "reference": "urn:uuid:db23ab05-ecbe-4af2-a86e-293c15fa06d8"
                  },
                  {
                    "reference": "urn:uuid:e8b9436f-a772-47f3-958c-b5399aff046e"
                  }
                ],
                "text": {
                  "status": "generated",
                  "div": "<div xmlns=\"http://www.w3.org/1999/xhtml\"><h3>Chemistry</h3><table class=\"hl7__eu__lab__report\"><thead><tr><th>Test</th><th>04-SEP-2020</th><th>Reference&#xA0;Range</th><th>Unit</th></tr></thead><tbody><tr><td>Glucose [Mass/volume] in Serum or Plasma</td><td><strong>68.9 L</strong></td><td>70 - 140</td><td>mg/dL</td></tr><tr><td>Urea nitrogen [Mass/volume] in Serum or Plasma</td><td>12.3</td><td>7 - 20</td><td>mg/dL</td></tr><tr><td>Creatinine [Mass/volume] in Serum or Plasma</td><td><strong>1.9 H</strong></td><td>0.9 - 1.3</td><td>mg/dL</td></tr><tr><td>Calcium [Mass/volume] in Serum or Plasma</td><td>9.8</td><td>8.5 - 10.5</td><td>mg/dL</td></tr><tr><td>Sodium [Moles/volume] in Serum or Plasma</td><td>141.2</td><td>135 - 145</td><td>mmol/L</td></tr><tr><td>Potassium [Moles/volume] in Serum or Plasma</td><td>4.8</td><td>3.5 - 5.3</td><td>mmol/L</td></tr><tr><td>Chloride [Moles/volume] in Serum or Plasma</td><td><strong>109.5 H</strong></td><td>98 - 107</td><td>mmol/L</td></tr><tr><td>Carbon dioxide, total [Moles/volume] in Serum or Plasma</td><td><strong>20.1 L</strong></td><td>22 - 33</td><td>mmol/L</td></tr><tr><td>Ketones [Presence] in Urine by Test strip</td><td>Urine ketone test = ++</td><td></td><td></td></tr><tr><td>Hemoglobin A1c/Hemoglobin.total in Blood</td><td><strong>3.1 L</strong></td><td>4.3 - 6</td><td>%</td></tr><tr><td>Glucose [Mass/volume] in Blood</td><td><strong>68.9 L</strong></td><td>70 - 140</td><td>mg/dL</td></tr><tr><td>Urea nitrogen [Mass/volume] in Blood</td><td>12.3</td><td>7 - 20</td><td>mg/dL</td></tr><tr><td>Creatinine [Mass/volume] in Blood</td><td><strong>4.7 H</strong></td><td>0.9 - 1.3</td><td>mg/dL</td></tr><tr><td>Calcium [Mass/volume] in Blood</td><td>9.8</td><td>8.5 - 10.5</td><td>mg/dL</td></tr><tr><td>Sodium [Moles/volume] in Blood</td><td>141.2</td><td>135 - 145</td><td>mmol/L</td></tr><tr><td>Potassium [Moles/volume] in Blood</td><td>4.8</td><td>3.5 - 5.1</td><td>mmol/L</td></tr><tr><td>Chloride [Moles/volume] in Blood</td><td><strong>109.5 H</strong></td><td>98 - 108</td><td>mmol/L</td></tr><tr><td>Carbon dioxide, total [Moles/volume] in Blood</td><td><strong>20.1 L</strong></td><td>22 - 29</td><td>mmol/L</td></tr></tbody></table></div>"
                },
                "title": "Chemistry"
              },
              {
                "code": {
                  "coding": [
                    {
                      "code": "$18729-4",
                      "system": "http://loinc.org",
                      "display": "Urinalysis studies (set)"
                    }
                  ],
                  "text": "Urinalysis"
                },
                "entry": [
                  {
                    "reference": "urn:uuid:495960b2-d483-4881-a17a-6a28292cbc8d"
                  },
                  {
                    "reference": "urn:uuid:f6211442-57f9-49df-8f9e-21bb0fbe7c13"
                  },
                  {
                    "reference": "urn:uuid:b06b7315-f51d-44a7-a953-95fc62d504cf"
                  },
                  {
                    "reference": "urn:uuid:785fcf7c-b2b1-4f0e-a9d0-9bca1a9a133b"
                  },
                  {
                    "reference": "urn:uuid:894710e2-481d-44f2-812b-5eba6c9f1577"
                  },
                  {
                    "reference": "urn:uuid:4ac14f53-b46c-40b4-8dc4-6208970ac3d2"
                  },
                  {
                    "reference": "urn:uuid:223ce4e8-d1a9-49c6-9619-40fb6fb031ea"
                  },
                  {
                    "reference": "urn:uuid:a679e58d-fe82-459d-9326-9bf06166b13a"
                  },
                  {
                    "reference": "urn:uuid:146cccdf-eee3-481d-b930-3e2a64208954"
                  },
                  {
                    "reference": "urn:uuid:b1954bfd-69ad-4d9e-8683-d448c9034100"
                  },
                  {
                    "reference": "urn:uuid:a9de5a98-94b6-4f2c-9d64-c32f53d34b3a"
                  },
                  {
                    "reference": "urn:uuid:8d42ed73-6b03-4f1e-9a2d-cb72b1b2413f"
                  }
                ],
                "text": {
                  "status": "generated",
                  "div": "<div xmlns=\"http://www.w3.org/1999/xhtml\"><h3>Urinalysis</h3><table class=\"hl7__eu__lab__report\"><thead><tr><th>Test</th><th>04-SEP-2020</th><th>Reference&#xA0;Range</th><th>Unit</th></tr></thead><tbody><tr><td>Glucose [Mass/volume] in Urine by Test strip</td><td><strong>1.8 H</strong></td><td>0 - 0.8</td><td>mg/dL</td></tr><tr><td>Glucose [Presence] in Urine by Test strip</td><td>++</td><td></td><td></td></tr><tr><td>Bilirubin.total [Mass/volume] in Urine by Test strip</td><td>1.3</td><td>0 - 1.9</td><td>mg/dL</td></tr><tr><td>Bilirubin.total [Presence] in Urine by Test strip</td><td>Finding of bilirubin in urine</td><td></td><td></td></tr><tr><td>Ketones [Mass/volume] in Urine by Test strip</td><td><strong>12.5 H</strong></td><td>0 - 3</td><td>mg/dL</td></tr><tr><td>Specific gravity of Urine by Test strip</td><td><strong>1.0 L</strong></td><td>1.01 - 1.03</td><td>{nominal}</td></tr><tr><td>pH of Urine by Test strip</td><td>5.6</td><td>4.5 - 7.5</td><td>pH</td></tr><tr><td>Protein [Mass/volume] in Urine by Test strip</td><td><strong>211.7 H</strong></td><td>0 - 149</td><td>mg/dL</td></tr><tr><td>Protein [Presence] in Urine by Test strip</td><td>Urine protein test = ++</td><td></td><td></td></tr><tr><td>Nitrite [Presence] in Urine by Test strip</td><td>Urine nitrite negative</td><td></td><td></td></tr><tr><td>Hemoglobin [Presence] in Urine by Test strip</td><td>Urine blood test = negative</td><td></td><td></td></tr><tr><td>Leukocyte esterase [Presence] in Urine by Test strip</td><td>Urine leukocyte test negative</td><td></td><td></td></tr></tbody></table></div>"
                },
                "title": "Urinalysis"
              },
              {
                "code": {
                  "coding": [
                    {
                      "code": "$LP7846-1",
                      "system": "http://loinc.org",
                      "display": "Specimen information"
                    }
                  ],
                  "text": "Specimen information"
                },
                "entry": [
                  {
                    "reference": "urn:uuid:bf1bad7f-8d21-4b3c-b4a4-2800dcb6572b"
                  },
                  {
                    "reference": "urn:uuid:b608b4b2-aad9-430d-ad2e-65edff37dd64"
                  },
                  {
                    "reference": "urn:uuid:fcd3c101-0031-4d92-b82b-b1c8a0227da1"
                  },
                  {
                    "reference": "urn:uuid:a4146da0-9c0d-430a-bc7a-ae91d23a083b"
                  }
                ],
                "text": {
                  "status": "generated",
                  "div": "<div xmlns=\"http://www.w3.org/1999/xhtml\"><h3>Specimen information</h3><table class=\"hl7__eu__lab__report\"><thead><tr><th>Test</th><th>04-SEP-2020</th><th>Specimen</th><th></th></tr></thead><tbody><tr><td>Appearance of Urine</td><td>Cloudy urine</td><td>Urine</td><td></td></tr><tr><td>Odor of Urine</td><td>Urine smell ammoniacal</td><td>Urine</td><td></td></tr><tr><td>Clarity of Urine</td><td>Translucent</td><td>Urine</td><td></td></tr><tr><td>Color of Urine</td><td>Brown color</td><td>Urine</td><td></td></tr></tbody></table></div>"
                },
                "title": "Specimen information"
              }
            ],
            "title": "Laboratory Report"
          },
          {
            "text": {
              "status": "generated",
              "div": "<div xmlns=\"http://www.w3.org/1999/xhtml\"><h3>Annotation</h3><table class=\"hl7__eu__lab__report\"><tr><th>Conclusion and Recommendations based on this report and previous findings known to us</th></tr><tr><td>The patient shows evidence of acute or chronic kidney dysfunction (elevated creatinine, proteinuria, glucosuria, ketonuria), mild hypoglycemia, and metabolic acidosis (low CO₂, high chloride). Urine findings (cloudy, brown, ammoniacal odor) may suggest urinary tract pathology. Low HbA1c and hypoglycemia argue against chronic hyperglycemia. Recommend urgent clinical assessment for renal impairment, metabolic derangements, and possible urinary tract infection.</td></tr></table></div>"
            },
            "code": {
              "coding": [
                {
                  "system": "http://loinc.org",
                  "code": "48767-8",
                  "display": "Annotation comment"
                }
              ]
            },
            "title": "Annotation comment"
          }
        ],
        "status": "final",
        "subject": {
          "reference": "urn:uuid:99f189f2-5846-44bb-886f-f373288ce7f1",
          "display": "Victor Lagarde"
        },
        "date": "2020-09-04T06:48:18Z",
        "title": "Laboratory Report",
        "confidentiality": "N"
      }
    },
    {
      "fullUrl": "urn:uuid:71fd4516-5729-4db2-9b1e-c6f56749ac81",
      "resource": {
        "resourceType": "DiagnosticReport",
        "id": "71fd4516-5729-4db2-9b1e-c6f56749ac81",
        "meta": {
          "profile": [
            "http://hl7.eu/fhir/laboratory/StructureDefinition/DiagnosticReport-eu-lab"
          ]
        },
        "identifier": [
          {
            "assigner": {
              "display": "HL7 Europe"
            },
            "system": "urn:oid:2.16.840.1.113883.2.51.999",
            "value": "10dcd2c4-94a0-4fc0-99a0-dddcfb92e80d"
          }
        ],
        "extension": [
          {
            "url": "http://hl7.org/fhir/5.0/StructureDefinition/extension-DiagnosticReport.composition",
            "valueReference": {
              "reference": "urn:uuid:53114614-2823-4d59-8fc4-9c8c9711f6ed"
            }
          }
        ],
        "category": [
          {
            "coding": [
              {
                "code": "26436-6",
                "system": "http://loinc.org",
                "display": "Laboratory studies (set)"
              }
            ]
          }
        ],
        "specimen": [
          {
            "reference": "urn:uuid:d890b370-0130-446a-bdb4-1c5b158230f0"
          },
          {
            "reference": "urn:uuid:196387c0-4710-479b-95ba-7b2f352e1ec3"
          },
          {
            "reference": "urn:uuid:709df6cb-57fd-43f2-bcee-460d34baa4e5"
          }
        ],
        "result": [
          {
            "reference": "urn:uuid:d4b48b34-7997-4981-bf81-cee1fc6deb56"
          },
          {
            "reference": "urn:uuid:f80a3477-a60b-41c1-ad29-428e61134c66"
          },
          {
            "reference": "urn:uuid:5133f27f-c60e-41da-9a6b-ea0779a8c306"
          },
          {
            "reference": "urn:uuid:84b40871-ac63-4145-b4f0-fda115728f08"
          },
          {
            "reference": "urn:uuid:c1582940-972d-458b-ac77-617ee03aea72"
          },
          {
            "reference": "urn:uuid:642b5bf7-22fa-4778-b1bc-a835c70f2424"
          },
          {
            "reference": "urn:uuid:abac8add-4530-4fd5-95e5-1f2b4e823d15"
          },
          {
            "reference": "urn:uuid:f06feebc-daa0-4e66-bab2-9ce32adba13b"
          },
          {
            "reference": "urn:uuid:bf1bad7f-8d21-4b3c-b4a4-2800dcb6572b"
          },
          {
            "reference": "urn:uuid:b608b4b2-aad9-430d-ad2e-65edff37dd64"
          },
          {
            "reference": "urn:uuid:fcd3c101-0031-4d92-b82b-b1c8a0227da1"
          },
          {
            "reference": "urn:uuid:a4146da0-9c0d-430a-bc7a-ae91d23a083b"
          },
          {
            "reference": "urn:uuid:495960b2-d483-4881-a17a-6a28292cbc8d"
          },
          {
            "reference": "urn:uuid:f6211442-57f9-49df-8f9e-21bb0fbe7c13"
          },
          {
            "reference": "urn:uuid:b06b7315-f51d-44a7-a953-95fc62d504cf"
          },
          {
            "reference": "urn:uuid:785fcf7c-b2b1-4f0e-a9d0-9bca1a9a133b"
          },
          {
            "reference": "urn:uuid:894710e2-481d-44f2-812b-5eba6c9f1577"
          },
          {
            "reference": "urn:uuid:bbd23579-8c41-49d9-a302-8422ad7c7c65"
          },
          {
            "reference": "urn:uuid:4ac14f53-b46c-40b4-8dc4-6208970ac3d2"
          },
          {
            "reference": "urn:uuid:223ce4e8-d1a9-49c6-9619-40fb6fb031ea"
          },
          {
            "reference": "urn:uuid:a679e58d-fe82-459d-9326-9bf06166b13a"
          },
          {
            "reference": "urn:uuid:146cccdf-eee3-481d-b930-3e2a64208954"
          },
          {
            "reference": "urn:uuid:b1954bfd-69ad-4d9e-8683-d448c9034100"
          },
          {
            "reference": "urn:uuid:a9de5a98-94b6-4f2c-9d64-c32f53d34b3a"
          },
          {
            "reference": "urn:uuid:8d42ed73-6b03-4f1e-9a2d-cb72b1b2413f"
          },
          {
            "reference": "urn:uuid:ba5287f0-d2ac-4952-95d2-78eb9dd02233"
          },
          {
            "reference": "urn:uuid:a7f9061c-8b95-48a0-a3cf-b1362bc4ffa6"
          },
          {
            "reference": "urn:uuid:4247f698-322d-4327-91a6-73cd2219671f"
          },
          {
            "reference": "urn:uuid:f04907a0-6698-405f-b73c-fa79eb48d976"
          },
          {
            "reference": "urn:uuid:9cafe86a-7c84-4b9c-8d82-fdad9caaac7d"
          },
          {
            "reference": "urn:uuid:702115a5-fcfe-4a5d-910b-1b06c9231ab5"
          },
          {
            "reference": "urn:uuid:599d64a6-3bff-43f8-a7da-3d558bf8764e"
          },
          {
            "reference": "urn:uuid:db23ab05-ecbe-4af2-a86e-293c15fa06d8"
          },
          {
            "reference": "urn:uuid:e8b9436f-a772-47f3-958c-b5399aff046e"
          }
        ],
        "status": "registered",
        "code": {
          "coding": [
            {
              "code": "11502-2",
              "system": "http://loinc.org",
              "display": "Laboratory report"
            }
          ]
        },
        "subject": {
          "reference": "urn:uuid:99f189f2-5846-44bb-886f-f373288ce7f1",
          "display": "Victor Lagarde"
        }
      }
    },
    {
      "fullUrl": "urn:uuid:99f189f2-5846-44bb-886f-f373288ce7f1",
      "resource": {
        "resourceType": "Patient",
        "id": "99f189f2-5846-44bb-886f-f373288ce7f1",
        "meta": {
          "security": [
            {
              "system": "http://terminology.hl7.org/CodeSystem/v3-ActReason",
              "code": "HTEST"
            },
            {
              "system": "http://terminology.hl7.org/CodeSystem/v3-ActReason",
              "code": "TRAIN"
            }
          ],
          "tag": [
            {
              "system": "https://synderai.net/fhir/CodeSystem/tags",
              "code": "synthetic",
              "display": "SYNDERAI Synthetic data"
            }
          ],
          "profile": [
            "http://hl7.eu/fhir/base/StructureDefinition/patient-eu-core"
          ]
        },
        "identifier": [
          {
            "type": {
              "coding": [
                {
                  "code": "PT",
                  "system": "http://terminology.hl7.org/CodeSystem/v2-0203"
                }
              ]
            },
            "system": "http://ec.europa.eu/identifier/eci",
            "value": "9925-001801-9"
          },
          {
            "type": {
              "coding": [
                {
                  "code": "MR",
                  "system": "http://terminology.hl7.org/CodeSystem/v2-0203"
                }
              ]
            },
            "system": "http://local.setting.eu/identifier",
            "value": "22c2dfd0-ac57-8833-2532-848f180896a4"
          }
        ],
        "name": [
          {
            "family": "Lagarde"
          },
          {
            "given": [
              "Victor"
            ]
          },
          {
            "text": "Victor Lagarde"
          }
        ],
        "address": [
          {
            "line": [
              "avenue Robert"
            ],
            "use": "home",
            "type": "physical",
            "postalCode": "80300",
            "city": "Albert",
            "country": "France"
          }
        ],
        "telecom": [
          {
            "system": "phone",
            "value": "0177941801"
          }
        ],
        "extension": [
          {
            "url": "http://hl7.org/fhir/StructureDefinition/patient-nationality",
            "valueCodeableConcept": {
              "coding": [
                {
                  "code": "FR",
                  "system": "http://hl7.org/fhir/ValueSet/country"
                }
              ]
            }
          }
        ],
        "text": {
          "status": "generated",
          "div": "<div xmlns=\"http://www.w3.org/1999/xhtml\"><table class=\"hl7__ips\"><tr><td>Victor Lagarde</td><td>male</td><td>31-Aug-1939</td></tr></table></div>"
        },
        "gender": "male",
        "birthDate": "1939-08-31"
      }
    },
    {
      "fullUrl": "urn:uuid:8c3ab992-31e4-4c69-b5dc-3c929b3aea16",
      "resource": {
        "resourceType": "ServiceRequest",
        "id": "8c3ab992-31e4-4c69-b5dc-3c929b3aea16",
        "meta": {
          "profile": [
            "http://hl7.eu/fhir/laboratory/StructureDefinition/ServiceRequest-eu-lab"
          ]
        },
        "identifier": [
          {
            "system": "http://example.org",
            "value": "352afeb0-8b95-4463-a59a-2f5898ce2a5f"
          }
        ],
        "specimen": [
          {
            "reference": "urn:uuid:d890b370-0130-446a-bdb4-1c5b158230f0"
          },
          {
            "reference": "urn:uuid:196387c0-4710-479b-95ba-7b2f352e1ec3"
          },
          {
            "reference": "urn:uuid:709df6cb-57fd-43f2-bcee-460d34baa4e5"
          }
        ],
        "reasonCode": [
          {
            "coding": [
              {
                "code": "433144002",
                "system": "http://snomed.info/sct",
                "display": "Chronic kidney disease stage 3"
              }
            ]
          },
          {
            "coding": [
              {
                "code": "157141000119108",
                "system": "http://snomed.info/sct",
                "display": "Proteinuria due to type 2 diabetes mellitus"
              }
            ]
          },
          {
            "coding": [
              {
                "code": "431856006",
                "system": "http://snomed.info/sct",
                "display": "Chronic kidney disease stage 2"
              }
            ]
          },
          {
            "coding": [
              {
                "code": "90781000119102",
                "system": "http://snomed.info/sct",
                "display": "Microalbuminuria due to type 2 diabetes mellitus"
              }
            ]
          },
          {
            "coding": [
              {
                "code": "127013003",
                "system": "http://snomed.info/sct",
                "display": "Disorder of kidney due to diabetes mellitus"
              }
            ]
          },
          {
            "coding": [
              {
                "code": "431855005",
                "system": "http://snomed.info/sct",
                "display": "Chronic kidney disease stage 1"
              }
            ]
          },
          {
            "coding": [
              {
                "code": "55822004",
                "system": "http://snomed.info/sct",
                "display": "Hyperlipidemia"
              }
            ]
          },
          {
            "coding": [
              {
                "code": "59621000",
                "system": "http://snomed.info/sct",
                "display": "Essential hypertension"
              }
            ]
          },
          {
            "coding": [
              {
                "code": "237602007",
                "system": "http://snomed.info/sct",
                "display": "Metabolic syndrome X"
              }
            ]
          },
          {
            "coding": [
              {
                "code": "414545008",
                "system": "http://snomed.info/sct",
                "display": "Ischemic heart disease"
              }
            ]
          },
          {
            "coding": [
              {
                "code": "40055000",
                "system": "http://snomed.info/sct",
                "display": "Chronic sinusitis"
              }
            ]
          },
          {
            "coding": [
              {
                "code": "15777000",
                "system": "http://snomed.info/sct",
                "display": "Prediabetes"
              }
            ]
          },
          {
            "coding": [
              {
                "code": "271737000",
                "system": "http://snomed.info/sct",
                "display": "Anemia"
              }
            ]
          }
        ],
        "status": "active",
        "intent": "order",
        "code": {
          "coding": [
            {
              "code": "108252007",
              "system": "http://snomed.info/sct",
              "display": "Laboratory procedure"
            }
          ]
        },
        "subject": {
          "reference": "urn:uuid:99f189f2-5846-44bb-886f-f373288ce7f1",
          "display": "Victor Lagarde"
        },
        "requester": {
          "reference": "urn:uuid:3355599a-0d46-4691-b74e-628708cf8afa"
        }
      }
    },
    {
      "fullUrl": "urn:uuid:3355599a-0d46-4691-b74e-628708cf8afa",
      "resource": {
        "resourceType": "PractitionerRole",
        "id": "3355599a-0d46-4691-b74e-628708cf8afa",
        "meta": {
          "profile": [
            "http://hl7.eu/fhir/base/StructureDefinition/practitionerRole-eu"
          ]
        },
        "text": {
          "status": "generated",
          "div": "<div xmlns=\"http://www.w3.org/1999/xhtml\">Provider Role Id: 3355599a-0d46-4691-b74e-628708cf8afa</div>"
        },
        "organization": {
          "reference": "urn:uuid:edaa358e-88de-4f9a-aa90-c0fbba1ec0af"
        }
      }
    },
    {
      "fullUrl": "urn:uuid:edaa358e-88de-4f9a-aa90-c0fbba1ec0af",
      "resource": {
        "resourceType": "Organization",
        "id": "edaa358e-88de-4f9a-aa90-c0fbba1ec0af",
        "meta": {
          "profile": [
            "http://hl7.eu/fhir/base/StructureDefinition/organization-eu"
          ]
        },
        "identifier": [
          {
            "assigner": {
              "display": "HL7 Europe"
            },
            "system": "urn:oid:2.16.840.1.113883.2.51.999",
            "value": "5cc71a0b-44be-42e4-aa05-c134e2d8f1c6"
          }
        ],
        "address": [
          {
            "city": "Auxerre",
            "postalCode": "89000",
            "country": "France"
          }
        ],
        "text": {
          "status": "generated",
          "div": "<div xmlns=\"http://www.w3.org/1999/xhtml\">Provider Organization: Thiriot Didier (Cardiologie)</div>"
        },
        "name": "Thiriot Didier (Cardiologie)"
      }
    },
    {
      "fullUrl": "urn:uuid:d890b370-0130-446a-bdb4-1c5b158230f0",
      "resource": {
        "resourceType": "Specimen",
        "id": "d890b370-0130-446a-bdb4-1c5b158230f0",
        "meta": {
          "profile": [
            "http://hl7.eu/fhir/laboratory/StructureDefinition/Specimen-eu-lab"
          ]
        },
        "collection": {
          "collectedDateTime": "2020-09-04"
        },
        "text": {
          "status": "generated",
          "div": "<div xmlns=\"http://www.w3.org/1999/xhtml\"><table class=\"hl7__eu__lab__report\"><tr><th>Specimen</th><th>Collection Date</th></tr><tr><td>Acellular blood (serum or plasma) specimen</td><td><span class=\"nb\">04-Sep-2020</span></td></tr></table></div>"
        },
        "type": {
          "coding": [
            {
              "code": "122592007",
              "system": "http://snomed.info/sct",
              "display": "Acellular blood (serum or plasma) specimen"
            }
          ]
        }
      }
    },
    {
      "fullUrl": "urn:uuid:196387c0-4710-479b-95ba-7b2f352e1ec3",
      "resource": {
        "resourceType": "Specimen",
        "id": "196387c0-4710-479b-95ba-7b2f352e1ec3",
        "meta": {
          "profile": [
            "http://hl7.eu/fhir/laboratory/StructureDefinition/Specimen-eu-lab"
          ]
        },
        "collection": {
          "collectedDateTime": "2020-09-04"
        },
        "text": {
          "status": "generated",
          "div": "<div xmlns=\"http://www.w3.org/1999/xhtml\"><table class=\"hl7__eu__lab__report\"><tr><th>Specimen</th><th>Collection Date</th></tr><tr><td>Urine specimen</td><td><span class=\"nb\">04-Sep-2020</span></td></tr></table></div>"
        },
        "type": {
          "coding": [
            {
              "code": "122575003",
              "system": "http://snomed.info/sct",
              "display": "Urine specimen"
            }
          ]
        }
      }
    },
    {
      "fullUrl": "urn:uuid:709df6cb-57fd-43f2-bcee-460d34baa4e5",
      "resource": {
        "resourceType": "Specimen",
        "id": "709df6cb-57fd-43f2-bcee-460d34baa4e5",
        "meta": {
          "profile": [
            "http://hl7.eu/fhir/laboratory/StructureDefinition/Specimen-eu-lab"
          ]
        },
        "collection": {
          "collectedDateTime": "2020-09-04"
        },
        "text": {
          "status": "generated",
          "div": "<div xmlns=\"http://www.w3.org/1999/xhtml\"><table class=\"hl7__eu__lab__report\"><tr><th>Specimen</th><th>Collection Date</th></tr><tr><td>Whole blood specimen (specimen)</td><td><span class=\"nb\">04-Sep-2020</span></td></tr></table></div>"
        },
        "type": {
          "coding": [
            {
              "code": "258580003",
              "system": "http://snomed.info/sct",
              "display": "Whole blood specimen (specimen)"
            }
          ]
        }
      }
    },
    {
      "fullUrl": "urn:uuid:d4b48b34-7997-4981-bf81-cee1fc6deb56",
      "resource": {
        "resourceType": "Observation",
        "id": "d4b48b34-7997-4981-bf81-cee1fc6deb56",
        "meta": {
          "profile": [
            "http://hl7.eu/fhir/laboratory/StructureDefinition/Observation-resultslab-eu-lab"
          ]
        },
        "performer": [
          {
            "display": "The Central European Lab"
          }
        ],
        "category": [
          {
            "coding": [
              {
                "system": "http://terminology.hl7.org/CodeSystem/observation-category",
                "code": "laboratory"
              }
            ]
          }
        ],
        "code": {
          "coding": [
            {
              "code": "2345-7",
              "system": "http://loinc.org",
              "display": "Glucose [Mass/volume] in Serum or Plasma"
            }
          ],
          "text": "Glucose [Mass/volume] in Serum or Plasma"
        },
        "valueQuantity": {
          "system": "http://unitsofmeasure.org",
          "value": 68.9,
          "unit": "mg/dL",
          "code": "mg/dL"
        },
        "referenceRange": [
          {
            "low": {
              "value": 70,
              "code": "mg/dL",
              "system": "http://unitsofmeasure.org"
            }
          },
          {
            "high": {
              "value": 140,
              "code": "mg/dL",
              "system": "http://unitsofmeasure.org"
            }
          }
        ],
        "interpretation": [
          {
            "coding": [
              {
                "code": "L",
                "system": "http://terminology.hl7.org/CodeSystem/v3-ObservationInterpretation",
                "display": "Low"
              }
            ]
          }
        ],
        "text": {
          "status": "generated",
          "div": "<div xmlns=\"http://www.w3.org/1999/xhtml\"><table class=\"hl7__eu__lab__report\"><tr><th>Test</th><th>04-Sep-2020</th><th>Reference&#xA0;Range</th><th>Unit</th></tr><tr><td>Glucose [Mass/volume] in Serum or Plasma</td><td>68.9</td><td>70 - 140</td><td>L</td><td>mg/dL</td></tr></table></div>"
        },
        "status": "final",
        "subject": {
          "reference": "urn:uuid:99f189f2-5846-44bb-886f-f373288ce7f1",
          "display": "Victor Lagarde"
        },
        "effectiveDateTime": "2020-09-04T04:48:18Z",
        "specimen": {
          "reference": "urn:uuid:d890b370-0130-446a-bdb4-1c5b158230f0"
        }
      }
    },
    {
      "fullUrl": "urn:uuid:f80a3477-a60b-41c1-ad29-428e61134c66",
      "resource": {
        "resourceType": "Observation",
        "id": "f80a3477-a60b-41c1-ad29-428e61134c66",
        "meta": {
          "profile": [
            "http://hl7.eu/fhir/laboratory/StructureDefinition/Observation-resultslab-eu-lab"
          ]
        },
        "performer": [
          {
            "display": "The Central European Lab"
          }
        ],
        "category": [
          {
            "coding": [
              {
                "system": "http://terminology.hl7.org/CodeSystem/observation-category",
                "code": "laboratory"
              }
            ]
          }
        ],
        "code": {
          "coding": [
            {
              "code": "3094-0",
              "system": "http://loinc.org",
              "display": "Urea nitrogen [Mass/volume] in Serum or Plasma"
            }
          ],
          "text": "Urea nitrogen [Mass/volume] in Serum or Plasma"
        },
        "valueQuantity": {
          "system": "http://unitsofmeasure.org",
          "value": 12.3,
          "unit": "mg/dL",
          "code": "mg/dL"
        },
        "referenceRange": [
          {
            "low": {
              "value": 7,
              "code": "mg/dL",
              "system": "http://unitsofmeasure.org"
            }
          },
          {
            "high": {
              "value": 20,
              "code": "mg/dL",
              "system": "http://unitsofmeasure.org"
            }
          }
        ],
        "text": {
          "status": "generated",
          "div": "<div xmlns=\"http://www.w3.org/1999/xhtml\"><table class=\"hl7__eu__lab__report\"><tr><th>Test</th><th>04-Sep-2020</th><th>Reference&#xA0;Range</th><th>Unit</th></tr><tr><td>Urea nitrogen [Mass/volume] in Serum or Plasma</td><td>12.3</td><td>7 - 20</td><td></td><td>mg/dL</td></tr></table></div>"
        },
        "status": "final",
        "subject": {
          "reference": "urn:uuid:99f189f2-5846-44bb-886f-f373288ce7f1",
          "display": "Victor Lagarde"
        },
        "effectiveDateTime": "2020-09-04T04:48:18Z",
        "specimen": {
          "reference": "urn:uuid:d890b370-0130-446a-bdb4-1c5b158230f0"
        }
      }
    },
    {
      "fullUrl": "urn:uuid:5133f27f-c60e-41da-9a6b-ea0779a8c306",
      "resource": {
        "resourceType": "Observation",
        "id": "5133f27f-c60e-41da-9a6b-ea0779a8c306",
        "meta": {
          "profile": [
            "http://hl7.eu/fhir/laboratory/StructureDefinition/Observation-resultslab-eu-lab"
          ]
        },
        "performer": [
          {
            "display": "The Central European Lab"
          }
        ],
        "category": [
          {
            "coding": [
              {
                "system": "http://terminology.hl7.org/CodeSystem/observation-category",
                "code": "laboratory"
              }
            ]
          }
        ],
        "code": {
          "coding": [
            {
              "code": "2160-0",
              "system": "http://loinc.org",
              "display": "Creatinine [Mass/volume] in Serum or Plasma"
            }
          ],
          "text": "Creatinine [Mass/volume] in Serum or Plasma"
        },
        "valueQuantity": {
          "system": "http://unitsofmeasure.org",
          "value": 1.9,
          "unit": "mg/dL",
          "code": "mg/dL"
        },
        "referenceRange": [
          {
            "low": {
              "value": 0.9,
              "code": "mg/dL",
              "system": "http://unitsofmeasure.org"
            }
          },
          {
            "high": {
              "value": 1.3,
              "code": "mg/dL",
              "system": "http://unitsofmeasure.org"
            }
          }
        ],
        "interpretation": [
          {
            "coding": [
              {
                "code": "H",
                "system": "http://terminology.hl7.org/CodeSystem/v3-ObservationInterpretation",
                "display": "High"
              }
            ]
          }
        ],
        "text": {
          "status": "generated",
          "div": "<div xmlns=\"http://www.w3.org/1999/xhtml\"><table class=\"hl7__eu__lab__report\"><tr><th>Test</th><th>04-Sep-2020</th><th>Reference&#xA0;Range</th><th>Unit</th></tr><tr><td>Creatinine [Mass/volume] in Serum or Plasma</td><td>1.9</td><td>0.9 - 1.3</td><td>H</td><td>mg/dL</td></tr></table></div>"
        },
        "status": "final",
        "subject": {
          "reference": "urn:uuid:99f189f2-5846-44bb-886f-f373288ce7f1",
          "display": "Victor Lagarde"
        },
        "effectiveDateTime": "2020-09-04T04:48:18Z",
        "specimen": {
          "reference": "urn:uuid:d890b370-0130-446a-bdb4-1c5b158230f0"
        }
      }
    },
    {
      "fullUrl": "urn:uuid:84b40871-ac63-4145-b4f0-fda115728f08",
      "resource": {
        "resourceType": "Observation",
        "id": "84b40871-ac63-4145-b4f0-fda115728f08",
        "meta": {
          "profile": [
            "http://hl7.eu/fhir/laboratory/StructureDefinition/Observation-resultslab-eu-lab"
          ]
        },
        "performer": [
          {
            "display": "The Central European Lab"
          }
        ],
        "category": [
          {
            "coding": [
              {
                "system": "http://terminology.hl7.org/CodeSystem/observation-category",
                "code": "laboratory"
              }
            ]
          }
        ],
        "code": {
          "coding": [
            {
              "code": "17861-6",
              "system": "http://loinc.org",
              "display": "Calcium [Mass/volume] in Serum or Plasma"
            }
          ],
          "text": "Calcium [Mass/volume] in Serum or Plasma"
        },
        "valueQuantity": {
          "system": "http://unitsofmeasure.org",
          "value": 9.8,
          "unit": "mg/dL",
          "code": "mg/dL"
        },
        "referenceRange": [
          {
            "low": {
              "value": 8.5,
              "code": "mg/dL",
              "system": "http://unitsofmeasure.org"
            }
          },
          {
            "high": {
              "value": 10.5,
              "code": "mg/dL",
              "system": "http://unitsofmeasure.org"
            }
          }
        ],
        "text": {
          "status": "generated",
          "div": "<div xmlns=\"http://www.w3.org/1999/xhtml\"><table class=\"hl7__eu__lab__report\"><tr><th>Test</th><th>04-Sep-2020</th><th>Reference&#xA0;Range</th><th>Unit</th></tr><tr><td>Calcium [Mass/volume] in Serum or Plasma</td><td>9.8</td><td>8.5 - 10.5</td><td></td><td>mg/dL</td></tr></table></div>"
        },
        "status": "final",
        "subject": {
          "reference": "urn:uuid:99f189f2-5846-44bb-886f-f373288ce7f1",
          "display": "Victor Lagarde"
        },
        "effectiveDateTime": "2020-09-04T04:48:18Z",
        "specimen": {
          "reference": "urn:uuid:d890b370-0130-446a-bdb4-1c5b158230f0"
        }
      }
    },
    {
      "fullUrl": "urn:uuid:c1582940-972d-458b-ac77-617ee03aea72",
      "resource": {
        "resourceType": "Observation",
        "id": "c1582940-972d-458b-ac77-617ee03aea72",
        "meta": {
          "profile": [
            "http://hl7.eu/fhir/laboratory/StructureDefinition/Observation-resultslab-eu-lab"
          ]
        },
        "performer": [
          {
            "display": "The Central European Lab"
          }
        ],
        "category": [
          {
            "coding": [
              {
                "system": "http://terminology.hl7.org/CodeSystem/observation-category",
                "code": "laboratory"
              }
            ]
          }
        ],
        "code": {
          "coding": [
            {
              "code": "2951-2",
              "system": "http://loinc.org",
              "display": "Sodium [Moles/volume] in Serum or Plasma"
            }
          ],
          "text": "Sodium [Moles/volume] in Serum or Plasma"
        },
        "valueQuantity": {
          "system": "http://unitsofmeasure.org",
          "value": 141.2,
          "unit": "mmol/L",
          "code": "mmol/L"
        },
        "referenceRange": [
          {
            "low": {
              "value": 135,
              "code": "mmol/L",
              "system": "http://unitsofmeasure.org"
            }
          },
          {
            "high": {
              "value": 145,
              "code": "mmol/L",
              "system": "http://unitsofmeasure.org"
            }
          }
        ],
        "text": {
          "status": "generated",
          "div": "<div xmlns=\"http://www.w3.org/1999/xhtml\"><table class=\"hl7__eu__lab__report\"><tr><th>Test</th><th>04-Sep-2020</th><th>Reference&#xA0;Range</th><th>Unit</th></tr><tr><td>Sodium [Moles/volume] in Serum or Plasma</td><td>141.2</td><td>135 - 145</td><td></td><td>mmol/L</td></tr></table></div>"
        },
        "status": "final",
        "subject": {
          "reference": "urn:uuid:99f189f2-5846-44bb-886f-f373288ce7f1",
          "display": "Victor Lagarde"
        },
        "effectiveDateTime": "2020-09-04T04:48:18Z",
        "specimen": {
          "reference": "urn:uuid:d890b370-0130-446a-bdb4-1c5b158230f0"
        }
      }
    },
    {
      "fullUrl": "urn:uuid:642b5bf7-22fa-4778-b1bc-a835c70f2424",
      "resource": {
        "resourceType": "Observation",
        "id": "642b5bf7-22fa-4778-b1bc-a835c70f2424",
        "meta": {
          "profile": [
            "http://hl7.eu/fhir/laboratory/StructureDefinition/Observation-resultslab-eu-lab"
          ]
        },
        "performer": [
          {
            "display": "The Central European Lab"
          }
        ],
        "category": [
          {
            "coding": [
              {
                "system": "http://terminology.hl7.org/CodeSystem/observation-category",
                "code": "laboratory"
              }
            ]
          }
        ],
        "code": {
          "coding": [
            {
              "code": "2823-3",
              "system": "http://loinc.org",
              "display": "Potassium [Moles/volume] in Serum or Plasma"
            }
          ],
          "text": "Potassium [Moles/volume] in Serum or Plasma"
        },
        "valueQuantity": {
          "system": "http://unitsofmeasure.org",
          "value": 4.8,
          "unit": "mmol/L",
          "code": "mmol/L"
        },
        "referenceRange": [
          {
            "low": {
              "value": 3.5,
              "code": "mmol/L",
              "system": "http://unitsofmeasure.org"
            }
          },
          {
            "high": {
              "value": 5.3,
              "code": "mmol/L",
              "system": "http://unitsofmeasure.org"
            }
          }
        ],
        "text": {
          "status": "generated",
          "div": "<div xmlns=\"http://www.w3.org/1999/xhtml\"><table class=\"hl7__eu__lab__report\"><tr><th>Test</th><th>04-Sep-2020</th><th>Reference&#xA0;Range</th><th>Unit</th></tr><tr><td>Potassium [Moles/volume] in Serum or Plasma</td><td>4.8</td><td>3.5 - 5.3</td><td></td><td>mmol/L</td></tr></table></div>"
        },
        "status": "final",
        "subject": {
          "reference": "urn:uuid:99f189f2-5846-44bb-886f-f373288ce7f1",
          "display": "Victor Lagarde"
        },
        "effectiveDateTime": "2020-09-04T04:48:18Z",
        "specimen": {
          "reference": "urn:uuid:d890b370-0130-446a-bdb4-1c5b158230f0"
        }
      }
    },
    {
      "fullUrl": "urn:uuid:abac8add-4530-4fd5-95e5-1f2b4e823d15",
      "resource": {
        "resourceType": "Observation",
        "id": "abac8add-4530-4fd5-95e5-1f2b4e823d15",
        "meta": {
          "profile": [
            "http://hl7.eu/fhir/laboratory/StructureDefinition/Observation-resultslab-eu-lab"
          ]
        },
        "performer": [
          {
            "display": "The Central European Lab"
          }
        ],
        "category": [
          {
            "coding": [
              {
                "system": "http://terminology.hl7.org/CodeSystem/observation-category",
                "code": "laboratory"
              }
            ]
          }
        ],
        "code": {
          "coding": [
            {
              "code": "2075-0",
              "system": "http://loinc.org",
              "display": "Chloride [Moles/volume] in Serum or Plasma"
            }
          ],
          "text": "Chloride [Moles/volume] in Serum or Plasma"
        },
        "valueQuantity": {
          "system": "http://unitsofmeasure.org",
          "value": 109.5,
          "unit": "mmol/L",
          "code": "mmol/L"
        },
        "referenceRange": [
          {
            "low": {
              "value": 98,
              "code": "mmol/L",
              "system": "http://unitsofmeasure.org"
            }
          },
          {
            "high": {
              "value": 107,
              "code": "mmol/L",
              "system": "http://unitsofmeasure.org"
            }
          }
        ],
        "interpretation": [
          {
            "coding": [
              {
                "code": "H",
                "system": "http://terminology.hl7.org/CodeSystem/v3-ObservationInterpretation",
                "display": "High"
              }
            ]
          }
        ],
        "text": {
          "status": "generated",
          "div": "<div xmlns=\"http://www.w3.org/1999/xhtml\"><table class=\"hl7__eu__lab__report\"><tr><th>Test</th><th>04-Sep-2020</th><th>Reference&#xA0;Range</th><th>Unit</th></tr><tr><td>Chloride [Moles/volume] in Serum or Plasma</td><td>109.5</td><td>98 - 107</td><td>H</td><td>mmol/L</td></tr></table></div>"
        },
        "status": "final",
        "subject": {
          "reference": "urn:uuid:99f189f2-5846-44bb-886f-f373288ce7f1",
          "display": "Victor Lagarde"
        },
        "effectiveDateTime": "2020-09-04T04:48:18Z",
        "specimen": {
          "reference": "urn:uuid:d890b370-0130-446a-bdb4-1c5b158230f0"
        }
      }
    },
    {
      "fullUrl": "urn:uuid:f06feebc-daa0-4e66-bab2-9ce32adba13b",
      "resource": {
        "resourceType": "Observation",
        "id": "f06feebc-daa0-4e66-bab2-9ce32adba13b",
        "meta": {
          "profile": [
            "http://hl7.eu/fhir/laboratory/StructureDefinition/Observation-resultslab-eu-lab"
          ]
        },
        "performer": [
          {
            "display": "The Central European Lab"
          }
        ],
        "category": [
          {
            "coding": [
              {
                "system": "http://terminology.hl7.org/CodeSystem/observation-category",
                "code": "laboratory"
              }
            ]
          }
        ],
        "code": {
          "coding": [
            {
              "code": "2028-9",
              "system": "http://loinc.org",
              "display": "Carbon dioxide, total [Moles/volume] in Serum or Plasma"
            }
          ],
          "text": "Carbon dioxide, total [Moles/volume] in Serum or Plasma"
        },
        "valueQuantity": {
          "system": "http://unitsofmeasure.org",
          "value": 20.1,
          "unit": "mmol/L",
          "code": "mmol/L"
        },
        "referenceRange": [
          {
            "low": {
              "value": 22,
              "code": "mmol/L",
              "system": "http://unitsofmeasure.org"
            }
          },
          {
            "high": {
              "value": 33,
              "code": "mmol/L",
              "system": "http://unitsofmeasure.org"
            }
          }
        ],
        "interpretation": [
          {
            "coding": [
              {
                "code": "L",
                "system": "http://terminology.hl7.org/CodeSystem/v3-ObservationInterpretation",
                "display": "Low"
              }
            ]
          }
        ],
        "text": {
          "status": "generated",
          "div": "<div xmlns=\"http://www.w3.org/1999/xhtml\"><table class=\"hl7__eu__lab__report\"><tr><th>Test</th><th>04-Sep-2020</th><th>Reference&#xA0;Range</th><th>Unit</th></tr><tr><td>Carbon dioxide, total [Moles/volume] in Serum or Plasma</td><td>20.1</td><td>22 - 33</td><td>L</td><td>mmol/L</td></tr></table></div>"
        },
        "status": "final",
        "subject": {
          "reference": "urn:uuid:99f189f2-5846-44bb-886f-f373288ce7f1",
          "display": "Victor Lagarde"
        },
        "effectiveDateTime": "2020-09-04T04:48:18Z",
        "specimen": {
          "reference": "urn:uuid:d890b370-0130-446a-bdb4-1c5b158230f0"
        }
      }
    },
    {
      "fullUrl": "urn:uuid:bf1bad7f-8d21-4b3c-b4a4-2800dcb6572b",
      "resource": {
        "resourceType": "Observation",
        "id": "bf1bad7f-8d21-4b3c-b4a4-2800dcb6572b",
        "meta": {
          "profile": [
            "http://hl7.eu/fhir/laboratory/StructureDefinition/Observation-resultslab-eu-lab"
          ]
        },
        "performer": [
          {
            "display": "The Central European Lab"
          }
        ],
        "category": [
          {
            "coding": [
              {
                "system": "http://terminology.hl7.org/CodeSystem/observation-category",
                "code": "laboratory"
              }
            ]
          }
        ],
        "code": {
          "coding": [
            {
              "code": "5767-9",
              "system": "http://loinc.org",
              "display": "Appearance of Urine"
            }
          ],
          "text": "Appearance of Urine"
        },
        "text": {
          "status": "generated",
          "div": "<div xmlns=\"http://www.w3.org/1999/xhtml\"><table class=\"hl7__eu__lab__report\"><tr><th>Test</th><th>04-Sep-2020</th><th>Reference&#xA0;Range</th><th>Unit</th></tr><tr><td>Appearance of Urine</td></tr></table></div>"
        },
        "status": "final",
        "subject": {
          "reference": "urn:uuid:99f189f2-5846-44bb-886f-f373288ce7f1",
          "display": "Victor Lagarde"
        },
        "effectiveDateTime": "2020-09-04T04:48:18Z",
        "specimen": {
          "reference": "urn:uuid:196387c0-4710-479b-95ba-7b2f352e1ec3"
        }
      }
    },
    {
      "fullUrl": "urn:uuid:b608b4b2-aad9-430d-ad2e-65edff37dd64",
      "resource": {
        "resourceType": "Observation",
        "id": "b608b4b2-aad9-430d-ad2e-65edff37dd64",
        "meta": {
          "profile": [
            "http://hl7.eu/fhir/laboratory/StructureDefinition/Observation-resultslab-eu-lab"
          ]
        },
        "performer": [
          {
            "display": "The Central European Lab"
          }
        ],
        "category": [
          {
            "coding": [
              {
                "system": "http://terminology.hl7.org/CodeSystem/observation-category",
                "code": "laboratory"
              }
            ]
          }
        ],
        "code": {
          "coding": [
            {
              "code": "34533-0",
              "system": "http://loinc.org",
              "display": "Odor of Urine"
            }
          ],
          "text": "Odor of Urine"
        },
        "text": {
          "status": "generated",
          "div": "<div xmlns=\"http://www.w3.org/1999/xhtml\"><table class=\"hl7__eu__lab__report\"><tr><th>Test</th><th>04-Sep-2020</th><th>Reference&#xA0;Range</th><th>Unit</th></tr><tr><td>Odor of Urine</td></tr></table></div>"
        },
        "status": "final",
        "subject": {
          "reference": "urn:uuid:99f189f2-5846-44bb-886f-f373288ce7f1",
          "display": "Victor Lagarde"
        },
        "effectiveDateTime": "2020-09-04T04:48:18Z",
        "specimen": {
          "reference": "urn:uuid:196387c0-4710-479b-95ba-7b2f352e1ec3"
        }
      }
    },
    {
      "fullUrl": "urn:uuid:fcd3c101-0031-4d92-b82b-b1c8a0227da1",
      "resource": {
        "resourceType": "Observation",
        "id": "fcd3c101-0031-4d92-b82b-b1c8a0227da1",
        "meta": {
          "profile": [
            "http://hl7.eu/fhir/laboratory/StructureDefinition/Observation-resultslab-eu-lab"
          ]
        },
        "performer": [
          {
            "display": "The Central European Lab"
          }
        ],
        "category": [
          {
            "coding": [
              {
                "system": "http://terminology.hl7.org/CodeSystem/observation-category",
                "code": "laboratory"
              }
            ]
          }
        ],
        "code": {
          "coding": [
            {
              "code": "32167-9",
              "system": "http://loinc.org",
              "display": "Clarity of Urine"
            }
          ],
          "text": "Clarity of Urine"
        },
        "text": {
          "status": "generated",
          "div": "<div xmlns=\"http://www.w3.org/1999/xhtml\"><table class=\"hl7__eu__lab__report\"><tr><th>Test</th><th>04-Sep-2020</th><th>Reference&#xA0;Range</th><th>Unit</th></tr><tr><td>Clarity of Urine</td></tr></table></div>"
        },
        "status": "final",
        "subject": {
          "reference": "urn:uuid:99f189f2-5846-44bb-886f-f373288ce7f1",
          "display": "Victor Lagarde"
        },
        "effectiveDateTime": "2020-09-04T04:48:18Z",
        "specimen": {
          "reference": "urn:uuid:196387c0-4710-479b-95ba-7b2f352e1ec3"
        }
      }
    },
    {
      "fullUrl": "urn:uuid:a4146da0-9c0d-430a-bc7a-ae91d23a083b",
      "resource": {
        "resourceType": "Observation",
        "id": "a4146da0-9c0d-430a-bc7a-ae91d23a083b",
        "meta": {
          "profile": [
            "http://hl7.eu/fhir/laboratory/StructureDefinition/Observation-resultslab-eu-lab"
          ]
        },
        "performer": [
          {
            "display": "The Central European Lab"
          }
        ],
        "category": [
          {
            "coding": [
              {
                "system": "http://terminology.hl7.org/CodeSystem/observation-category",
                "code": "laboratory"
              }
            ]
          }
        ],
        "code": {
          "coding": [
            {
              "code": "5778-6",
              "system": "http://loinc.org",
              "display": "Color of Urine"
            }
          ],
          "text": "Color of Urine"
        },
        "text": {
          "status": "generated",
          "div": "<div xmlns=\"http://www.w3.org/1999/xhtml\"><table class=\"hl7__eu__lab__report\"><tr><th>Test</th><th>04-Sep-2020</th><th>Reference&#xA0;Range</th><th>Unit</th></tr><tr><td>Color of Urine</td></tr></table></div>"
        },
        "status": "final",
        "subject": {
          "reference": "urn:uuid:99f189f2-5846-44bb-886f-f373288ce7f1",
          "display": "Victor Lagarde"
        },
        "effectiveDateTime": "2020-09-04T04:48:18Z",
        "specimen": {
          "reference": "urn:uuid:196387c0-4710-479b-95ba-7b2f352e1ec3"
        }
      }
    },
    {
      "fullUrl": "urn:uuid:495960b2-d483-4881-a17a-6a28292cbc8d",
      "resource": {
        "resourceType": "Observation",
        "id": "495960b2-d483-4881-a17a-6a28292cbc8d",
        "meta": {
          "profile": [
            "http://hl7.eu/fhir/laboratory/StructureDefinition/Observation-resultslab-eu-lab"
          ]
        },
        "performer": [
          {
            "display": "The Central European Lab"
          }
        ],
        "category": [
          {
            "coding": [
              {
                "system": "http://terminology.hl7.org/CodeSystem/observation-category",
                "code": "laboratory"
              }
            ]
          }
        ],
        "code": {
          "coding": [
            {
              "code": "5792-7",
              "system": "http://loinc.org",
              "display": "Glucose [Mass/volume] in Urine by Test strip"
            }
          ],
          "text": "Glucose [Mass/volume] in Urine by Test strip"
        },
        "valueQuantity": {
          "system": "http://unitsofmeasure.org",
          "value": 1.8,
          "unit": "mg/dL",
          "code": "mg/dL"
        },
        "referenceRange": [
          {
            "low": {
              "value": 0,
              "code": "mg/dL",
              "system": "http://unitsofmeasure.org"
            }
          },
          {
            "high": {
              "value": 0.8,
              "code": "mg/dL",
              "system": "http://unitsofmeasure.org"
            }
          }
        ],
        "interpretation": [
          {
            "coding": [
              {
                "code": "H",
                "system": "http://terminology.hl7.org/CodeSystem/v3-ObservationInterpretation",
                "display": "High"
              }
            ]
          }
        ],
        "text": {
          "status": "generated",
          "div": "<div xmlns=\"http://www.w3.org/1999/xhtml\"><table class=\"hl7__eu__lab__report\"><tr><th>Test</th><th>04-Sep-2020</th><th>Reference&#xA0;Range</th><th>Unit</th></tr><tr><td>Glucose [Mass/volume] in Urine by Test strip</td><td>1.8</td><td>0 - 0.8</td><td>H</td><td>mg/dL</td></tr></table></div>"
        },
        "status": "final",
        "subject": {
          "reference": "urn:uuid:99f189f2-5846-44bb-886f-f373288ce7f1",
          "display": "Victor Lagarde"
        },
        "effectiveDateTime": "2020-09-04T04:48:18Z",
        "specimen": {
          "reference": "urn:uuid:196387c0-4710-479b-95ba-7b2f352e1ec3"
        }
      }
    },
    {
      "fullUrl": "urn:uuid:f6211442-57f9-49df-8f9e-21bb0fbe7c13",
      "resource": {
        "resourceType": "Observation",
        "id": "f6211442-57f9-49df-8f9e-21bb0fbe7c13",
        "meta": {
          "profile": [
            "http://hl7.eu/fhir/laboratory/StructureDefinition/Observation-resultslab-eu-lab"
          ]
        },
        "performer": [
          {
            "display": "The Central European Lab"
          }
        ],
        "category": [
          {
            "coding": [
              {
                "system": "http://terminology.hl7.org/CodeSystem/observation-category",
                "code": "laboratory"
              }
            ]
          }
        ],
        "code": {
          "coding": [
            {
              "code": "25428-4",
              "system": "http://loinc.org",
              "display": "Glucose [Presence] in Urine by Test strip"
            }
          ],
          "text": "Glucose [Presence] in Urine by Test strip"
        },
        "text": {
          "status": "generated",
          "div": "<div xmlns=\"http://www.w3.org/1999/xhtml\"><table class=\"hl7__eu__lab__report\"><tr><th>Test</th><th>04-Sep-2020</th><th>Reference&#xA0;Range</th><th>Unit</th></tr><tr><td>Glucose [Presence] in Urine by Test strip</td></tr></table></div>"
        },
        "status": "final",
        "subject": {
          "reference": "urn:uuid:99f189f2-5846-44bb-886f-f373288ce7f1",
          "display": "Victor Lagarde"
        },
        "effectiveDateTime": "2020-09-04T04:48:18Z",
        "specimen": {
          "reference": "urn:uuid:196387c0-4710-479b-95ba-7b2f352e1ec3"
        }
      }
    },
    {
      "fullUrl": "urn:uuid:b06b7315-f51d-44a7-a953-95fc62d504cf",
      "resource": {
        "resourceType": "Observation",
        "id": "b06b7315-f51d-44a7-a953-95fc62d504cf",
        "meta": {
          "profile": [
            "http://hl7.eu/fhir/laboratory/StructureDefinition/Observation-resultslab-eu-lab"
          ]
        },
        "performer": [
          {
            "display": "The Central European Lab"
          }
        ],
        "category": [
          {
            "coding": [
              {
                "system": "http://terminology.hl7.org/CodeSystem/observation-category",
                "code": "laboratory"
              }
            ]
          }
        ],
        "code": {
          "coding": [
            {
              "code": "20505-4",
              "system": "http://loinc.org",
              "display": "Bilirubin.total [Mass/volume] in Urine by Test strip"
            }
          ],
          "text": "Bilirubin.total [Mass/volume] in Urine by Test strip"
        },
        "valueQuantity": {
          "system": "http://unitsofmeasure.org",
          "value": 1.3,
          "unit": "mg/dL",
          "code": "mg/dL"
        },
        "referenceRange": [
          {
            "low": {
              "value": 0,
              "code": "mg/dL",
              "system": "http://unitsofmeasure.org"
            }
          },
          {
            "high": {
              "value": 1.9,
              "code": "mg/dL",
              "system": "http://unitsofmeasure.org"
            }
          }
        ],
        "text": {
          "status": "generated",
          "div": "<div xmlns=\"http://www.w3.org/1999/xhtml\"><table class=\"hl7__eu__lab__report\"><tr><th>Test</th><th>04-Sep-2020</th><th>Reference&#xA0;Range</th><th>Unit</th></tr><tr><td>Bilirubin.total [Mass/volume] in Urine by Test strip</td><td>1.3</td><td>0 - 1.9</td><td></td><td>mg/dL</td></tr></table></div>"
        },
        "status": "final",
        "subject": {
          "reference": "urn:uuid:99f189f2-5846-44bb-886f-f373288ce7f1",
          "display": "Victor Lagarde"
        },
        "effectiveDateTime": "2020-09-04T04:48:18Z",
        "specimen": {
          "reference": "urn:uuid:196387c0-4710-479b-95ba-7b2f352e1ec3"
        }
      }
    },
    {
      "fullUrl": "urn:uuid:785fcf7c-b2b1-4f0e-a9d0-9bca1a9a133b",
      "resource": {
        "resourceType": "Observation",
        "id": "785fcf7c-b2b1-4f0e-a9d0-9bca1a9a133b",
        "meta": {
          "profile": [
            "http://hl7.eu/fhir/laboratory/StructureDefinition/Observation-resultslab-eu-lab"
          ]
        },
        "performer": [
          {
            "display": "The Central European Lab"
          }
        ],
        "category": [
          {
            "coding": [
              {
                "system": "http://terminology.hl7.org/CodeSystem/observation-category",
                "code": "laboratory"
              }
            ]
          }
        ],
        "code": {
          "coding": [
            {
              "code": "5770-3",
              "system": "http://loinc.org",
              "display": "Bilirubin.total [Presence] in Urine by Test strip"
            }
          ],
          "text": "Bilirubin.total [Presence] in Urine by Test strip"
        },
        "text": {
          "status": "generated",
          "div": "<div xmlns=\"http://www.w3.org/1999/xhtml\"><table class=\"hl7__eu__lab__report\"><tr><th>Test</th><th>04-Sep-2020</th><th>Reference&#xA0;Range</th><th>Unit</th></tr><tr><td>Bilirubin.total [Presence] in Urine by Test strip</td></tr></table></div>"
        },
        "status": "final",
        "subject": {
          "reference": "urn:uuid:99f189f2-5846-44bb-886f-f373288ce7f1",
          "display": "Victor Lagarde"
        },
        "effectiveDateTime": "2020-09-04T04:48:18Z",
        "specimen": {
          "reference": "urn:uuid:196387c0-4710-479b-95ba-7b2f352e1ec3"
        }
      }
    },
    {
      "fullUrl": "urn:uuid:894710e2-481d-44f2-812b-5eba6c9f1577",
      "resource": {
        "resourceType": "Observation",
        "id": "894710e2-481d-44f2-812b-5eba6c9f1577",
        "meta": {
          "profile": [
            "http://hl7.eu/fhir/laboratory/StructureDefinition/Observation-resultslab-eu-lab"
          ]
        },
        "performer": [
          {
            "display": "The Central European Lab"
          }
        ],
        "category": [
          {
            "coding": [
              {
                "system": "http://terminology.hl7.org/CodeSystem/observation-category",
                "code": "laboratory"
              }
            ]
          }
        ],
        "code": {
          "coding": [
            {
              "code": "5797-6",
              "system": "http://loinc.org",
              "display": "Ketones [Mass/volume] in Urine by Test strip"
            }
          ],
          "text": "Ketones [Mass/volume] in Urine by Test strip"
        },
        "valueQuantity": {
          "system": "http://unitsofmeasure.org",
          "value": 12.5,
          "unit": "mg/dL",
          "code": "mg/dL"
        },
        "referenceRange": [
          {
            "low": {
              "value": 0,
              "code": "mg/dL",
              "system": "http://unitsofmeasure.org"
            }
          },
          {
            "high": {
              "value": 3,
              "code": "mg/dL",
              "system": "http://unitsofmeasure.org"
            }
          }
        ],
        "interpretation": [
          {
            "coding": [
              {
                "code": "H",
                "system": "http://terminology.hl7.org/CodeSystem/v3-ObservationInterpretation",
                "display": "High"
              }
            ]
          }
        ],
        "text": {
          "status": "generated",
          "div": "<div xmlns=\"http://www.w3.org/1999/xhtml\"><table class=\"hl7__eu__lab__report\"><tr><th>Test</th><th>04-Sep-2020</th><th>Reference&#xA0;Range</th><th>Unit</th></tr><tr><td>Ketones [Mass/volume] in Urine by Test strip</td><td>12.5</td><td>0 - 3</td><td>H</td><td>mg/dL</td></tr></table></div>"
        },
        "status": "final",
        "subject": {
          "reference": "urn:uuid:99f189f2-5846-44bb-886f-f373288ce7f1",
          "display": "Victor Lagarde"
        },
        "effectiveDateTime": "2020-09-04T04:48:18Z",
        "specimen": {
          "reference": "urn:uuid:196387c0-4710-479b-95ba-7b2f352e1ec3"
        }
      }
    },
    {
      "fullUrl": "urn:uuid:bbd23579-8c41-49d9-a302-8422ad7c7c65",
      "resource": {
        "resourceType": "Observation",
        "id": "bbd23579-8c41-49d9-a302-8422ad7c7c65",
        "meta": {
          "profile": [
            "http://hl7.eu/fhir/laboratory/StructureDefinition/Observation-resultslab-eu-lab"
          ]
        },
        "performer": [
          {
            "display": "The Central European Lab"
          }
        ],
        "category": [
          {
            "coding": [
              {
                "system": "http://terminology.hl7.org/CodeSystem/observation-category",
                "code": "laboratory"
              }
            ]
          }
        ],
        "code": {
          "coding": [
            {
              "code": "2514-8",
              "system": "http://loinc.org",
              "display": "Ketones [Presence] in Urine by Test strip"
            }
          ],
          "text": "Ketones [Presence] in Urine by Test strip"
        },
        "text": {
          "status": "generated",
          "div": "<div xmlns=\"http://www.w3.org/1999/xhtml\"><table class=\"hl7__eu__lab__report\"><tr><th>Test</th><th>04-Sep-2020</th><th>Reference&#xA0;Range</th><th>Unit</th></tr><tr><td>Ketones [Presence] in Urine by Test strip</td></tr></table></div>"
        },
        "status": "final",
        "subject": {
          "reference": "urn:uuid:99f189f2-5846-44bb-886f-f373288ce7f1",
          "display": "Victor Lagarde"
        },
        "effectiveDateTime": "2020-09-04T04:48:18Z",
        "specimen": {
          "reference": "urn:uuid:196387c0-4710-479b-95ba-7b2f352e1ec3"
        }
      }
    },
    {
      "fullUrl": "urn:uuid:4ac14f53-b46c-40b4-8dc4-6208970ac3d2",
      "resource": {
        "resourceType": "Observation",
        "id": "4ac14f53-b46c-40b4-8dc4-6208970ac3d2",
        "meta": {
          "profile": [
            "http://hl7.eu/fhir/laboratory/StructureDefinition/Observation-resultslab-eu-lab"
          ]
        },
        "performer": [
          {
            "display": "The Central European Lab"
          }
        ],
        "category": [
          {
            "coding": [
              {
                "system": "http://terminology.hl7.org/CodeSystem/observation-category",
                "code": "laboratory"
              }
            ]
          }
        ],
        "code": {
          "coding": [
            {
              "code": "5811-5",
              "system": "http://loinc.org",
              "display": "Specific gravity of Urine by Test strip"
            }
          ],
          "text": "Specific gravity of Urine by Test strip"
        },
        "valueQuantity": {
          "system": "http://unitsofmeasure.org",
          "value": 1,
          "unit": "{nominal}",
          "code": "{nominal}"
        },
        "referenceRange": [
          {
            "low": {
              "value": 1.01,
              "code": "g/mL",
              "system": "http://unitsofmeasure.org"
            }
          },
          {
            "high": {
              "value": 1.03,
              "code": "g/mL",
              "system": "http://unitsofmeasure.org"
            }
          }
        ],
        "interpretation": [
          {
            "coding": [
              {
                "code": "L",
                "system": "http://terminology.hl7.org/CodeSystem/v3-ObservationInterpretation",
                "display": "Low"
              }
            ]
          }
        ],
        "text": {
          "status": "generated",
          "div": "<div xmlns=\"http://www.w3.org/1999/xhtml\"><table class=\"hl7__eu__lab__report\"><tr><th>Test</th><th>04-Sep-2020</th><th>Reference&#xA0;Range</th><th>Unit</th></tr><tr><td>Specific gravity of Urine by Test strip</td><td>1.0</td><td>1.01 - 1.03</td><td>L</td><td>{nominal}</td></tr></table></div>"
        },
        "status": "final",
        "subject": {
          "reference": "urn:uuid:99f189f2-5846-44bb-886f-f373288ce7f1",
          "display": "Victor Lagarde"
        },
        "effectiveDateTime": "2020-09-04T04:48:18Z",
        "specimen": {
          "reference": "urn:uuid:196387c0-4710-479b-95ba-7b2f352e1ec3"
        }
      }
    },
    {
      "fullUrl": "urn:uuid:223ce4e8-d1a9-49c6-9619-40fb6fb031ea",
      "resource": {
        "resourceType": "Observation",
        "id": "223ce4e8-d1a9-49c6-9619-40fb6fb031ea",
        "meta": {
          "profile": [
            "http://hl7.eu/fhir/laboratory/StructureDefinition/Observation-resultslab-eu-lab"
          ]
        },
        "performer": [
          {
            "display": "The Central European Lab"
          }
        ],
        "category": [
          {
            "coding": [
              {
                "system": "http://terminology.hl7.org/CodeSystem/observation-category",
                "code": "laboratory"
              }
            ]
          }
        ],
        "code": {
          "coding": [
            {
              "code": "5803-2",
              "system": "http://loinc.org",
              "display": "pH of Urine by Test strip"
            }
          ],
          "text": "pH of Urine by Test strip"
        },
        "valueQuantity": {
          "system": "http://unitsofmeasure.org",
          "value": 5.6,
          "unit": "pH",
          "code": "pH"
        },
        "referenceRange": [
          {
            "low": {
              "value": 4.5,
              "code": "pH",
              "system": "http://unitsofmeasure.org"
            }
          },
          {
            "high": {
              "value": 7.5,
              "code": "pH",
              "system": "http://unitsofmeasure.org"
            }
          }
        ],
        "text": {
          "status": "generated",
          "div": "<div xmlns=\"http://www.w3.org/1999/xhtml\"><table class=\"hl7__eu__lab__report\"><tr><th>Test</th><th>04-Sep-2020</th><th>Reference&#xA0;Range</th><th>Unit</th></tr><tr><td>pH of Urine by Test strip</td><td>5.6</td><td>4.5 - 7.5</td><td></td><td>pH</td></tr></table></div>"
        },
        "status": "final",
        "subject": {
          "reference": "urn:uuid:99f189f2-5846-44bb-886f-f373288ce7f1",
          "display": "Victor Lagarde"
        },
        "effectiveDateTime": "2020-09-04T04:48:18Z",
        "specimen": {
          "reference": "urn:uuid:196387c0-4710-479b-95ba-7b2f352e1ec3"
        }
      }
    },
    {
      "fullUrl": "urn:uuid:a679e58d-fe82-459d-9326-9bf06166b13a",
      "resource": {
        "resourceType": "Observation",
        "id": "a679e58d-fe82-459d-9326-9bf06166b13a",
        "meta": {
          "profile": [
            "http://hl7.eu/fhir/laboratory/StructureDefinition/Observation-resultslab-eu-lab"
          ]
        },
        "performer": [
          {
            "display": "The Central European Lab"
          }
        ],
        "category": [
          {
            "coding": [
              {
                "system": "http://terminology.hl7.org/CodeSystem/observation-category",
                "code": "laboratory"
              }
            ]
          }
        ],
        "code": {
          "coding": [
            {
              "code": "5804-0",
              "system": "http://loinc.org",
              "display": "Protein [Mass/volume] in Urine by Test strip"
            }
          ],
          "text": "Protein [Mass/volume] in Urine by Test strip"
        },
        "valueQuantity": {
          "system": "http://unitsofmeasure.org",
          "value": 211.7,
          "unit": "mg/dL",
          "code": "mg/dL"
        },
        "referenceRange": [
          {
            "low": {
              "value": 0,
              "code": "mg/dL",
              "system": "http://unitsofmeasure.org"
            }
          },
          {
            "high": {
              "value": 149,
              "code": "mg/dL",
              "system": "http://unitsofmeasure.org"
            }
          }
        ],
        "interpretation": [
          {
            "coding": [
              {
                "code": "H",
                "system": "http://terminology.hl7.org/CodeSystem/v3-ObservationInterpretation",
                "display": "High"
              }
            ]
          }
        ],
        "text": {
          "status": "generated",
          "div": "<div xmlns=\"http://www.w3.org/1999/xhtml\"><table class=\"hl7__eu__lab__report\"><tr><th>Test</th><th>04-Sep-2020</th><th>Reference&#xA0;Range</th><th>Unit</th></tr><tr><td>Protein [Mass/volume] in Urine by Test strip</td><td>211.7</td><td>0 - 149</td><td>H</td><td>mg/dL</td></tr></table></div>"
        },
        "status": "final",
        "subject": {
          "reference": "urn:uuid:99f189f2-5846-44bb-886f-f373288ce7f1",
          "display": "Victor Lagarde"
        },
        "effectiveDateTime": "2020-09-04T04:48:18Z",
        "specimen": {
          "reference": "urn:uuid:196387c0-4710-479b-95ba-7b2f352e1ec3"
        }
      }
    },
    {
      "fullUrl": "urn:uuid:146cccdf-eee3-481d-b930-3e2a64208954",
      "resource": {
        "resourceType": "Observation",
        "id": "146cccdf-eee3-481d-b930-3e2a64208954",
        "meta": {
          "profile": [
            "http://hl7.eu/fhir/laboratory/StructureDefinition/Observation-resultslab-eu-lab"
          ]
        },
        "performer": [
          {
            "display": "The Central European Lab"
          }
        ],
        "category": [
          {
            "coding": [
              {
                "system": "http://terminology.hl7.org/CodeSystem/observation-category",
                "code": "laboratory"
              }
            ]
          }
        ],
        "code": {
          "coding": [
            {
              "code": "20454-5",
              "system": "http://loinc.org",
              "display": "Protein [Presence] in Urine by Test strip"
            }
          ],
          "text": "Protein [Presence] in Urine by Test strip"
        },
        "text": {
          "status": "generated",
          "div": "<div xmlns=\"http://www.w3.org/1999/xhtml\"><table class=\"hl7__eu__lab__report\"><tr><th>Test</th><th>04-Sep-2020</th><th>Reference&#xA0;Range</th><th>Unit</th></tr><tr><td>Protein [Presence] in Urine by Test strip</td></tr></table></div>"
        },
        "status": "final",
        "subject": {
          "reference": "urn:uuid:99f189f2-5846-44bb-886f-f373288ce7f1",
          "display": "Victor Lagarde"
        },
        "effectiveDateTime": "2020-09-04T04:48:18Z",
        "specimen": {
          "reference": "urn:uuid:196387c0-4710-479b-95ba-7b2f352e1ec3"
        }
      }
    },
    {
      "fullUrl": "urn:uuid:b1954bfd-69ad-4d9e-8683-d448c9034100",
      "resource": {
        "resourceType": "Observation",
        "id": "b1954bfd-69ad-4d9e-8683-d448c9034100",
        "meta": {
          "profile": [
            "http://hl7.eu/fhir/laboratory/StructureDefinition/Observation-resultslab-eu-lab"
          ]
        },
        "performer": [
          {
            "display": "The Central European Lab"
          }
        ],
        "category": [
          {
            "coding": [
              {
                "system": "http://terminology.hl7.org/CodeSystem/observation-category",
                "code": "laboratory"
              }
            ]
          }
        ],
        "code": {
          "coding": [
            {
              "code": "5802-4",
              "system": "http://loinc.org",
              "display": "Nitrite [Presence] in Urine by Test strip"
            }
          ],
          "text": "Nitrite [Presence] in Urine by Test strip"
        },
        "text": {
          "status": "generated",
          "div": "<div xmlns=\"http://www.w3.org/1999/xhtml\"><table class=\"hl7__eu__lab__report\"><tr><th>Test</th><th>04-Sep-2020</th><th>Reference&#xA0;Range</th><th>Unit</th></tr><tr><td>Nitrite [Presence] in Urine by Test strip</td></tr></table></div>"
        },
        "status": "final",
        "subject": {
          "reference": "urn:uuid:99f189f2-5846-44bb-886f-f373288ce7f1",
          "display": "Victor Lagarde"
        },
        "effectiveDateTime": "2020-09-04T04:48:18Z",
        "specimen": {
          "reference": "urn:uuid:196387c0-4710-479b-95ba-7b2f352e1ec3"
        }
      }
    },
    {
      "fullUrl": "urn:uuid:a9de5a98-94b6-4f2c-9d64-c32f53d34b3a",
      "resource": {
        "resourceType": "Observation",
        "id": "a9de5a98-94b6-4f2c-9d64-c32f53d34b3a",
        "meta": {
          "profile": [
            "http://hl7.eu/fhir/laboratory/StructureDefinition/Observation-resultslab-eu-lab"
          ]
        },
        "performer": [
          {
            "display": "The Central European Lab"
          }
        ],
        "category": [
          {
            "coding": [
              {
                "system": "http://terminology.hl7.org/CodeSystem/observation-category",
                "code": "laboratory"
              }
            ]
          }
        ],
        "code": {
          "coding": [
            {
              "code": "5794-3",
              "system": "http://loinc.org",
              "display": "Hemoglobin [Presence] in Urine by Test strip"
            }
          ],
          "text": "Hemoglobin [Presence] in Urine by Test strip"
        },
        "text": {
          "status": "generated",
          "div": "<div xmlns=\"http://www.w3.org/1999/xhtml\"><table class=\"hl7__eu__lab__report\"><tr><th>Test</th><th>04-Sep-2020</th><th>Reference&#xA0;Range</th><th>Unit</th></tr><tr><td>Hemoglobin [Presence] in Urine by Test strip</td></tr></table></div>"
        },
        "status": "final",
        "subject": {
          "reference": "urn:uuid:99f189f2-5846-44bb-886f-f373288ce7f1",
          "display": "Victor Lagarde"
        },
        "effectiveDateTime": "2020-09-04T04:48:18Z",
        "specimen": {
          "reference": "urn:uuid:196387c0-4710-479b-95ba-7b2f352e1ec3"
        }
      }
    },
    {
      "fullUrl": "urn:uuid:8d42ed73-6b03-4f1e-9a2d-cb72b1b2413f",
      "resource": {
        "resourceType": "Observation",
        "id": "8d42ed73-6b03-4f1e-9a2d-cb72b1b2413f",
        "meta": {
          "profile": [
            "http://hl7.eu/fhir/laboratory/StructureDefinition/Observation-resultslab-eu-lab"
          ]
        },
        "performer": [
          {
            "display": "The Central European Lab"
          }
        ],
        "category": [
          {
            "coding": [
              {
                "system": "http://terminology.hl7.org/CodeSystem/observation-category",
                "code": "laboratory"
              }
            ]
          }
        ],
        "code": {
          "coding": [
            {
              "code": "5799-2",
              "system": "http://loinc.org",
              "display": "Leukocyte esterase [Presence] in Urine by Test strip"
            }
          ],
          "text": "Leukocyte esterase [Presence] in Urine by Test strip"
        },
        "text": {
          "status": "generated",
          "div": "<div xmlns=\"http://www.w3.org/1999/xhtml\"><table class=\"hl7__eu__lab__report\"><tr><th>Test</th><th>04-Sep-2020</th><th>Reference&#xA0;Range</th><th>Unit</th></tr><tr><td>Leukocyte esterase [Presence] in Urine by Test strip</td></tr></table></div>"
        },
        "status": "final",
        "subject": {
          "reference": "urn:uuid:99f189f2-5846-44bb-886f-f373288ce7f1",
          "display": "Victor Lagarde"
        },
        "effectiveDateTime": "2020-09-04T04:48:18Z",
        "specimen": {
          "reference": "urn:uuid:196387c0-4710-479b-95ba-7b2f352e1ec3"
        }
      }
    },
    {
      "fullUrl": "urn:uuid:ba5287f0-d2ac-4952-95d2-78eb9dd02233",
      "resource": {
        "resourceType": "Observation",
        "id": "ba5287f0-d2ac-4952-95d2-78eb9dd02233",
        "meta": {
          "profile": [
            "http://hl7.eu/fhir/laboratory/StructureDefinition/Observation-resultslab-eu-lab"
          ]
        },
        "performer": [
          {
            "display": "The Central European Lab"
          }
        ],
        "category": [
          {
            "coding": [
              {
                "system": "http://terminology.hl7.org/CodeSystem/observation-category",
                "code": "laboratory"
              }
            ]
          }
        ],
        "code": {
          "coding": [
            {
              "code": "4548-4",
              "system": "http://loinc.org",
              "display": "Hemoglobin A1c/Hemoglobin.total in Blood"
            }
          ],
          "text": "Hemoglobin A1c/Hemoglobin.total in Blood"
        },
        "valueQuantity": {
          "system": "http://unitsofmeasure.org",
          "value": 3.1,
          "unit": "%",
          "code": "%"
        },
        "referenceRange": [
          {
            "low": {
              "value": 4.3,
              "code": "%",
              "system": "http://unitsofmeasure.org"
            }
          },
          {
            "high": {
              "value": 6,
              "code": "%",
              "system": "http://unitsofmeasure.org"
            }
          }
        ],
        "interpretation": [
          {
            "coding": [
              {
                "code": "L",
                "system": "http://terminology.hl7.org/CodeSystem/v3-ObservationInterpretation",
                "display": "Low"
              }
            ]
          }
        ],
        "text": {
          "status": "generated",
          "div": "<div xmlns=\"http://www.w3.org/1999/xhtml\"><table class=\"hl7__eu__lab__report\"><tr><th>Test</th><th>04-Sep-2020</th><th>Reference&#xA0;Range</th><th>Unit</th></tr><tr><td>Hemoglobin A1c/Hemoglobin.total in Blood</td><td>3.1</td><td>4.3 - 6</td><td>L</td><td>%</td></tr></table></div>"
        },
        "status": "final",
        "subject": {
          "reference": "urn:uuid:99f189f2-5846-44bb-886f-f373288ce7f1",
          "display": "Victor Lagarde"
        },
        "effectiveDateTime": "2020-09-04T04:48:18Z",
        "specimen": {
          "reference": "urn:uuid:709df6cb-57fd-43f2-bcee-460d34baa4e5"
        }
      }
    },
    {
      "fullUrl": "urn:uuid:a7f9061c-8b95-48a0-a3cf-b1362bc4ffa6",
      "resource": {
        "resourceType": "Observation",
        "id": "a7f9061c-8b95-48a0-a3cf-b1362bc4ffa6",
        "meta": {
          "profile": [
            "http://hl7.eu/fhir/laboratory/StructureDefinition/Observation-resultslab-eu-lab"
          ]
        },
        "performer": [
          {
            "display": "The Central European Lab"
          }
        ],
        "category": [
          {
            "coding": [
              {
                "system": "http://terminology.hl7.org/CodeSystem/observation-category",
                "code": "laboratory"
              }
            ]
          }
        ],
        "code": {
          "coding": [
            {
              "code": "2339-0",
              "system": "http://loinc.org",
              "display": "Glucose [Mass/volume] in Blood"
            }
          ],
          "text": "Glucose [Mass/volume] in Blood"
        },
        "valueQuantity": {
          "system": "http://unitsofmeasure.org",
          "value": 68.9,
          "unit": "mg/dL",
          "code": "mg/dL"
        },
        "referenceRange": [
          {
            "low": {
              "value": 70,
              "code": "mg/dL",
              "system": "http://unitsofmeasure.org"
            }
          },
          {
            "high": {
              "value": 140,
              "code": "mg/dL",
              "system": "http://unitsofmeasure.org"
            }
          }
        ],
        "interpretation": [
          {
            "coding": [
              {
                "code": "L",
                "system": "http://terminology.hl7.org/CodeSystem/v3-ObservationInterpretation",
                "display": "Low"
              }
            ]
          }
        ],
        "text": {
          "status": "generated",
          "div": "<div xmlns=\"http://www.w3.org/1999/xhtml\"><table class=\"hl7__eu__lab__report\"><tr><th>Test</th><th>04-Sep-2020</th><th>Reference&#xA0;Range</th><th>Unit</th></tr><tr><td>Glucose [Mass/volume] in Blood</td><td>68.9</td><td>70 - 140</td><td>L</td><td>mg/dL</td></tr></table></div>"
        },
        "status": "final",
        "subject": {
          "reference": "urn:uuid:99f189f2-5846-44bb-886f-f373288ce7f1",
          "display": "Victor Lagarde"
        },
        "effectiveDateTime": "2020-09-04T04:48:18Z",
        "specimen": {
          "reference": "urn:uuid:709df6cb-57fd-43f2-bcee-460d34baa4e5"
        }
      }
    },
    {
      "fullUrl": "urn:uuid:4247f698-322d-4327-91a6-73cd2219671f",
      "resource": {
        "resourceType": "Observation",
        "id": "4247f698-322d-4327-91a6-73cd2219671f",
        "meta": {
          "profile": [
            "http://hl7.eu/fhir/laboratory/StructureDefinition/Observation-resultslab-eu-lab"
          ]
        },
        "performer": [
          {
            "display": "The Central European Lab"
          }
        ],
        "category": [
          {
            "coding": [
              {
                "system": "http://terminology.hl7.org/CodeSystem/observation-category",
                "code": "laboratory"
              }
            ]
          }
        ],
        "code": {
          "coding": [
            {
              "code": "6299-2",
              "system": "http://loinc.org",
              "display": "Urea nitrogen [Mass/volume] in Blood"
            }
          ],
          "text": "Urea nitrogen [Mass/volume] in Blood"
        },
        "valueQuantity": {
          "system": "http://unitsofmeasure.org",
          "value": 12.3,
          "unit": "mg/dL",
          "code": "mg/dL"
        },
        "referenceRange": [
          {
            "low": {
              "value": 7,
              "code": "mg/dL",
              "system": "http://unitsofmeasure.org"
            }
          },
          {
            "high": {
              "value": 20,
              "code": "mg/dL",
              "system": "http://unitsofmeasure.org"
            }
          }
        ],
        "text": {
          "status": "generated",
          "div": "<div xmlns=\"http://www.w3.org/1999/xhtml\"><table class=\"hl7__eu__lab__report\"><tr><th>Test</th><th>04-Sep-2020</th><th>Reference&#xA0;Range</th><th>Unit</th></tr><tr><td>Urea nitrogen [Mass/volume] in Blood</td><td>12.3</td><td>7 - 20</td><td></td><td>mg/dL</td></tr></table></div>"
        },
        "status": "final",
        "subject": {
          "reference": "urn:uuid:99f189f2-5846-44bb-886f-f373288ce7f1",
          "display": "Victor Lagarde"
        },
        "effectiveDateTime": "2020-09-04T04:48:18Z",
        "specimen": {
          "reference": "urn:uuid:709df6cb-57fd-43f2-bcee-460d34baa4e5"
        }
      }
    },
    {
      "fullUrl": "urn:uuid:f04907a0-6698-405f-b73c-fa79eb48d976",
      "resource": {
        "resourceType": "Observation",
        "id": "f04907a0-6698-405f-b73c-fa79eb48d976",
        "meta": {
          "profile": [
            "http://hl7.eu/fhir/laboratory/StructureDefinition/Observation-resultslab-eu-lab"
          ]
        },
        "performer": [
          {
            "display": "The Central European Lab"
          }
        ],
        "category": [
          {
            "coding": [
              {
                "system": "http://terminology.hl7.org/CodeSystem/observation-category",
                "code": "laboratory"
              }
            ]
          }
        ],
        "code": {
          "coding": [
            {
              "code": "38483-4",
              "system": "http://loinc.org",
              "display": "Creatinine [Mass/volume] in Blood"
            }
          ],
          "text": "Creatinine [Mass/volume] in Blood"
        },
        "valueQuantity": {
          "system": "http://unitsofmeasure.org",
          "value": 4.7,
          "unit": "mg/dL",
          "code": "mg/dL"
        },
        "referenceRange": [
          {
            "low": {
              "value": 0.9,
              "code": "mg/dL",
              "system": "http://unitsofmeasure.org"
            }
          },
          {
            "high": {
              "value": 1.3,
              "code": "mg/dL",
              "system": "http://unitsofmeasure.org"
            }
          }
        ],
        "interpretation": [
          {
            "coding": [
              {
                "code": "H",
                "system": "http://terminology.hl7.org/CodeSystem/v3-ObservationInterpretation",
                "display": "High"
              }
            ]
          }
        ],
        "text": {
          "status": "generated",
          "div": "<div xmlns=\"http://www.w3.org/1999/xhtml\"><table class=\"hl7__eu__lab__report\"><tr><th>Test</th><th>04-Sep-2020</th><th>Reference&#xA0;Range</th><th>Unit</th></tr><tr><td>Creatinine [Mass/volume] in Blood</td><td>4.7</td><td>0.9 - 1.3</td><td>H</td><td>mg/dL</td></tr></table></div>"
        },
        "status": "final",
        "subject": {
          "reference": "urn:uuid:99f189f2-5846-44bb-886f-f373288ce7f1",
          "display": "Victor Lagarde"
        },
        "effectiveDateTime": "2020-09-04T04:48:18Z",
        "specimen": {
          "reference": "urn:uuid:709df6cb-57fd-43f2-bcee-460d34baa4e5"
        }
      }
    },
    {
      "fullUrl": "urn:uuid:9cafe86a-7c84-4b9c-8d82-fdad9caaac7d",
      "resource": {
        "resourceType": "Observation",
        "id": "9cafe86a-7c84-4b9c-8d82-fdad9caaac7d",
        "meta": {
          "profile": [
            "http://hl7.eu/fhir/laboratory/StructureDefinition/Observation-resultslab-eu-lab"
          ]
        },
        "performer": [
          {
            "display": "The Central European Lab"
          }
        ],
        "category": [
          {
            "coding": [
              {
                "system": "http://terminology.hl7.org/CodeSystem/observation-category",
                "code": "laboratory"
              }
            ]
          }
        ],
        "code": {
          "coding": [
            {
              "code": "49765-1",
              "system": "http://loinc.org",
              "display": "Calcium [Mass/volume] in Blood"
            }
          ],
          "text": "Calcium [Mass/volume] in Blood"
        },
        "valueQuantity": {
          "system": "http://unitsofmeasure.org",
          "value": 9.8,
          "unit": "mg/dL",
          "code": "mg/dL"
        },
        "referenceRange": [
          {
            "low": {
              "value": 8.5,
              "code": "mg/dL",
              "system": "http://unitsofmeasure.org"
            }
          },
          {
            "high": {
              "value": 10.5,
              "code": "mg/dL",
              "system": "http://unitsofmeasure.org"
            }
          }
        ],
        "text": {
          "status": "generated",
          "div": "<div xmlns=\"http://www.w3.org/1999/xhtml\"><table class=\"hl7__eu__lab__report\"><tr><th>Test</th><th>04-Sep-2020</th><th>Reference&#xA0;Range</th><th>Unit</th></tr><tr><td>Calcium [Mass/volume] in Blood</td><td>9.8</td><td>8.5 - 10.5</td><td></td><td>mg/dL</td></tr></table></div>"
        },
        "status": "final",
        "subject": {
          "reference": "urn:uuid:99f189f2-5846-44bb-886f-f373288ce7f1",
          "display": "Victor Lagarde"
        },
        "effectiveDateTime": "2020-09-04T04:48:18Z",
        "specimen": {
          "reference": "urn:uuid:709df6cb-57fd-43f2-bcee-460d34baa4e5"
        }
      }
    },
    {
      "fullUrl": "urn:uuid:702115a5-fcfe-4a5d-910b-1b06c9231ab5",
      "resource": {
        "resourceType": "Observation",
        "id": "702115a5-fcfe-4a5d-910b-1b06c9231ab5",
        "meta": {
          "profile": [
            "http://hl7.eu/fhir/laboratory/StructureDefinition/Observation-resultslab-eu-lab"
          ]
        },
        "performer": [
          {
            "display": "The Central European Lab"
          }
        ],
        "category": [
          {
            "coding": [
              {
                "system": "http://terminology.hl7.org/CodeSystem/observation-category",
                "code": "laboratory"
              }
            ]
          }
        ],
        "code": {
          "coding": [
            {
              "code": "2947-0",
              "system": "http://loinc.org",
              "display": "Sodium [Moles/volume] in Blood"
            }
          ],
          "text": "Sodium [Moles/volume] in Blood"
        },
        "valueQuantity": {
          "system": "http://unitsofmeasure.org",
          "value": 141.2,
          "unit": "mmol/L",
          "code": "mmol/L"
        },
        "referenceRange": [
          {
            "low": {
              "value": 135,
              "code": "mmol/L",
              "system": "http://unitsofmeasure.org"
            }
          },
          {
            "high": {
              "value": 145,
              "code": "mmol/L",
              "system": "http://unitsofmeasure.org"
            }
          }
        ],
        "text": {
          "status": "generated",
          "div": "<div xmlns=\"http://www.w3.org/1999/xhtml\"><table class=\"hl7__eu__lab__report\"><tr><th>Test</th><th>04-Sep-2020</th><th>Reference&#xA0;Range</th><th>Unit</th></tr><tr><td>Sodium [Moles/volume] in Blood</td><td>141.2</td><td>135 - 145</td><td></td><td>mmol/L</td></tr></table></div>"
        },
        "status": "final",
        "subject": {
          "reference": "urn:uuid:99f189f2-5846-44bb-886f-f373288ce7f1",
          "display": "Victor Lagarde"
        },
        "effectiveDateTime": "2020-09-04T04:48:18Z",
        "specimen": {
          "reference": "urn:uuid:709df6cb-57fd-43f2-bcee-460d34baa4e5"
        }
      }
    },
    {
      "fullUrl": "urn:uuid:599d64a6-3bff-43f8-a7da-3d558bf8764e",
      "resource": {
        "resourceType": "Observation",
        "id": "599d64a6-3bff-43f8-a7da-3d558bf8764e",
        "meta": {
          "profile": [
            "http://hl7.eu/fhir/laboratory/StructureDefinition/Observation-resultslab-eu-lab"
          ]
        },
        "performer": [
          {
            "display": "The Central European Lab"
          }
        ],
        "category": [
          {
            "coding": [
              {
                "system": "http://terminology.hl7.org/CodeSystem/observation-category",
                "code": "laboratory"
              }
            ]
          }
        ],
        "code": {
          "coding": [
            {
              "code": "6298-4",
              "system": "http://loinc.org",
              "display": "Potassium [Moles/volume] in Blood"
            }
          ],
          "text": "Potassium [Moles/volume] in Blood"
        },
        "valueQuantity": {
          "system": "http://unitsofmeasure.org",
          "value": 4.8,
          "unit": "mmol/L",
          "code": "mmol/L"
        },
        "referenceRange": [
          {
            "low": {
              "value": 3.5,
              "code": "mmol/L",
              "system": "http://unitsofmeasure.org"
            }
          },
          {
            "high": {
              "value": 5.1,
              "code": "mmol/L",
              "system": "http://unitsofmeasure.org"
            }
          }
        ],
        "text": {
          "status": "generated",
          "div": "<div xmlns=\"http://www.w3.org/1999/xhtml\"><table class=\"hl7__eu__lab__report\"><tr><th>Test</th><th>04-Sep-2020</th><th>Reference&#xA0;Range</th><th>Unit</th></tr><tr><td>Potassium [Moles/volume] in Blood</td><td>4.8</td><td>3.5 - 5.1</td><td></td><td>mmol/L</td></tr></table></div>"
        },
        "status": "final",
        "subject": {
          "reference": "urn:uuid:99f189f2-5846-44bb-886f-f373288ce7f1",
          "display": "Victor Lagarde"
        },
        "effectiveDateTime": "2020-09-04T04:48:18Z",
        "specimen": {
          "reference": "urn:uuid:709df6cb-57fd-43f2-bcee-460d34baa4e5"
        }
      }
    },
    {
      "fullUrl": "urn:uuid:db23ab05-ecbe-4af2-a86e-293c15fa06d8",
      "resource": {
        "resourceType": "Observation",
        "id": "db23ab05-ecbe-4af2-a86e-293c15fa06d8",
        "meta": {
          "profile": [
            "http://hl7.eu/fhir/laboratory/StructureDefinition/Observation-resultslab-eu-lab"
          ]
        },
        "performer": [
          {
            "display": "The Central European Lab"
          }
        ],
        "category": [
          {
            "coding": [
              {
                "system": "http://terminology.hl7.org/CodeSystem/observation-category",
                "code": "laboratory"
              }
            ]
          }
        ],
        "code": {
          "coding": [
            {
              "code": "2069-3",
              "system": "http://loinc.org",
              "display": "Chloride [Moles/volume] in Blood"
            }
          ],
          "text": "Chloride [Moles/volume] in Blood"
        },
        "valueQuantity": {
          "system": "http://unitsofmeasure.org",
          "value": 109.5,
          "unit": "mmol/L",
          "code": "mmol/L"
        },
        "referenceRange": [
          {
            "low": {
              "value": 98,
              "code": "mmol/L",
              "system": "http://unitsofmeasure.org"
            }
          },
          {
            "high": {
              "value": 108,
              "code": "mmol/L",
              "system": "http://unitsofmeasure.org"
            }
          }
        ],
        "interpretation": [
          {
            "coding": [
              {
                "code": "H",
                "system": "http://terminology.hl7.org/CodeSystem/v3-ObservationInterpretation",
                "display": "High"
              }
            ]
          }
        ],
        "text": {
          "status": "generated",
          "div": "<div xmlns=\"http://www.w3.org/1999/xhtml\"><table class=\"hl7__eu__lab__report\"><tr><th>Test</th><th>04-Sep-2020</th><th>Reference&#xA0;Range</th><th>Unit</th></tr><tr><td>Chloride [Moles/volume] in Blood</td><td>109.5</td><td>98 - 108</td><td>H</td><td>mmol/L</td></tr></table></div>"
        },
        "status": "final",
        "subject": {
          "reference": "urn:uuid:99f189f2-5846-44bb-886f-f373288ce7f1",
          "display": "Victor Lagarde"
        },
        "effectiveDateTime": "2020-09-04T04:48:18Z",
        "specimen": {
          "reference": "urn:uuid:709df6cb-57fd-43f2-bcee-460d34baa4e5"
        }
      }
    },
    {
      "fullUrl": "urn:uuid:e8b9436f-a772-47f3-958c-b5399aff046e",
      "resource": {
        "resourceType": "Observation",
        "id": "e8b9436f-a772-47f3-958c-b5399aff046e",
        "meta": {
          "profile": [
            "http://hl7.eu/fhir/laboratory/StructureDefinition/Observation-resultslab-eu-lab"
          ]
        },
        "performer": [
          {
            "display": "The Central European Lab"
          }
        ],
        "category": [
          {
            "coding": [
              {
                "system": "http://terminology.hl7.org/CodeSystem/observation-category",
                "code": "laboratory"
              }
            ]
          }
        ],
        "code": {
          "coding": [
            {
              "code": "20565-8",
              "system": "http://loinc.org",
              "display": "Carbon dioxide, total [Moles/volume] in Blood"
            }
          ],
          "text": "Carbon dioxide, total [Moles/volume] in Blood"
        },
        "valueQuantity": {
          "system": "http://unitsofmeasure.org",
          "value": 20.1,
          "unit": "mmol/L",
          "code": "mmol/L"
        },
        "referenceRange": [
          {
            "low": {
              "value": 22,
              "code": "mmol/L",
              "system": "http://unitsofmeasure.org"
            }
          },
          {
            "high": {
              "value": 29,
              "code": "mmol/L",
              "system": "http://unitsofmeasure.org"
            }
          }
        ],
        "interpretation": [
          {
            "coding": [
              {
                "code": "L",
                "system": "http://terminology.hl7.org/CodeSystem/v3-ObservationInterpretation",
                "display": "Low"
              }
            ]
          }
        ],
        "text": {
          "status": "generated",
          "div": "<div xmlns=\"http://www.w3.org/1999/xhtml\"><table class=\"hl7__eu__lab__report\"><tr><th>Test</th><th>04-Sep-2020</th><th>Reference&#xA0;Range</th><th>Unit</th></tr><tr><td>Carbon dioxide, total [Moles/volume] in Blood</td><td>20.1</td><td>22 - 29</td><td>L</td><td>mmol/L</td></tr></table></div>"
        },
        "status": "final",
        "subject": {
          "reference": "urn:uuid:99f189f2-5846-44bb-886f-f373288ce7f1",
          "display": "Victor Lagarde"
        },
        "effectiveDateTime": "2020-09-04T04:48:18Z",
        "specimen": {
          "reference": "urn:uuid:709df6cb-57fd-43f2-bcee-460d34baa4e5"
        }
      }
    },
    {
      "fullUrl": "urn:uuid:beb0bc9b-3d0b-4cd7-b1d3-3bcf790e06c5",
      "resource": {
        "resourceType": "Device",
        "id": "beb0bc9b-3d0b-4cd7-b1d3-3bcf790e06c5",
        "deviceName": [
          {
            "name": "SYNDERAI Synthetic Generator",
            "type": "manufacturer-name"
          }
        ],
        "version": [
          {
            "value": "5.0"
          }
        ],
        "text": {
          "status": "generated",
          "div": "<div xmlns=\"http://www.w3.org/1999/xhtml\">SYNDERAI Synthetic Generator v5.0</div>"
        },
        "status": "active\"",
        "distinctIdentifier": "synderai-generator-50",
        "manufacturer": "SYNDERAI Project"
      }
    },
    {
      "fullUrl": "urn:uuid:6a3daaaf-4b9d-445b-b482-21db58287959",
      "resource": {
        "resourceType": "Provenance",
        "id": "6a3daaaf-4b9d-445b-b482-21db58287959",
        "target": [
          {
            "reference": "Patient/99f189f2-5846-44bb-886f-f373288ce7f1"
          },
          {
            "reference": "Bundle/802e296e-8f2e-4a83-8ea8-baf812c50a8f"
          },
          {
            "reference": "Composition/216ebc4e-9329-40fd-85b4-581fb5631046"
          },
          {
            "reference": "PractitionerRole/b64accff-ad00-45b2-89bd-564db784e9f1"
          },
          {
            "reference": "Practitioner/1cdf421d-bbd3-4aff-827f-02b0054dd2a0"
          },
          {
            "reference": "PractitionerRole/3355599a-0d46-4691-b74e-628708cf8afa"
          },
          {
            "reference": "Organization/edaa358e-88de-4f9a-aa90-c0fbba1ec0af"
          }
        ],
        "activity": {
          "text": "Synthetic Example Data Generation"
        },
        "policy": [
          "https://synderai.net/synderai-synthetic-data-policy"
        ],
        "agent": [
          {
            "type": {
              "text": "author"
            },
            "who": {
              "reference": "Device/beb0bc9b-3d0b-4cd7-b1d3-3bcf790e06c5"
            }
          }
        ],
        "reason": [
          {
            "text": "Interoperability Testing and Training (non-clinical use)"
          }
        ],
        "text": {
          "status": "generated",
          "div": "<div xmlns=\"http://www.w3.org/1999/xhtml\">Provenance for SYNDERAI Synthetic Example Data Resource</div>"
        },
        "recorded": "2020-09-04T06:48:18Z"
      }
    },
    {
      "fullUrl": "urn:uuid:b64accff-ad00-45b2-89bd-564db784e9f1",
      "resource": {
        "resourceType": "PractitionerRole",
        "id": "b64accff-ad00-45b2-89bd-564db784e9f1",
        "meta": {
          "profile": [
            "http://hl7.eu/fhir/base/StructureDefinition/practitionerRole-eu"
          ]
        },
        "text": {
          "status": "generated",
          "div": "<div xmlns=\"http://www.w3.org/1999/xhtml\">Laboratory Role Id: b64accff-ad00-45b2-89bd-564db784e9f1</div>"
        },
        "practitioner": {
          "reference": "urn:uuid:1cdf421d-bbd3-4aff-827f-02b0054dd2a0"
        }
      }
    },
    {
      "fullUrl": "urn:uuid:1cdf421d-bbd3-4aff-827f-02b0054dd2a0",
      "resource": {
        "resourceType": "Practitioner",
        "id": "1cdf421d-bbd3-4aff-827f-02b0054dd2a0",
        "meta": {
          "profile": [
            "http://hl7.eu/fhir/base/StructureDefinition/practitioner-eu"
          ]
        },
        "identifier": [
          {
            "assigner": {
              "display": "HL7 Europe"
            },
            "system": "urn:oid:2.16.840.1.113883.2.51.999",
            "value": "9f42913f-900b-4bb5-b7fc-93b784894494"
          }
        ],
        "name": [
          {
            "prefix": [
              "dr"
            ],
            "given": [
              "Ex"
            ],
            "family": "Ample"
          }
        ],
        "address": [
          {
            "line": [
              "Laboratoire Central Européenne",
              "Boulevard du Jardin Botanique 32"
            ],
            "postalCode": "1000",
            "city": "Brussels",
            "country": "Belgium"
          }
        ],
        "text": {
          "status": "generated",
          "div": "<div xmlns=\"http://www.w3.org/1999/xhtml\">Laboratory: Laboratoire Central Européenne, 1000 Brussels, Belgium</div>"
        }
      }
    }
  ],
  "type": "document",
  "timestamp": "2020-09-04T06:48:18Z"
}
