{
  "resourceType": "Bundle",
  "id": "8b51ea46-dcc5-4698-bd48-8381e40e3da8",
  "meta": {
    "profile": [
      "http://hl7.eu/fhir/laboratory/StructureDefinition/Bundle-eu-lab"
    ]
  },
  "identifier": {
    "assigner": {
      "display": "HL7 Europe"
    },
    "system": "urn:oid:2.16.840.1.113883.2.51.999",
    "value": "9c7ee909-d82c-4052-ad24-27741f80f6f2"
  },
  "entry": [
    {
      "fullUrl": "urn:uuid:161016f6-9c3b-4097-a4c7-e433d63bcd73",
      "resource": {
        "resourceType": "Composition",
        "id": "161016f6-9c3b-4097-a4c7-e433d63bcd73",
        "meta": {
          "profile": [
            "http://hl7.eu/fhir/laboratory/StructureDefinition/Composition-eu-lab"
          ]
        },
        "identifier": {
          "assigner": {
            "display": "HL7 Europe"
          },
          "system": "urn:oid:2.16.840.1.113883.2.51.999",
          "value": "a7423ea9-3157-4834-85d6-e0e46699005b"
        },
        "author": [
          {
            "reference": "urn:uuid:ce9a08c7-37ef-41f9-8ab0-bc20fe04357b"
          }
        ],
        "category": [
          {
            "coding": [
              {
                "code": "26436-6",
                "system": "http://loinc.org",
                "display": "Laboratory studies (set)"
              }
            ]
          }
        ],
        "type": {
          "coding": [
            {
              "code": "11502-2",
              "system": "http://loinc.org",
              "display": "Laboratory report"
            }
          ],
          "text": "Laboratory Report"
        },
        "section": [
          {
            "code": {
              "coding": [
                {
                  "code": "26436-6",
                  "system": "http://loinc.org",
                  "display": "Laboratory studies (set)"
                }
              ],
              "text": "Laboratory studies"
            },
            "section": [
              {
                "code": {
                  "coding": [
                    {
                      "code": "$18719-5",
                      "system": "http://loinc.org",
                      "display": "Chemistry studies (set)"
                    }
                  ],
                  "text": "Chemistry"
                },
                "entry": [
                  {
                    "reference": "urn:uuid:9a129bd6-87bd-45cb-ae4c-117c3f499cb0"
                  },
                  {
                    "reference": "urn:uuid:2c48265d-6e61-419c-bc41-30d3f496b28e"
                  },
                  {
                    "reference": "urn:uuid:047958ed-9e58-4f28-be74-0151ab190a0f"
                  },
                  {
                    "reference": "urn:uuid:9596dcc6-1486-4df0-83f0-288fdc46aee9"
                  },
                  {
                    "reference": "urn:uuid:8277252d-a786-4937-af83-d373e46c75bb"
                  },
                  {
                    "reference": "urn:uuid:76da1cec-e35a-41f4-8869-4df593046cf4"
                  },
                  {
                    "reference": "urn:uuid:5b1d1a77-fdd2-451a-bcc3-ea9b2e232603"
                  },
                  {
                    "reference": "urn:uuid:008bf350-74c5-4869-be22-d18447831b3f"
                  },
                  {
                    "reference": "urn:uuid:cbf139b0-6a80-4717-acbe-476597754a95"
                  },
                  {
                    "reference": "urn:uuid:f4337165-8c33-4f01-9c78-59b952a6ffe4"
                  },
                  {
                    "reference": "urn:uuid:2e5235eb-b6c5-4f4f-a111-a6c0d054242d"
                  },
                  {
                    "reference": "urn:uuid:d383136e-8808-4af4-8c44-032c3e9bc417"
                  },
                  {
                    "reference": "urn:uuid:253ad60d-afe4-4660-9512-e8c093ece826"
                  },
                  {
                    "reference": "urn:uuid:5490cabe-c00e-4c3c-9288-3873dca76a22"
                  },
                  {
                    "reference": "urn:uuid:7f172aa7-fdd1-4770-a138-0003b07165ca"
                  },
                  {
                    "reference": "urn:uuid:835b8a46-0caa-4e9b-b03b-6326f480e6ed"
                  },
                  {
                    "reference": "urn:uuid:ca0d81d5-05cd-4419-acf2-5248f1cf30d3"
                  },
                  {
                    "reference": "urn:uuid:cf31637d-180f-4094-a6b1-d9a2b33cec63"
                  },
                  {
                    "reference": "urn:uuid:db0fa7ee-bdde-45b9-b275-b4edaa3910c0"
                  }
                ],
                "text": {
                  "status": "generated",
                  "div": "<div xmlns=\"http://www.w3.org/1999/xhtml\"><h3>Chemistry</h3><table class=\"hl7__eu__lab__report\"><thead><tr><th>Test</th><th>24-NOV-2021</th><th>Reference&#xA0;Range</th><th>Unit</th></tr></thead><tbody><tr><td>Glucose [Mass/volume] in Blood</td><td>92.3</td><td>70 - 140</td><td>mg/dL</td></tr><tr><td>Urea nitrogen [Mass/volume] in Blood</td><td>7.4</td><td>7 - 25</td><td>mg/dL</td></tr><tr><td>Creatinine [Mass/volume] in Blood</td><td><strong>2.6 H</strong></td><td>0.6 - 1.1</td><td>mg/dL</td></tr><tr><td>Calcium [Mass/volume] in Blood</td><td>9.5</td><td>8.6 - 10.4</td><td>mg/dL</td></tr><tr><td>Sodium [Moles/volume] in Blood</td><td>140.3</td><td>135 - 145</td><td>mmol/L</td></tr><tr><td>Potassium [Moles/volume] in Blood</td><td>4.9</td><td>3.5 - 5.3</td><td>mmol/L</td></tr><tr><td>Chloride [Moles/volume] in Blood</td><td><strong>109.2 H</strong></td><td>98 - 108</td><td>mmol/L</td></tr><tr><td>Carbon dioxide, total [Moles/volume] in Blood</td><td>27.3</td><td>22 - 32</td><td>mmol/L</td></tr><tr><td>Protein [Mass/volume] in Serum or Plasma</td><td>7.8</td><td>6.6 - 8.3</td><td>g/dL</td></tr><tr><td>Albumin [Mass/volume] in Serum or Plasma</td><td>5.5</td><td>3.5 - 5.5</td><td>g/dL</td></tr><tr><td>Globulin [Mass/volume] in Serum by calculation</td><td>2.6</td><td>2.2 - 3.7</td><td>g/L</td></tr><tr><td>Bilirubin.total [Mass/volume] in Serum or Plasma</td><td>1.2</td><td>0.3 - 1.2</td><td>mg/dL</td></tr><tr><td>Alkaline phosphatase [Enzymatic activity/volume] in Serum or Plasma</td><td>129.5</td><td>40 - 130</td><td>U/L</td></tr><tr><td>Alanine aminotransferase [Enzymatic activity/volume] in Serum or Plasma</td><td>45.0</td><td>7 - 55</td><td>U/L</td></tr><tr><td>Aspartate aminotransferase [Enzymatic activity/volume] in Serum or Plasma</td><td><strong>8.5 L</strong></td><td>10 - 40</td><td>U/L</td></tr><tr><td>Cholesterol [Mass/volume] in Serum or Plasma</td><td><strong>204.2 H</strong></td><td>125 - 200</td><td>mg/dL</td></tr><tr><td>Triglyceride [Mass/volume] in Serum or Plasma</td><td>164.4</td><td>10 - 175</td><td>mg/dL</td></tr><tr><td>Cholesterol in LDL [Mass/volume] in Serum or Plasma by Direct assay</td><td>97.0</td><td>0 - 130</td><td>mg/dL</td></tr><tr><td>Cholesterol in HDL [Mass/volume] in Serum or Plasma</td><td>57.7</td><td>50 - 100</td><td>mg/dL</td></tr></tbody></table></div>"
                },
                "title": "Chemistry"
              }
            ],
            "title": "Laboratory Report"
          },
          {
            "text": {
              "status": "generated",
              "div": "<div xmlns=\"http://www.w3.org/1999/xhtml\"><h3>Annotation</h3><table class=\"hl7__eu__lab__report\"><tr><th>Conclusion and Recommendations based on this report and previous findings known to us</th></tr><tr><td>Renal function is impaired, as indicated by elevated creatinine. Mild hyperchloremia and borderline high cholesterol are present. Liver enzymes and other electrolytes are within or near normal limits. Glucose, protein, and albumin are normal. No acute abnormalities detected aside from chronic kidney dysfunction and mild dyslipidemia; recommend clinical correlation and monitoring of renal function.</td></tr></table></div>"
            },
            "code": {
              "coding": [
                {
                  "system": "http://loinc.org",
                  "code": "48767-8",
                  "display": "Annotation comment"
                }
              ]
            },
            "title": "Annotation comment"
          }
        ],
        "status": "final",
        "subject": {
          "reference": "urn:uuid:7758791e-6c4f-4f10-b32e-00525d88541b",
          "display": "Ludmila Vávrová"
        },
        "date": "2021-11-24T04:51:38Z",
        "title": "Laboratory Report",
        "confidentiality": "N"
      }
    },
    {
      "fullUrl": "urn:uuid:61e4114c-fdc9-4bdc-b914-0b210f5d24c3",
      "resource": {
        "resourceType": "DiagnosticReport",
        "id": "61e4114c-fdc9-4bdc-b914-0b210f5d24c3",
        "meta": {
          "profile": [
            "http://hl7.eu/fhir/laboratory/StructureDefinition/DiagnosticReport-eu-lab"
          ]
        },
        "identifier": [
          {
            "assigner": {
              "display": "HL7 Europe"
            },
            "system": "urn:oid:2.16.840.1.113883.2.51.999",
            "value": "784b5470-70cd-4e2c-9aa1-93dcc714ea5f"
          }
        ],
        "extension": [
          {
            "url": "http://hl7.org/fhir/5.0/StructureDefinition/extension-DiagnosticReport.composition",
            "valueReference": {
              "reference": "urn:uuid:a7423ea9-3157-4834-85d6-e0e46699005b"
            }
          }
        ],
        "category": [
          {
            "coding": [
              {
                "code": "26436-6",
                "system": "http://loinc.org",
                "display": "Laboratory studies (set)"
              }
            ]
          }
        ],
        "specimen": [
          {
            "reference": "urn:uuid:178ca4ab-9ce3-46c0-bc31-df007baf12ed"
          },
          {
            "reference": "urn:uuid:5da1ad63-d061-49fb-abee-10ded90ade4d"
          },
          {
            "reference": "urn:uuid:c07757b0-4dcf-4cc8-842c-2b68fde08b29"
          }
        ],
        "result": [
          {
            "reference": "urn:uuid:9a129bd6-87bd-45cb-ae4c-117c3f499cb0"
          },
          {
            "reference": "urn:uuid:2c48265d-6e61-419c-bc41-30d3f496b28e"
          },
          {
            "reference": "urn:uuid:047958ed-9e58-4f28-be74-0151ab190a0f"
          },
          {
            "reference": "urn:uuid:9596dcc6-1486-4df0-83f0-288fdc46aee9"
          },
          {
            "reference": "urn:uuid:8277252d-a786-4937-af83-d373e46c75bb"
          },
          {
            "reference": "urn:uuid:76da1cec-e35a-41f4-8869-4df593046cf4"
          },
          {
            "reference": "urn:uuid:5b1d1a77-fdd2-451a-bcc3-ea9b2e232603"
          },
          {
            "reference": "urn:uuid:008bf350-74c5-4869-be22-d18447831b3f"
          },
          {
            "reference": "urn:uuid:cbf139b0-6a80-4717-acbe-476597754a95"
          },
          {
            "reference": "urn:uuid:f4337165-8c33-4f01-9c78-59b952a6ffe4"
          },
          {
            "reference": "urn:uuid:2e5235eb-b6c5-4f4f-a111-a6c0d054242d"
          },
          {
            "reference": "urn:uuid:d383136e-8808-4af4-8c44-032c3e9bc417"
          },
          {
            "reference": "urn:uuid:253ad60d-afe4-4660-9512-e8c093ece826"
          },
          {
            "reference": "urn:uuid:5490cabe-c00e-4c3c-9288-3873dca76a22"
          },
          {
            "reference": "urn:uuid:7f172aa7-fdd1-4770-a138-0003b07165ca"
          },
          {
            "reference": "urn:uuid:835b8a46-0caa-4e9b-b03b-6326f480e6ed"
          },
          {
            "reference": "urn:uuid:ca0d81d5-05cd-4419-acf2-5248f1cf30d3"
          },
          {
            "reference": "urn:uuid:cf31637d-180f-4094-a6b1-d9a2b33cec63"
          },
          {
            "reference": "urn:uuid:db0fa7ee-bdde-45b9-b275-b4edaa3910c0"
          }
        ],
        "status": "registered",
        "code": {
          "coding": [
            {
              "code": "11502-2",
              "system": "http://loinc.org",
              "display": "Laboratory report"
            }
          ]
        },
        "subject": {
          "reference": "urn:uuid:7758791e-6c4f-4f10-b32e-00525d88541b",
          "display": "Ludmila Vávrová"
        }
      }
    },
    {
      "fullUrl": "urn:uuid:7758791e-6c4f-4f10-b32e-00525d88541b",
      "resource": {
        "resourceType": "Patient",
        "id": "7758791e-6c4f-4f10-b32e-00525d88541b",
        "meta": {
          "security": [
            {
              "system": "http://terminology.hl7.org/CodeSystem/v3-ActReason",
              "code": "HTEST"
            },
            {
              "system": "http://terminology.hl7.org/CodeSystem/v3-ActReason",
              "code": "TRAIN"
            }
          ],
          "tag": [
            {
              "system": "https://synderai.net/fhir/CodeSystem/tags",
              "code": "synthetic",
              "display": "SYNDERAI Synthetic data"
            }
          ],
          "profile": [
            "http://hl7.eu/fhir/base/StructureDefinition/patient-eu-core"
          ]
        },
        "identifier": [
          {
            "type": {
              "coding": [
                {
                  "code": "PT",
                  "system": "http://terminology.hl7.org/CodeSystem/v2-0203"
                }
              ]
            },
            "system": "http://ec.europa.eu/identifier/eci",
            "value": "1992-540676-1"
          },
          {
            "type": {
              "coding": [
                {
                  "code": "MR",
                  "system": "http://terminology.hl7.org/CodeSystem/v2-0203"
                }
              ]
            },
            "system": "http://local.setting.eu/identifier",
            "value": "7c533aae-6e7f-89aa-dfdc-8ff900a5990b"
          }
        ],
        "name": [
          {
            "family": "Vávrová"
          },
          {
            "given": [
              "Ludmila"
            ]
          },
          {
            "text": "Ludmila Vávrová"
          }
        ],
        "address": [
          {
            "line": [
              "Šárovo Kolo 116"
            ],
            "use": "home",
            "type": "physical",
            "postalCode": "29471",
            "city": "Bakov nad Jizerou",
            "country": "Czechia"
          }
        ],
        "telecom": [
          {
            "system": "phone",
            "value": "00420 607 610 889"
          }
        ],
        "extension": [
          {
            "url": "http://hl7.org/fhir/StructureDefinition/patient-nationality",
            "valueCodeableConcept": {
              "coding": [
                {
                  "code": "CZ",
                  "system": "http://hl7.org/fhir/ValueSet/country"
                }
              ]
            }
          }
        ],
        "text": {
          "status": "generated",
          "div": "<div xmlns=\"http://www.w3.org/1999/xhtml\"><table class=\"hl7__ips\"><tr><td>Ludmila Vávrová</td><td>female</td><td>08-Aug-1940</td></tr></table></div>"
        },
        "gender": "female",
        "birthDate": "1940-08-08"
      }
    },
    {
      "fullUrl": "urn:uuid:ef346b17-a37c-408e-ade0-66f42378a8fb",
      "resource": {
        "resourceType": "ServiceRequest",
        "id": "ef346b17-a37c-408e-ade0-66f42378a8fb",
        "meta": {
          "profile": [
            "http://hl7.eu/fhir/laboratory/StructureDefinition/ServiceRequest-eu-lab"
          ]
        },
        "identifier": [
          {
            "system": "http://example.org",
            "value": "5f116db4-aff7-408d-9a4c-6ed6eb6d5f24"
          }
        ],
        "specimen": [
          {
            "reference": "urn:uuid:178ca4ab-9ce3-46c0-bc31-df007baf12ed"
          },
          {
            "reference": "urn:uuid:5da1ad63-d061-49fb-abee-10ded90ade4d"
          },
          {
            "reference": "urn:uuid:c07757b0-4dcf-4cc8-842c-2b68fde08b29"
          }
        ],
        "reasonCode": [
          {
            "coding": [
              {
                "code": "414545008",
                "system": "http://snomed.info/sct",
                "display": "Ischemic heart disease"
              }
            ]
          },
          {
            "coding": [
              {
                "code": "64859006",
                "system": "http://snomed.info/sct",
                "display": "Osteoporosis"
              }
            ]
          },
          {
            "coding": [
              {
                "code": "6525002",
                "system": "http://snomed.info/sct",
                "display": "Dependent drug abuse"
              }
            ]
          },
          {
            "coding": [
              {
                "code": "55822004",
                "system": "http://snomed.info/sct",
                "display": "Hyperlipidemia"
              }
            ]
          },
          {
            "coding": [
              {
                "code": "124171000119105",
                "system": "http://snomed.info/sct",
                "display": "Chronic intractable migraine without aura"
              }
            ]
          },
          {
            "coding": [
              {
                "code": "196416002",
                "system": "http://snomed.info/sct",
                "display": "Impacted molars"
              }
            ]
          },
          {
            "coding": [
              {
                "code": "239872002",
                "system": "http://snomed.info/sct",
                "display": "Osteoarthritis of hip"
              }
            ]
          },
          {
            "coding": [
              {
                "code": "40055000",
                "system": "http://snomed.info/sct",
                "display": "Chronic sinusitis"
              }
            ]
          }
        ],
        "status": "active",
        "intent": "order",
        "code": {
          "coding": [
            {
              "code": "108252007",
              "system": "http://snomed.info/sct",
              "display": "Laboratory procedure"
            }
          ]
        },
        "subject": {
          "reference": "urn:uuid:7758791e-6c4f-4f10-b32e-00525d88541b",
          "display": "Ludmila Vávrová"
        },
        "requester": {
          "reference": "urn:uuid:f555554a-1e87-451d-89a9-ac5c1ef9bb3c"
        }
      }
    },
    {
      "fullUrl": "urn:uuid:f555554a-1e87-451d-89a9-ac5c1ef9bb3c",
      "resource": {
        "resourceType": "PractitionerRole",
        "id": "f555554a-1e87-451d-89a9-ac5c1ef9bb3c",
        "meta": {
          "profile": [
            "http://hl7.eu/fhir/base/StructureDefinition/practitionerRole-eu"
          ]
        },
        "text": {
          "status": "generated",
          "div": "<div xmlns=\"http://www.w3.org/1999/xhtml\">Provider Role Id: f555554a-1e87-451d-89a9-ac5c1ef9bb3c</div>"
        },
        "organization": {
          "reference": "urn:uuid:09d25e82-d7c8-468b-b191-76e020349dea"
        }
      }
    },
    {
      "fullUrl": "urn:uuid:09d25e82-d7c8-468b-b191-76e020349dea",
      "resource": {
        "resourceType": "Organization",
        "id": "09d25e82-d7c8-468b-b191-76e020349dea",
        "meta": {
          "profile": [
            "http://hl7.eu/fhir/base/StructureDefinition/organization-eu"
          ]
        },
        "identifier": [
          {
            "assigner": {
              "display": "HL7 Europe"
            },
            "system": "urn:oid:2.16.840.1.113883.2.51.999",
            "value": "1a8965e3-f657-4767-bbf0-73bedf3e9226"
          }
        ],
        "address": [
          {
            "city": "Kosmonosy",
            "postalCode": "293 06",
            "country": "Czechia"
          }
        ],
        "text": {
          "status": "generated",
          "div": "<div xmlns=\"http://www.w3.org/1999/xhtml\">Provider Organization: Psychiatrická nemocnice Kosmonosy</div>"
        },
        "name": "Psychiatrická nemocnice Kosmonosy"
      }
    },
    {
      "fullUrl": "urn:uuid:178ca4ab-9ce3-46c0-bc31-df007baf12ed",
      "resource": {
        "resourceType": "Specimen",
        "id": "178ca4ab-9ce3-46c0-bc31-df007baf12ed",
        "meta": {
          "profile": [
            "http://hl7.eu/fhir/laboratory/StructureDefinition/Specimen-eu-lab"
          ]
        },
        "collection": {
          "collectedDateTime": "2021-11-24"
        },
        "text": {
          "status": "generated",
          "div": "<div xmlns=\"http://www.w3.org/1999/xhtml\"><table class=\"hl7__eu__lab__report\"><tr><th>Specimen</th><th>Collection Date</th></tr><tr><td>Whole blood specimen (specimen)</td><td><span class=\"nb\">24-Nov-2021</span></td></tr></table></div>"
        },
        "type": {
          "coding": [
            {
              "code": "258580003",
              "system": "http://snomed.info/sct",
              "display": "Whole blood specimen (specimen)"
            }
          ]
        }
      }
    },
    {
      "fullUrl": "urn:uuid:5da1ad63-d061-49fb-abee-10ded90ade4d",
      "resource": {
        "resourceType": "Specimen",
        "id": "5da1ad63-d061-49fb-abee-10ded90ade4d",
        "meta": {
          "profile": [
            "http://hl7.eu/fhir/laboratory/StructureDefinition/Specimen-eu-lab"
          ]
        },
        "collection": {
          "collectedDateTime": "2021-11-24"
        },
        "text": {
          "status": "generated",
          "div": "<div xmlns=\"http://www.w3.org/1999/xhtml\"><table class=\"hl7__eu__lab__report\"><tr><th>Specimen</th><th>Collection Date</th></tr><tr><td>Acellular blood (serum or plasma) specimen</td><td><span class=\"nb\">24-Nov-2021</span></td></tr></table></div>"
        },
        "type": {
          "coding": [
            {
              "code": "122592007",
              "system": "http://snomed.info/sct",
              "display": "Acellular blood (serum or plasma) specimen"
            }
          ]
        }
      }
    },
    {
      "fullUrl": "urn:uuid:c07757b0-4dcf-4cc8-842c-2b68fde08b29",
      "resource": {
        "resourceType": "Specimen",
        "id": "c07757b0-4dcf-4cc8-842c-2b68fde08b29",
        "meta": {
          "profile": [
            "http://hl7.eu/fhir/laboratory/StructureDefinition/Specimen-eu-lab"
          ]
        },
        "collection": {
          "collectedDateTime": "2021-11-24"
        },
        "text": {
          "status": "generated",
          "div": "<div xmlns=\"http://www.w3.org/1999/xhtml\"><table class=\"hl7__eu__lab__report\"><tr><th>Specimen</th><th>Collection Date</th></tr><tr><td>Serum specimen</td><td><span class=\"nb\">24-Nov-2021</span></td></tr></table></div>"
        },
        "type": {
          "coding": [
            {
              "code": "119364003",
              "system": "http://snomed.info/sct",
              "display": "Serum specimen"
            }
          ]
        }
      }
    },
    {
      "fullUrl": "urn:uuid:9a129bd6-87bd-45cb-ae4c-117c3f499cb0",
      "resource": {
        "resourceType": "Observation",
        "id": "9a129bd6-87bd-45cb-ae4c-117c3f499cb0",
        "meta": {
          "profile": [
            "http://hl7.eu/fhir/laboratory/StructureDefinition/Observation-resultslab-eu-lab"
          ]
        },
        "performer": [
          {
            "display": "The Central European Lab"
          }
        ],
        "category": [
          {
            "coding": [
              {
                "system": "http://terminology.hl7.org/CodeSystem/observation-category",
                "code": "laboratory"
              }
            ]
          }
        ],
        "code": {
          "coding": [
            {
              "code": "2339-0",
              "system": "http://loinc.org",
              "display": "Glucose [Mass/volume] in Blood"
            }
          ],
          "text": "Glucose [Mass/volume] in Blood"
        },
        "valueQuantity": {
          "system": "http://unitsofmeasure.org",
          "value": 92.3,
          "unit": "mg/dL",
          "code": "mg/dL"
        },
        "referenceRange": [
          {
            "low": {
              "value": 70,
              "code": "mg/dL",
              "system": "http://unitsofmeasure.org"
            }
          },
          {
            "high": {
              "value": 140,
              "code": "mg/dL",
              "system": "http://unitsofmeasure.org"
            }
          }
        ],
        "text": {
          "status": "generated",
          "div": "<div xmlns=\"http://www.w3.org/1999/xhtml\"><table class=\"hl7__eu__lab__report\"><tr><th>Test</th><th>24-Nov-2021</th><th>Reference&#xA0;Range</th><th>Unit</th></tr><tr><td>Glucose [Mass/volume] in Blood</td><td>92.3</td><td>70 - 140</td><td></td><td>mg/dL</td></tr></table></div>"
        },
        "status": "final",
        "subject": {
          "reference": "urn:uuid:7758791e-6c4f-4f10-b32e-00525d88541b",
          "display": "Ludmila Vávrová"
        },
        "effectiveDateTime": "2021-11-24T03:51:38Z",
        "specimen": {
          "reference": "urn:uuid:178ca4ab-9ce3-46c0-bc31-df007baf12ed"
        }
      }
    },
    {
      "fullUrl": "urn:uuid:2c48265d-6e61-419c-bc41-30d3f496b28e",
      "resource": {
        "resourceType": "Observation",
        "id": "2c48265d-6e61-419c-bc41-30d3f496b28e",
        "meta": {
          "profile": [
            "http://hl7.eu/fhir/laboratory/StructureDefinition/Observation-resultslab-eu-lab"
          ]
        },
        "performer": [
          {
            "display": "The Central European Lab"
          }
        ],
        "category": [
          {
            "coding": [
              {
                "system": "http://terminology.hl7.org/CodeSystem/observation-category",
                "code": "laboratory"
              }
            ]
          }
        ],
        "code": {
          "coding": [
            {
              "code": "6299-2",
              "system": "http://loinc.org",
              "display": "Urea nitrogen [Mass/volume] in Blood"
            }
          ],
          "text": "Urea nitrogen [Mass/volume] in Blood"
        },
        "valueQuantity": {
          "system": "http://unitsofmeasure.org",
          "value": 7.4,
          "unit": "mg/dL",
          "code": "mg/dL"
        },
        "referenceRange": [
          {
            "low": {
              "value": 7,
              "code": "mg/dL",
              "system": "http://unitsofmeasure.org"
            }
          },
          {
            "high": {
              "value": 25,
              "code": "mg/dL",
              "system": "http://unitsofmeasure.org"
            }
          }
        ],
        "text": {
          "status": "generated",
          "div": "<div xmlns=\"http://www.w3.org/1999/xhtml\"><table class=\"hl7__eu__lab__report\"><tr><th>Test</th><th>24-Nov-2021</th><th>Reference&#xA0;Range</th><th>Unit</th></tr><tr><td>Urea nitrogen [Mass/volume] in Blood</td><td>7.4</td><td>7 - 25</td><td></td><td>mg/dL</td></tr></table></div>"
        },
        "status": "final",
        "subject": {
          "reference": "urn:uuid:7758791e-6c4f-4f10-b32e-00525d88541b",
          "display": "Ludmila Vávrová"
        },
        "effectiveDateTime": "2021-11-24T03:51:38Z",
        "specimen": {
          "reference": "urn:uuid:178ca4ab-9ce3-46c0-bc31-df007baf12ed"
        }
      }
    },
    {
      "fullUrl": "urn:uuid:047958ed-9e58-4f28-be74-0151ab190a0f",
      "resource": {
        "resourceType": "Observation",
        "id": "047958ed-9e58-4f28-be74-0151ab190a0f",
        "meta": {
          "profile": [
            "http://hl7.eu/fhir/laboratory/StructureDefinition/Observation-resultslab-eu-lab"
          ]
        },
        "performer": [
          {
            "display": "The Central European Lab"
          }
        ],
        "category": [
          {
            "coding": [
              {
                "system": "http://terminology.hl7.org/CodeSystem/observation-category",
                "code": "laboratory"
              }
            ]
          }
        ],
        "code": {
          "coding": [
            {
              "code": "38483-4",
              "system": "http://loinc.org",
              "display": "Creatinine [Mass/volume] in Blood"
            }
          ],
          "text": "Creatinine [Mass/volume] in Blood"
        },
        "valueQuantity": {
          "system": "http://unitsofmeasure.org",
          "value": 2.6,
          "unit": "mg/dL",
          "code": "mg/dL"
        },
        "referenceRange": [
          {
            "low": {
              "value": 0.6,
              "code": "mg/dL",
              "system": "http://unitsofmeasure.org"
            }
          },
          {
            "high": {
              "value": 1.1,
              "code": "mg/dL",
              "system": "http://unitsofmeasure.org"
            }
          }
        ],
        "interpretation": [
          {
            "coding": [
              {
                "code": "H",
                "system": "http://terminology.hl7.org/CodeSystem/v3-ObservationInterpretation",
                "display": "High"
              }
            ]
          }
        ],
        "text": {
          "status": "generated",
          "div": "<div xmlns=\"http://www.w3.org/1999/xhtml\"><table class=\"hl7__eu__lab__report\"><tr><th>Test</th><th>24-Nov-2021</th><th>Reference&#xA0;Range</th><th>Unit</th></tr><tr><td>Creatinine [Mass/volume] in Blood</td><td>2.6</td><td>0.6 - 1.1</td><td>H</td><td>mg/dL</td></tr></table></div>"
        },
        "status": "final",
        "subject": {
          "reference": "urn:uuid:7758791e-6c4f-4f10-b32e-00525d88541b",
          "display": "Ludmila Vávrová"
        },
        "effectiveDateTime": "2021-11-24T03:51:38Z",
        "specimen": {
          "reference": "urn:uuid:178ca4ab-9ce3-46c0-bc31-df007baf12ed"
        }
      }
    },
    {
      "fullUrl": "urn:uuid:9596dcc6-1486-4df0-83f0-288fdc46aee9",
      "resource": {
        "resourceType": "Observation",
        "id": "9596dcc6-1486-4df0-83f0-288fdc46aee9",
        "meta": {
          "profile": [
            "http://hl7.eu/fhir/laboratory/StructureDefinition/Observation-resultslab-eu-lab"
          ]
        },
        "performer": [
          {
            "display": "The Central European Lab"
          }
        ],
        "category": [
          {
            "coding": [
              {
                "system": "http://terminology.hl7.org/CodeSystem/observation-category",
                "code": "laboratory"
              }
            ]
          }
        ],
        "code": {
          "coding": [
            {
              "code": "49765-1",
              "system": "http://loinc.org",
              "display": "Calcium [Mass/volume] in Blood"
            }
          ],
          "text": "Calcium [Mass/volume] in Blood"
        },
        "valueQuantity": {
          "system": "http://unitsofmeasure.org",
          "value": 9.5,
          "unit": "mg/dL",
          "code": "mg/dL"
        },
        "referenceRange": [
          {
            "low": {
              "value": 8.6,
              "code": "mg/dL",
              "system": "http://unitsofmeasure.org"
            }
          },
          {
            "high": {
              "value": 10.4,
              "code": "mg/dL",
              "system": "http://unitsofmeasure.org"
            }
          }
        ],
        "text": {
          "status": "generated",
          "div": "<div xmlns=\"http://www.w3.org/1999/xhtml\"><table class=\"hl7__eu__lab__report\"><tr><th>Test</th><th>24-Nov-2021</th><th>Reference&#xA0;Range</th><th>Unit</th></tr><tr><td>Calcium [Mass/volume] in Blood</td><td>9.5</td><td>8.6 - 10.4</td><td></td><td>mg/dL</td></tr></table></div>"
        },
        "status": "final",
        "subject": {
          "reference": "urn:uuid:7758791e-6c4f-4f10-b32e-00525d88541b",
          "display": "Ludmila Vávrová"
        },
        "effectiveDateTime": "2021-11-24T03:51:38Z",
        "specimen": {
          "reference": "urn:uuid:178ca4ab-9ce3-46c0-bc31-df007baf12ed"
        }
      }
    },
    {
      "fullUrl": "urn:uuid:8277252d-a786-4937-af83-d373e46c75bb",
      "resource": {
        "resourceType": "Observation",
        "id": "8277252d-a786-4937-af83-d373e46c75bb",
        "meta": {
          "profile": [
            "http://hl7.eu/fhir/laboratory/StructureDefinition/Observation-resultslab-eu-lab"
          ]
        },
        "performer": [
          {
            "display": "The Central European Lab"
          }
        ],
        "category": [
          {
            "coding": [
              {
                "system": "http://terminology.hl7.org/CodeSystem/observation-category",
                "code": "laboratory"
              }
            ]
          }
        ],
        "code": {
          "coding": [
            {
              "code": "2947-0",
              "system": "http://loinc.org",
              "display": "Sodium [Moles/volume] in Blood"
            }
          ],
          "text": "Sodium [Moles/volume] in Blood"
        },
        "valueQuantity": {
          "system": "http://unitsofmeasure.org",
          "value": 140.3,
          "unit": "mmol/L",
          "code": "mmol/L"
        },
        "referenceRange": [
          {
            "low": {
              "value": 135,
              "code": "mmol/L",
              "system": "http://unitsofmeasure.org"
            }
          },
          {
            "high": {
              "value": 145,
              "code": "mmol/L",
              "system": "http://unitsofmeasure.org"
            }
          }
        ],
        "text": {
          "status": "generated",
          "div": "<div xmlns=\"http://www.w3.org/1999/xhtml\"><table class=\"hl7__eu__lab__report\"><tr><th>Test</th><th>24-Nov-2021</th><th>Reference&#xA0;Range</th><th>Unit</th></tr><tr><td>Sodium [Moles/volume] in Blood</td><td>140.3</td><td>135 - 145</td><td></td><td>mmol/L</td></tr></table></div>"
        },
        "status": "final",
        "subject": {
          "reference": "urn:uuid:7758791e-6c4f-4f10-b32e-00525d88541b",
          "display": "Ludmila Vávrová"
        },
        "effectiveDateTime": "2021-11-24T03:51:38Z",
        "specimen": {
          "reference": "urn:uuid:178ca4ab-9ce3-46c0-bc31-df007baf12ed"
        }
      }
    },
    {
      "fullUrl": "urn:uuid:76da1cec-e35a-41f4-8869-4df593046cf4",
      "resource": {
        "resourceType": "Observation",
        "id": "76da1cec-e35a-41f4-8869-4df593046cf4",
        "meta": {
          "profile": [
            "http://hl7.eu/fhir/laboratory/StructureDefinition/Observation-resultslab-eu-lab"
          ]
        },
        "performer": [
          {
            "display": "The Central European Lab"
          }
        ],
        "category": [
          {
            "coding": [
              {
                "system": "http://terminology.hl7.org/CodeSystem/observation-category",
                "code": "laboratory"
              }
            ]
          }
        ],
        "code": {
          "coding": [
            {
              "code": "6298-4",
              "system": "http://loinc.org",
              "display": "Potassium [Moles/volume] in Blood"
            }
          ],
          "text": "Potassium [Moles/volume] in Blood"
        },
        "valueQuantity": {
          "system": "http://unitsofmeasure.org",
          "value": 4.9,
          "unit": "mmol/L",
          "code": "mmol/L"
        },
        "referenceRange": [
          {
            "low": {
              "value": 3.5,
              "code": "mmol/L",
              "system": "http://unitsofmeasure.org"
            }
          },
          {
            "high": {
              "value": 5.3,
              "code": "mmol/L",
              "system": "http://unitsofmeasure.org"
            }
          }
        ],
        "text": {
          "status": "generated",
          "div": "<div xmlns=\"http://www.w3.org/1999/xhtml\"><table class=\"hl7__eu__lab__report\"><tr><th>Test</th><th>24-Nov-2021</th><th>Reference&#xA0;Range</th><th>Unit</th></tr><tr><td>Potassium [Moles/volume] in Blood</td><td>4.9</td><td>3.5 - 5.3</td><td></td><td>mmol/L</td></tr></table></div>"
        },
        "status": "final",
        "subject": {
          "reference": "urn:uuid:7758791e-6c4f-4f10-b32e-00525d88541b",
          "display": "Ludmila Vávrová"
        },
        "effectiveDateTime": "2021-11-24T03:51:38Z",
        "specimen": {
          "reference": "urn:uuid:178ca4ab-9ce3-46c0-bc31-df007baf12ed"
        }
      }
    },
    {
      "fullUrl": "urn:uuid:5b1d1a77-fdd2-451a-bcc3-ea9b2e232603",
      "resource": {
        "resourceType": "Observation",
        "id": "5b1d1a77-fdd2-451a-bcc3-ea9b2e232603",
        "meta": {
          "profile": [
            "http://hl7.eu/fhir/laboratory/StructureDefinition/Observation-resultslab-eu-lab"
          ]
        },
        "performer": [
          {
            "display": "The Central European Lab"
          }
        ],
        "category": [
          {
            "coding": [
              {
                "system": "http://terminology.hl7.org/CodeSystem/observation-category",
                "code": "laboratory"
              }
            ]
          }
        ],
        "code": {
          "coding": [
            {
              "code": "2069-3",
              "system": "http://loinc.org",
              "display": "Chloride [Moles/volume] in Blood"
            }
          ],
          "text": "Chloride [Moles/volume] in Blood"
        },
        "valueQuantity": {
          "system": "http://unitsofmeasure.org",
          "value": 109.2,
          "unit": "mmol/L",
          "code": "mmol/L"
        },
        "referenceRange": [
          {
            "low": {
              "value": 98,
              "code": "mmol/L",
              "system": "http://unitsofmeasure.org"
            }
          },
          {
            "high": {
              "value": 108,
              "code": "mmol/L",
              "system": "http://unitsofmeasure.org"
            }
          }
        ],
        "interpretation": [
          {
            "coding": [
              {
                "code": "H",
                "system": "http://terminology.hl7.org/CodeSystem/v3-ObservationInterpretation",
                "display": "High"
              }
            ]
          }
        ],
        "text": {
          "status": "generated",
          "div": "<div xmlns=\"http://www.w3.org/1999/xhtml\"><table class=\"hl7__eu__lab__report\"><tr><th>Test</th><th>24-Nov-2021</th><th>Reference&#xA0;Range</th><th>Unit</th></tr><tr><td>Chloride [Moles/volume] in Blood</td><td>109.2</td><td>98 - 108</td><td>H</td><td>mmol/L</td></tr></table></div>"
        },
        "status": "final",
        "subject": {
          "reference": "urn:uuid:7758791e-6c4f-4f10-b32e-00525d88541b",
          "display": "Ludmila Vávrová"
        },
        "effectiveDateTime": "2021-11-24T03:51:38Z",
        "specimen": {
          "reference": "urn:uuid:178ca4ab-9ce3-46c0-bc31-df007baf12ed"
        }
      }
    },
    {
      "fullUrl": "urn:uuid:008bf350-74c5-4869-be22-d18447831b3f",
      "resource": {
        "resourceType": "Observation",
        "id": "008bf350-74c5-4869-be22-d18447831b3f",
        "meta": {
          "profile": [
            "http://hl7.eu/fhir/laboratory/StructureDefinition/Observation-resultslab-eu-lab"
          ]
        },
        "performer": [
          {
            "display": "The Central European Lab"
          }
        ],
        "category": [
          {
            "coding": [
              {
                "system": "http://terminology.hl7.org/CodeSystem/observation-category",
                "code": "laboratory"
              }
            ]
          }
        ],
        "code": {
          "coding": [
            {
              "code": "20565-8",
              "system": "http://loinc.org",
              "display": "Carbon dioxide, total [Moles/volume] in Blood"
            }
          ],
          "text": "Carbon dioxide, total [Moles/volume] in Blood"
        },
        "valueQuantity": {
          "system": "http://unitsofmeasure.org",
          "value": 27.3,
          "unit": "mmol/L",
          "code": "mmol/L"
        },
        "referenceRange": [
          {
            "low": {
              "value": 22,
              "code": "mmol/L",
              "system": "http://unitsofmeasure.org"
            }
          },
          {
            "high": {
              "value": 32,
              "code": "mmol/L",
              "system": "http://unitsofmeasure.org"
            }
          }
        ],
        "text": {
          "status": "generated",
          "div": "<div xmlns=\"http://www.w3.org/1999/xhtml\"><table class=\"hl7__eu__lab__report\"><tr><th>Test</th><th>24-Nov-2021</th><th>Reference&#xA0;Range</th><th>Unit</th></tr><tr><td>Carbon dioxide, total [Moles/volume] in Blood</td><td>27.3</td><td>22 - 32</td><td></td><td>mmol/L</td></tr></table></div>"
        },
        "status": "final",
        "subject": {
          "reference": "urn:uuid:7758791e-6c4f-4f10-b32e-00525d88541b",
          "display": "Ludmila Vávrová"
        },
        "effectiveDateTime": "2021-11-24T03:51:38Z",
        "specimen": {
          "reference": "urn:uuid:178ca4ab-9ce3-46c0-bc31-df007baf12ed"
        }
      }
    },
    {
      "fullUrl": "urn:uuid:cbf139b0-6a80-4717-acbe-476597754a95",
      "resource": {
        "resourceType": "Observation",
        "id": "cbf139b0-6a80-4717-acbe-476597754a95",
        "meta": {
          "profile": [
            "http://hl7.eu/fhir/laboratory/StructureDefinition/Observation-resultslab-eu-lab"
          ]
        },
        "performer": [
          {
            "display": "The Central European Lab"
          }
        ],
        "category": [
          {
            "coding": [
              {
                "system": "http://terminology.hl7.org/CodeSystem/observation-category",
                "code": "laboratory"
              }
            ]
          }
        ],
        "code": {
          "coding": [
            {
              "code": "2885-2",
              "system": "http://loinc.org",
              "display": "Protein [Mass/volume] in Serum or Plasma"
            }
          ],
          "text": "Protein [Mass/volume] in Serum or Plasma"
        },
        "valueQuantity": {
          "system": "http://unitsofmeasure.org",
          "value": 7.8,
          "unit": "g/dL",
          "code": "g/dL"
        },
        "referenceRange": [
          {
            "low": {
              "value": 6.6,
              "code": "g/dL",
              "system": "http://unitsofmeasure.org"
            }
          },
          {
            "high": {
              "value": 8.3,
              "code": "g/dL",
              "system": "http://unitsofmeasure.org"
            }
          }
        ],
        "text": {
          "status": "generated",
          "div": "<div xmlns=\"http://www.w3.org/1999/xhtml\"><table class=\"hl7__eu__lab__report\"><tr><th>Test</th><th>24-Nov-2021</th><th>Reference&#xA0;Range</th><th>Unit</th></tr><tr><td>Protein [Mass/volume] in Serum or Plasma</td><td>7.8</td><td>6.6 - 8.3</td><td></td><td>g/dL</td></tr></table></div>"
        },
        "status": "final",
        "subject": {
          "reference": "urn:uuid:7758791e-6c4f-4f10-b32e-00525d88541b",
          "display": "Ludmila Vávrová"
        },
        "effectiveDateTime": "2021-11-24T03:51:38Z",
        "specimen": {
          "reference": "urn:uuid:5da1ad63-d061-49fb-abee-10ded90ade4d"
        }
      }
    },
    {
      "fullUrl": "urn:uuid:f4337165-8c33-4f01-9c78-59b952a6ffe4",
      "resource": {
        "resourceType": "Observation",
        "id": "f4337165-8c33-4f01-9c78-59b952a6ffe4",
        "meta": {
          "profile": [
            "http://hl7.eu/fhir/laboratory/StructureDefinition/Observation-resultslab-eu-lab"
          ]
        },
        "performer": [
          {
            "display": "The Central European Lab"
          }
        ],
        "category": [
          {
            "coding": [
              {
                "system": "http://terminology.hl7.org/CodeSystem/observation-category",
                "code": "laboratory"
              }
            ]
          }
        ],
        "code": {
          "coding": [
            {
              "code": "1751-7",
              "system": "http://loinc.org",
              "display": "Albumin [Mass/volume] in Serum or Plasma"
            }
          ],
          "text": "Albumin [Mass/volume] in Serum or Plasma"
        },
        "valueQuantity": {
          "system": "http://unitsofmeasure.org",
          "value": 5.5,
          "unit": "g/dL",
          "code": "g/dL"
        },
        "referenceRange": [
          {
            "low": {
              "value": 3.5,
              "code": "g/dL",
              "system": "http://unitsofmeasure.org"
            }
          },
          {
            "high": {
              "value": 5.5,
              "code": "g/dL",
              "system": "http://unitsofmeasure.org"
            }
          }
        ],
        "text": {
          "status": "generated",
          "div": "<div xmlns=\"http://www.w3.org/1999/xhtml\"><table class=\"hl7__eu__lab__report\"><tr><th>Test</th><th>24-Nov-2021</th><th>Reference&#xA0;Range</th><th>Unit</th></tr><tr><td>Albumin [Mass/volume] in Serum or Plasma</td><td>5.5</td><td>3.5 - 5.5</td><td></td><td>g/dL</td></tr></table></div>"
        },
        "status": "final",
        "subject": {
          "reference": "urn:uuid:7758791e-6c4f-4f10-b32e-00525d88541b",
          "display": "Ludmila Vávrová"
        },
        "effectiveDateTime": "2021-11-24T03:51:38Z",
        "specimen": {
          "reference": "urn:uuid:5da1ad63-d061-49fb-abee-10ded90ade4d"
        }
      }
    },
    {
      "fullUrl": "urn:uuid:2e5235eb-b6c5-4f4f-a111-a6c0d054242d",
      "resource": {
        "resourceType": "Observation",
        "id": "2e5235eb-b6c5-4f4f-a111-a6c0d054242d",
        "meta": {
          "profile": [
            "http://hl7.eu/fhir/laboratory/StructureDefinition/Observation-resultslab-eu-lab"
          ]
        },
        "performer": [
          {
            "display": "The Central European Lab"
          }
        ],
        "category": [
          {
            "coding": [
              {
                "system": "http://terminology.hl7.org/CodeSystem/observation-category",
                "code": "laboratory"
              }
            ]
          }
        ],
        "code": {
          "coding": [
            {
              "code": "10834-0",
              "system": "http://loinc.org",
              "display": "Globulin [Mass/volume] in Serum by calculation"
            }
          ],
          "text": "Globulin [Mass/volume] in Serum by calculation"
        },
        "valueQuantity": {
          "system": "http://unitsofmeasure.org",
          "value": 2.6,
          "unit": "g/L",
          "code": "g/L"
        },
        "referenceRange": [
          {
            "low": {
              "value": 2.2,
              "code": "g/L",
              "system": "http://unitsofmeasure.org"
            }
          },
          {
            "high": {
              "value": 3.7,
              "code": "g/L",
              "system": "http://unitsofmeasure.org"
            }
          }
        ],
        "text": {
          "status": "generated",
          "div": "<div xmlns=\"http://www.w3.org/1999/xhtml\"><table class=\"hl7__eu__lab__report\"><tr><th>Test</th><th>24-Nov-2021</th><th>Reference&#xA0;Range</th><th>Unit</th></tr><tr><td>Globulin [Mass/volume] in Serum by calculation</td><td>2.6</td><td>2.2 - 3.7</td><td></td><td>g/L</td></tr></table></div>"
        },
        "status": "final",
        "subject": {
          "reference": "urn:uuid:7758791e-6c4f-4f10-b32e-00525d88541b",
          "display": "Ludmila Vávrová"
        },
        "effectiveDateTime": "2021-11-24T03:51:38Z",
        "specimen": {
          "reference": "urn:uuid:c07757b0-4dcf-4cc8-842c-2b68fde08b29"
        }
      }
    },
    {
      "fullUrl": "urn:uuid:d383136e-8808-4af4-8c44-032c3e9bc417",
      "resource": {
        "resourceType": "Observation",
        "id": "d383136e-8808-4af4-8c44-032c3e9bc417",
        "meta": {
          "profile": [
            "http://hl7.eu/fhir/laboratory/StructureDefinition/Observation-resultslab-eu-lab"
          ]
        },
        "performer": [
          {
            "display": "The Central European Lab"
          }
        ],
        "category": [
          {
            "coding": [
              {
                "system": "http://terminology.hl7.org/CodeSystem/observation-category",
                "code": "laboratory"
              }
            ]
          }
        ],
        "code": {
          "coding": [
            {
              "code": "1975-2",
              "system": "http://loinc.org",
              "display": "Bilirubin.total [Mass/volume] in Serum or Plasma"
            }
          ],
          "text": "Bilirubin.total [Mass/volume] in Serum or Plasma"
        },
        "valueQuantity": {
          "system": "http://unitsofmeasure.org",
          "value": 1.2,
          "unit": "mg/dL",
          "code": "mg/dL"
        },
        "referenceRange": [
          {
            "low": {
              "value": 0.3,
              "code": "mg/dL",
              "system": "http://unitsofmeasure.org"
            }
          },
          {
            "high": {
              "value": 1.2,
              "code": "mg/dL",
              "system": "http://unitsofmeasure.org"
            }
          }
        ],
        "text": {
          "status": "generated",
          "div": "<div xmlns=\"http://www.w3.org/1999/xhtml\"><table class=\"hl7__eu__lab__report\"><tr><th>Test</th><th>24-Nov-2021</th><th>Reference&#xA0;Range</th><th>Unit</th></tr><tr><td>Bilirubin.total [Mass/volume] in Serum or Plasma</td><td>1.2</td><td>0.3 - 1.2</td><td></td><td>mg/dL</td></tr></table></div>"
        },
        "status": "final",
        "subject": {
          "reference": "urn:uuid:7758791e-6c4f-4f10-b32e-00525d88541b",
          "display": "Ludmila Vávrová"
        },
        "effectiveDateTime": "2021-11-24T03:51:38Z",
        "specimen": {
          "reference": "urn:uuid:5da1ad63-d061-49fb-abee-10ded90ade4d"
        }
      }
    },
    {
      "fullUrl": "urn:uuid:253ad60d-afe4-4660-9512-e8c093ece826",
      "resource": {
        "resourceType": "Observation",
        "id": "253ad60d-afe4-4660-9512-e8c093ece826",
        "meta": {
          "profile": [
            "http://hl7.eu/fhir/laboratory/StructureDefinition/Observation-resultslab-eu-lab"
          ]
        },
        "performer": [
          {
            "display": "The Central European Lab"
          }
        ],
        "category": [
          {
            "coding": [
              {
                "system": "http://terminology.hl7.org/CodeSystem/observation-category",
                "code": "laboratory"
              }
            ]
          }
        ],
        "code": {
          "coding": [
            {
              "code": "6768-6",
              "system": "http://loinc.org",
              "display": "Alkaline phosphatase [Enzymatic activity/volume] in Serum or Plasma"
            }
          ],
          "text": "Alkaline phosphatase [Enzymatic activity/volume] in Serum or Plasma"
        },
        "valueQuantity": {
          "system": "http://unitsofmeasure.org",
          "value": 129.5,
          "unit": "U/L",
          "code": "U/L"
        },
        "referenceRange": [
          {
            "low": {
              "value": 40,
              "code": "U/L",
              "system": "http://unitsofmeasure.org"
            }
          },
          {
            "high": {
              "value": 130,
              "code": "U/L",
              "system": "http://unitsofmeasure.org"
            }
          }
        ],
        "text": {
          "status": "generated",
          "div": "<div xmlns=\"http://www.w3.org/1999/xhtml\"><table class=\"hl7__eu__lab__report\"><tr><th>Test</th><th>24-Nov-2021</th><th>Reference&#xA0;Range</th><th>Unit</th></tr><tr><td>Alkaline phosphatase [Enzymatic activity/volume] in Serum or Plasma</td><td>129.5</td><td>40 - 130</td><td></td><td>U/L</td></tr></table></div>"
        },
        "status": "final",
        "subject": {
          "reference": "urn:uuid:7758791e-6c4f-4f10-b32e-00525d88541b",
          "display": "Ludmila Vávrová"
        },
        "effectiveDateTime": "2021-11-24T03:51:38Z",
        "specimen": {
          "reference": "urn:uuid:5da1ad63-d061-49fb-abee-10ded90ade4d"
        }
      }
    },
    {
      "fullUrl": "urn:uuid:5490cabe-c00e-4c3c-9288-3873dca76a22",
      "resource": {
        "resourceType": "Observation",
        "id": "5490cabe-c00e-4c3c-9288-3873dca76a22",
        "meta": {
          "profile": [
            "http://hl7.eu/fhir/laboratory/StructureDefinition/Observation-resultslab-eu-lab"
          ]
        },
        "performer": [
          {
            "display": "The Central European Lab"
          }
        ],
        "category": [
          {
            "coding": [
              {
                "system": "http://terminology.hl7.org/CodeSystem/observation-category",
                "code": "laboratory"
              }
            ]
          }
        ],
        "code": {
          "coding": [
            {
              "code": "1742-6",
              "system": "http://loinc.org",
              "display": "Alanine aminotransferase [Enzymatic activity/volume] in Serum or Plasma"
            }
          ],
          "text": "Alanine aminotransferase [Enzymatic activity/volume] in Serum or Plasma"
        },
        "valueQuantity": {
          "system": "http://unitsofmeasure.org",
          "value": 45,
          "unit": "U/L",
          "code": "U/L"
        },
        "referenceRange": [
          {
            "low": {
              "value": 7,
              "code": "U/L",
              "system": "http://unitsofmeasure.org"
            }
          },
          {
            "high": {
              "value": 55,
              "code": "U/L",
              "system": "http://unitsofmeasure.org"
            }
          }
        ],
        "text": {
          "status": "generated",
          "div": "<div xmlns=\"http://www.w3.org/1999/xhtml\"><table class=\"hl7__eu__lab__report\"><tr><th>Test</th><th>24-Nov-2021</th><th>Reference&#xA0;Range</th><th>Unit</th></tr><tr><td>Alanine aminotransferase [Enzymatic activity/volume] in Serum or Plasma</td><td>45.0</td><td>7 - 55</td><td></td><td>U/L</td></tr></table></div>"
        },
        "status": "final",
        "subject": {
          "reference": "urn:uuid:7758791e-6c4f-4f10-b32e-00525d88541b",
          "display": "Ludmila Vávrová"
        },
        "effectiveDateTime": "2021-11-24T03:51:38Z",
        "specimen": {
          "reference": "urn:uuid:5da1ad63-d061-49fb-abee-10ded90ade4d"
        }
      }
    },
    {
      "fullUrl": "urn:uuid:7f172aa7-fdd1-4770-a138-0003b07165ca",
      "resource": {
        "resourceType": "Observation",
        "id": "7f172aa7-fdd1-4770-a138-0003b07165ca",
        "meta": {
          "profile": [
            "http://hl7.eu/fhir/laboratory/StructureDefinition/Observation-resultslab-eu-lab"
          ]
        },
        "performer": [
          {
            "display": "The Central European Lab"
          }
        ],
        "category": [
          {
            "coding": [
              {
                "system": "http://terminology.hl7.org/CodeSystem/observation-category",
                "code": "laboratory"
              }
            ]
          }
        ],
        "code": {
          "coding": [
            {
              "code": "1920-8",
              "system": "http://loinc.org",
              "display": "Aspartate aminotransferase [Enzymatic activity/volume] in Serum or Plasma"
            }
          ],
          "text": "Aspartate aminotransferase [Enzymatic activity/volume] in Serum or Plasma"
        },
        "valueQuantity": {
          "system": "http://unitsofmeasure.org",
          "value": 8.5,
          "unit": "U/L",
          "code": "U/L"
        },
        "referenceRange": [
          {
            "low": {
              "value": 10,
              "code": "U/L",
              "system": "http://unitsofmeasure.org"
            }
          },
          {
            "high": {
              "value": 40,
              "code": "U/L",
              "system": "http://unitsofmeasure.org"
            }
          }
        ],
        "interpretation": [
          {
            "coding": [
              {
                "code": "L",
                "system": "http://terminology.hl7.org/CodeSystem/v3-ObservationInterpretation",
                "display": "Low"
              }
            ]
          }
        ],
        "text": {
          "status": "generated",
          "div": "<div xmlns=\"http://www.w3.org/1999/xhtml\"><table class=\"hl7__eu__lab__report\"><tr><th>Test</th><th>24-Nov-2021</th><th>Reference&#xA0;Range</th><th>Unit</th></tr><tr><td>Aspartate aminotransferase [Enzymatic activity/volume] in Serum or Plasma</td><td>8.5</td><td>10 - 40</td><td>L</td><td>U/L</td></tr></table></div>"
        },
        "status": "final",
        "subject": {
          "reference": "urn:uuid:7758791e-6c4f-4f10-b32e-00525d88541b",
          "display": "Ludmila Vávrová"
        },
        "effectiveDateTime": "2021-11-24T03:51:38Z",
        "specimen": {
          "reference": "urn:uuid:5da1ad63-d061-49fb-abee-10ded90ade4d"
        }
      }
    },
    {
      "fullUrl": "urn:uuid:835b8a46-0caa-4e9b-b03b-6326f480e6ed",
      "resource": {
        "resourceType": "Observation",
        "id": "835b8a46-0caa-4e9b-b03b-6326f480e6ed",
        "meta": {
          "profile": [
            "http://hl7.eu/fhir/laboratory/StructureDefinition/Observation-resultslab-eu-lab"
          ]
        },
        "performer": [
          {
            "display": "The Central European Lab"
          }
        ],
        "category": [
          {
            "coding": [
              {
                "system": "http://terminology.hl7.org/CodeSystem/observation-category",
                "code": "laboratory"
              }
            ]
          }
        ],
        "code": {
          "coding": [
            {
              "code": "2093-3",
              "system": "http://loinc.org",
              "display": "Cholesterol [Mass/volume] in Serum or Plasma"
            }
          ],
          "text": "Cholesterol [Mass/volume] in Serum or Plasma"
        },
        "valueQuantity": {
          "system": "http://unitsofmeasure.org",
          "value": 204.2,
          "unit": "mg/dL",
          "code": "mg/dL"
        },
        "referenceRange": [
          {
            "low": {
              "value": 125,
              "code": "mg/dL",
              "system": "http://unitsofmeasure.org"
            }
          },
          {
            "high": {
              "value": 200,
              "code": "mg/dL",
              "system": "http://unitsofmeasure.org"
            }
          }
        ],
        "interpretation": [
          {
            "coding": [
              {
                "code": "H",
                "system": "http://terminology.hl7.org/CodeSystem/v3-ObservationInterpretation",
                "display": "High"
              }
            ]
          }
        ],
        "text": {
          "status": "generated",
          "div": "<div xmlns=\"http://www.w3.org/1999/xhtml\"><table class=\"hl7__eu__lab__report\"><tr><th>Test</th><th>24-Nov-2021</th><th>Reference&#xA0;Range</th><th>Unit</th></tr><tr><td>Cholesterol [Mass/volume] in Serum or Plasma</td><td>204.2</td><td>125 - 200</td><td>H</td><td>mg/dL</td></tr></table></div>"
        },
        "status": "final",
        "subject": {
          "reference": "urn:uuid:7758791e-6c4f-4f10-b32e-00525d88541b",
          "display": "Ludmila Vávrová"
        },
        "effectiveDateTime": "2021-11-24T03:51:38Z",
        "specimen": {
          "reference": "urn:uuid:5da1ad63-d061-49fb-abee-10ded90ade4d"
        }
      }
    },
    {
      "fullUrl": "urn:uuid:ca0d81d5-05cd-4419-acf2-5248f1cf30d3",
      "resource": {
        "resourceType": "Observation",
        "id": "ca0d81d5-05cd-4419-acf2-5248f1cf30d3",
        "meta": {
          "profile": [
            "http://hl7.eu/fhir/laboratory/StructureDefinition/Observation-resultslab-eu-lab"
          ]
        },
        "performer": [
          {
            "display": "The Central European Lab"
          }
        ],
        "category": [
          {
            "coding": [
              {
                "system": "http://terminology.hl7.org/CodeSystem/observation-category",
                "code": "laboratory"
              }
            ]
          }
        ],
        "code": {
          "coding": [
            {
              "code": "2571-8",
              "system": "http://loinc.org",
              "display": "Triglyceride [Mass/volume] in Serum or Plasma"
            }
          ],
          "text": "Triglyceride [Mass/volume] in Serum or Plasma"
        },
        "valueQuantity": {
          "system": "http://unitsofmeasure.org",
          "value": 164.4,
          "unit": "mg/dL",
          "code": "mg/dL"
        },
        "referenceRange": [
          {
            "low": {
              "value": 10,
              "code": "mg/dL",
              "system": "http://unitsofmeasure.org"
            }
          },
          {
            "high": {
              "value": 175,
              "code": "mg/dL",
              "system": "http://unitsofmeasure.org"
            }
          }
        ],
        "text": {
          "status": "generated",
          "div": "<div xmlns=\"http://www.w3.org/1999/xhtml\"><table class=\"hl7__eu__lab__report\"><tr><th>Test</th><th>24-Nov-2021</th><th>Reference&#xA0;Range</th><th>Unit</th></tr><tr><td>Triglyceride [Mass/volume] in Serum or Plasma</td><td>164.4</td><td>10 - 175</td><td></td><td>mg/dL</td></tr></table></div>"
        },
        "status": "final",
        "subject": {
          "reference": "urn:uuid:7758791e-6c4f-4f10-b32e-00525d88541b",
          "display": "Ludmila Vávrová"
        },
        "effectiveDateTime": "2021-11-24T03:51:38Z",
        "specimen": {
          "reference": "urn:uuid:5da1ad63-d061-49fb-abee-10ded90ade4d"
        }
      }
    },
    {
      "fullUrl": "urn:uuid:cf31637d-180f-4094-a6b1-d9a2b33cec63",
      "resource": {
        "resourceType": "Observation",
        "id": "cf31637d-180f-4094-a6b1-d9a2b33cec63",
        "meta": {
          "profile": [
            "http://hl7.eu/fhir/laboratory/StructureDefinition/Observation-resultslab-eu-lab"
          ]
        },
        "performer": [
          {
            "display": "The Central European Lab"
          }
        ],
        "category": [
          {
            "coding": [
              {
                "system": "http://terminology.hl7.org/CodeSystem/observation-category",
                "code": "laboratory"
              }
            ]
          }
        ],
        "code": {
          "coding": [
            {
              "code": "18262-6",
              "system": "http://loinc.org",
              "display": "Cholesterol in LDL [Mass/volume] in Serum or Plasma by Direct assay"
            }
          ],
          "text": "Cholesterol in LDL [Mass/volume] in Serum or Plasma by Direct assay"
        },
        "valueQuantity": {
          "system": "http://unitsofmeasure.org",
          "value": 97,
          "unit": "mg/dL",
          "code": "mg/dL"
        },
        "referenceRange": [
          {
            "low": {
              "value": 0,
              "code": "mg/dL",
              "system": "http://unitsofmeasure.org"
            }
          },
          {
            "high": {
              "value": 130,
              "code": "mg/dL",
              "system": "http://unitsofmeasure.org"
            }
          }
        ],
        "text": {
          "status": "generated",
          "div": "<div xmlns=\"http://www.w3.org/1999/xhtml\"><table class=\"hl7__eu__lab__report\"><tr><th>Test</th><th>24-Nov-2021</th><th>Reference&#xA0;Range</th><th>Unit</th></tr><tr><td>Cholesterol in LDL [Mass/volume] in Serum or Plasma by Direct assay</td><td>97.0</td><td>0 - 130</td><td></td><td>mg/dL</td></tr></table></div>"
        },
        "status": "final",
        "subject": {
          "reference": "urn:uuid:7758791e-6c4f-4f10-b32e-00525d88541b",
          "display": "Ludmila Vávrová"
        },
        "effectiveDateTime": "2021-11-24T03:51:38Z",
        "specimen": {
          "reference": "urn:uuid:5da1ad63-d061-49fb-abee-10ded90ade4d"
        }
      }
    },
    {
      "fullUrl": "urn:uuid:db0fa7ee-bdde-45b9-b275-b4edaa3910c0",
      "resource": {
        "resourceType": "Observation",
        "id": "db0fa7ee-bdde-45b9-b275-b4edaa3910c0",
        "meta": {
          "profile": [
            "http://hl7.eu/fhir/laboratory/StructureDefinition/Observation-resultslab-eu-lab"
          ]
        },
        "performer": [
          {
            "display": "The Central European Lab"
          }
        ],
        "category": [
          {
            "coding": [
              {
                "system": "http://terminology.hl7.org/CodeSystem/observation-category",
                "code": "laboratory"
              }
            ]
          }
        ],
        "code": {
          "coding": [
            {
              "code": "2085-9",
              "system": "http://loinc.org",
              "display": "Cholesterol in HDL [Mass/volume] in Serum or Plasma"
            }
          ],
          "text": "Cholesterol in HDL [Mass/volume] in Serum or Plasma"
        },
        "valueQuantity": {
          "system": "http://unitsofmeasure.org",
          "value": 57.7,
          "unit": "mg/dL",
          "code": "mg/dL"
        },
        "referenceRange": [
          {
            "low": {
              "value": 50,
              "code": "mg/dL",
              "system": "http://unitsofmeasure.org"
            }
          },
          {
            "high": {
              "value": 100,
              "code": "mg/dL",
              "system": "http://unitsofmeasure.org"
            }
          }
        ],
        "text": {
          "status": "generated",
          "div": "<div xmlns=\"http://www.w3.org/1999/xhtml\"><table class=\"hl7__eu__lab__report\"><tr><th>Test</th><th>24-Nov-2021</th><th>Reference&#xA0;Range</th><th>Unit</th></tr><tr><td>Cholesterol in HDL [Mass/volume] in Serum or Plasma</td><td>57.7</td><td>50 - 100</td><td></td><td>mg/dL</td></tr></table></div>"
        },
        "status": "final",
        "subject": {
          "reference": "urn:uuid:7758791e-6c4f-4f10-b32e-00525d88541b",
          "display": "Ludmila Vávrová"
        },
        "effectiveDateTime": "2021-11-24T03:51:38Z",
        "specimen": {
          "reference": "urn:uuid:5da1ad63-d061-49fb-abee-10ded90ade4d"
        }
      }
    },
    {
      "fullUrl": "urn:uuid:19c3f156-28a5-444c-9bc3-2e83f04acb3d",
      "resource": {
        "resourceType": "Device",
        "id": "19c3f156-28a5-444c-9bc3-2e83f04acb3d",
        "deviceName": [
          {
            "name": "SYNDERAI Synthetic Generator",
            "type": "manufacturer-name"
          }
        ],
        "version": [
          {
            "value": "5.0"
          }
        ],
        "text": {
          "status": "generated",
          "div": "<div xmlns=\"http://www.w3.org/1999/xhtml\">SYNDERAI Synthetic Generator v5.0</div>"
        },
        "status": "active\"",
        "distinctIdentifier": "synderai-generator-50",
        "manufacturer": "SYNDERAI Project"
      }
    },
    {
      "fullUrl": "urn:uuid:2a0ce01c-63d8-4a6d-8f1a-a142e1012c1c",
      "resource": {
        "resourceType": "Provenance",
        "id": "2a0ce01c-63d8-4a6d-8f1a-a142e1012c1c",
        "target": [
          {
            "reference": "Patient/7758791e-6c4f-4f10-b32e-00525d88541b"
          },
          {
            "reference": "Bundle/8b51ea46-dcc5-4698-bd48-8381e40e3da8"
          },
          {
            "reference": "Composition/161016f6-9c3b-4097-a4c7-e433d63bcd73"
          },
          {
            "reference": "PractitionerRole/ce9a08c7-37ef-41f9-8ab0-bc20fe04357b"
          },
          {
            "reference": "Practitioner/bd08c320-5ece-4636-9eef-5195297d600e"
          },
          {
            "reference": "PractitionerRole/f555554a-1e87-451d-89a9-ac5c1ef9bb3c"
          },
          {
            "reference": "Organization/09d25e82-d7c8-468b-b191-76e020349dea"
          }
        ],
        "activity": {
          "text": "Synthetic Example Data Generation"
        },
        "policy": [
          "https://synderai.net/synderai-synthetic-data-policy"
        ],
        "agent": [
          {
            "type": {
              "text": "author"
            },
            "who": {
              "reference": "Device/19c3f156-28a5-444c-9bc3-2e83f04acb3d"
            }
          }
        ],
        "reason": [
          {
            "text": "Interoperability Testing and Training (non-clinical use)"
          }
        ],
        "text": {
          "status": "generated",
          "div": "<div xmlns=\"http://www.w3.org/1999/xhtml\">Provenance for SYNDERAI Synthetic Example Data Resource</div>"
        },
        "recorded": "2021-11-24T04:51:38Z"
      }
    },
    {
      "fullUrl": "urn:uuid:ce9a08c7-37ef-41f9-8ab0-bc20fe04357b",
      "resource": {
        "resourceType": "PractitionerRole",
        "id": "ce9a08c7-37ef-41f9-8ab0-bc20fe04357b",
        "meta": {
          "profile": [
            "http://hl7.eu/fhir/base/StructureDefinition/practitionerRole-eu"
          ]
        },
        "text": {
          "status": "generated",
          "div": "<div xmlns=\"http://www.w3.org/1999/xhtml\">Laboratory Role Id: ce9a08c7-37ef-41f9-8ab0-bc20fe04357b</div>"
        },
        "practitioner": {
          "reference": "urn:uuid:bd08c320-5ece-4636-9eef-5195297d600e"
        }
      }
    },
    {
      "fullUrl": "urn:uuid:bd08c320-5ece-4636-9eef-5195297d600e",
      "resource": {
        "resourceType": "Practitioner",
        "id": "bd08c320-5ece-4636-9eef-5195297d600e",
        "meta": {
          "profile": [
            "http://hl7.eu/fhir/base/StructureDefinition/practitioner-eu"
          ]
        },
        "identifier": [
          {
            "assigner": {
              "display": "HL7 Europe"
            },
            "system": "urn:oid:2.16.840.1.113883.2.51.999",
            "value": "61b72079-bb8f-46e1-a634-b4195b496f4e"
          }
        ],
        "name": [
          {
            "prefix": [
              "dr"
            ],
            "given": [
              "Ex"
            ],
            "family": "Ample"
          }
        ],
        "address": [
          {
            "line": [
              "Laboratoire Central Européenne",
              "Boulevard du Jardin Botanique 32"
            ],
            "postalCode": "1000",
            "city": "Brussels",
            "country": "Belgium"
          }
        ],
        "text": {
          "status": "generated",
          "div": "<div xmlns=\"http://www.w3.org/1999/xhtml\">Laboratory: Laboratoire Central Européenne, 1000 Brussels, Belgium</div>"
        }
      }
    }
  ],
  "type": "document",
  "timestamp": "2021-11-24T04:51:38Z"
}
