{
  "resourceType": "Bundle",
  "id": "3bc9f3c4-d31c-4350-b285-57b04b09cbf5",
  "meta": {
    "profile": [
      "http://hl7.eu/fhir/laboratory/StructureDefinition/Bundle-eu-lab"
    ]
  },
  "identifier": {
    "assigner": {
      "display": "HL7 Europe"
    },
    "system": "urn:oid:2.16.840.1.113883.2.51.999",
    "value": "9c7151c3-ca27-47ab-b433-5242e7297ab8"
  },
  "entry": [
    {
      "fullUrl": "urn:uuid:171e1dbb-77d2-4b7b-9625-3d032256ec43",
      "resource": {
        "resourceType": "Composition",
        "id": "171e1dbb-77d2-4b7b-9625-3d032256ec43",
        "meta": {
          "profile": [
            "http://hl7.eu/fhir/laboratory/StructureDefinition/Composition-eu-lab"
          ]
        },
        "identifier": {
          "assigner": {
            "display": "HL7 Europe"
          },
          "system": "urn:oid:2.16.840.1.113883.2.51.999",
          "value": "c3736dfe-986a-426e-adbd-39b68a46da5e"
        },
        "author": [
          {
            "reference": "urn:uuid:d03e0d05-6768-4bc5-a37b-8fd455d72064"
          }
        ],
        "category": [
          {
            "coding": [
              {
                "code": "26436-6",
                "system": "http://loinc.org",
                "display": "Laboratory studies (set)"
              }
            ]
          }
        ],
        "type": {
          "coding": [
            {
              "code": "11502-2",
              "system": "http://loinc.org",
              "display": "Laboratory report"
            }
          ],
          "text": "Laboratory Report"
        },
        "section": [
          {
            "code": {
              "coding": [
                {
                  "code": "26436-6",
                  "system": "http://loinc.org",
                  "display": "Laboratory studies (set)"
                }
              ],
              "text": "Laboratory studies"
            },
            "section": [
              {
                "code": {
                  "coding": [
                    {
                      "code": "$18719-5",
                      "system": "http://loinc.org",
                      "display": "Chemistry studies (set)"
                    }
                  ],
                  "text": "Chemistry"
                },
                "entry": [
                  {
                    "reference": "urn:uuid:05612885-e120-4592-b1dc-5f249ed2e875"
                  },
                  {
                    "reference": "urn:uuid:90f2b174-9f3c-417c-b0a6-31b162e5a504"
                  },
                  {
                    "reference": "urn:uuid:a1a0e60c-d3ff-41b5-9563-6af05badcaa4"
                  },
                  {
                    "reference": "urn:uuid:646febe1-3582-486d-9f1f-9d99c34d29c5"
                  },
                  {
                    "reference": "urn:uuid:c8f557ed-e18d-4a77-ab1a-48adecb3a0c0"
                  },
                  {
                    "reference": "urn:uuid:82db4bd9-43c2-42f6-a10f-9fe924e663ab"
                  },
                  {
                    "reference": "urn:uuid:07dbaaaa-7ba5-426f-a8b0-d3ecc0032402"
                  },
                  {
                    "reference": "urn:uuid:29c4df80-adfd-4d8d-abcd-78f498c569d2"
                  },
                  {
                    "reference": "urn:uuid:4ac3feef-c481-43b2-b7e0-35c08d25fb0d"
                  },
                  {
                    "reference": "urn:uuid:913ac8b2-e733-49ba-8fcd-ff8d99e5947a"
                  },
                  {
                    "reference": "urn:uuid:dc748eba-951b-44b1-bd5d-64ca374e8f28"
                  },
                  {
                    "reference": "urn:uuid:929e3f48-708b-475b-ac66-31fe055a3ab8"
                  },
                  {
                    "reference": "urn:uuid:21ea002b-be16-43e7-9c0c-8cac67b5611a"
                  },
                  {
                    "reference": "urn:uuid:6cf27f27-528b-4e25-ba0c-6986b2c01001"
                  }
                ],
                "text": {
                  "status": "generated",
                  "div": "<div xmlns=\"http://www.w3.org/1999/xhtml\"><h3>Chemistry</h3><table class=\"hl7__eu__lab__report\"><thead><tr><th>Test</th><th>27-APR-2020</th><th>Reference&#xA0;Range</th><th>Unit</th></tr></thead><tbody><tr><td>Hemoglobin A1c/Hemoglobin.total in Blood</td><td><strong>6.9 H</strong></td><td>4.8 - 5.7</td><td>%</td></tr><tr><td>Glucose [Mass/volume] in Blood</td><td>122.7</td><td>70 - 140</td><td>mg/dL</td></tr><tr><td>Urea nitrogen [Mass/volume] in Blood</td><td>18.9</td><td>7 - 20</td><td>mg/dL</td></tr><tr><td>Creatinine [Mass/volume] in Blood</td><td>0.8</td><td>0.6 - 1.3</td><td>mg/dL</td></tr><tr><td>Calcium [Mass/volume] in Blood</td><td>9.8</td><td>8.5 - 10.5</td><td>mg/dL</td></tr><tr><td>Sodium [Moles/volume] in Blood</td><td>136.3</td><td>135 - 145</td><td>mmol/L</td></tr><tr><td>Potassium [Moles/volume] in Blood</td><td>4.0</td><td>3.5 - 5.1</td><td>mmol/L</td></tr><tr><td>Chloride [Moles/volume] in Blood</td><td><strong>110.3 H</strong></td><td>98 - 108</td><td>mmol/L</td></tr><tr><td>Carbon dioxide, total [Moles/volume] in Blood</td><td>26.1</td><td>22 - 32</td><td>mmol/L</td></tr><tr><td>Cholesterol [Mass/volume] in Serum or Plasma</td><td><strong>202.9 H</strong></td><td>125 - 200</td><td>mg/dL</td></tr><tr><td>Triglyceride [Mass/volume] in Serum or Plasma</td><td><strong>166.6 H</strong></td><td>40 - 150</td><td>mg/dL</td></tr><tr><td>Cholesterol in LDL [Mass/volume] in Serum or Plasma by Direct assay</td><td>121.9</td><td>0 - 190</td><td>mg/dL</td></tr><tr><td>Cholesterol in HDL [Mass/volume] in Serum or Plasma</td><td>47.7</td><td>40 - 60</td><td>mg/dL</td></tr><tr><td>Microalbumin/Creatinine [Mass Ratio] in Urine</td><td>4.3</td><td>0 - 30</td><td>mg/g</td></tr></tbody></table></div>"
                },
                "title": "Chemistry"
              }
            ],
            "title": "Laboratory Report"
          },
          {
            "text": {
              "status": "generated",
              "div": "<div xmlns=\"http://www.w3.org/1999/xhtml\"><h3>Annotation</h3><table class=\"hl7__eu__lab__report\"><tr><th>Conclusion and Recommendations based on this report and previous findings known to us</th></tr><tr><td>The patient shows elevated HbA1c, indicating suboptimal long-term glycemic control (diabetes). Cholesterol, triglycerides, and chloride are mildly elevated, suggesting increased cardiovascular risk and possible mild electrolyte imbalance. Renal function and microalbumin/creatinine ratio are within normal limits. Recommend review of diabetes and lipid management, and monitoring of cardiovascular risk factors.</td></tr></table></div>"
            },
            "code": {
              "coding": [
                {
                  "system": "http://loinc.org",
                  "code": "48767-8",
                  "display": "Annotation comment"
                }
              ]
            },
            "title": "Annotation comment"
          }
        ],
        "status": "final",
        "subject": {
          "reference": "urn:uuid:7d2b8ce7-80d8-432c-a4e9-170db57e39ed",
          "display": "Stephen Weinhage"
        },
        "date": "2020-04-27T08:55:50Z",
        "title": "Laboratory Report",
        "confidentiality": "N"
      }
    },
    {
      "fullUrl": "urn:uuid:e66b3c68-9f87-4582-8e12-4d6802407136",
      "resource": {
        "resourceType": "DiagnosticReport",
        "id": "e66b3c68-9f87-4582-8e12-4d6802407136",
        "meta": {
          "profile": [
            "http://hl7.eu/fhir/laboratory/StructureDefinition/DiagnosticReport-eu-lab"
          ]
        },
        "identifier": [
          {
            "assigner": {
              "display": "HL7 Europe"
            },
            "system": "urn:oid:2.16.840.1.113883.2.51.999",
            "value": "8b2d8b6c-ce38-4407-bad3-c9baf44f5b9e"
          }
        ],
        "extension": [
          {
            "url": "http://hl7.org/fhir/5.0/StructureDefinition/extension-DiagnosticReport.composition",
            "valueReference": {
              "reference": "urn:uuid:c3736dfe-986a-426e-adbd-39b68a46da5e"
            }
          }
        ],
        "category": [
          {
            "coding": [
              {
                "code": "26436-6",
                "system": "http://loinc.org",
                "display": "Laboratory studies (set)"
              }
            ]
          }
        ],
        "specimen": [
          {
            "reference": "urn:uuid:f0dd78fd-211d-4c8d-9489-4be7d7e3e527"
          },
          {
            "reference": "urn:uuid:dff8c366-b5c9-49e3-9079-a8db2a1761ad"
          },
          {
            "reference": "urn:uuid:69bb1e9b-2dde-41b8-8bea-b0f2735115a9"
          }
        ],
        "result": [
          {
            "reference": "urn:uuid:05612885-e120-4592-b1dc-5f249ed2e875"
          },
          {
            "reference": "urn:uuid:90f2b174-9f3c-417c-b0a6-31b162e5a504"
          },
          {
            "reference": "urn:uuid:a1a0e60c-d3ff-41b5-9563-6af05badcaa4"
          },
          {
            "reference": "urn:uuid:646febe1-3582-486d-9f1f-9d99c34d29c5"
          },
          {
            "reference": "urn:uuid:c8f557ed-e18d-4a77-ab1a-48adecb3a0c0"
          },
          {
            "reference": "urn:uuid:82db4bd9-43c2-42f6-a10f-9fe924e663ab"
          },
          {
            "reference": "urn:uuid:07dbaaaa-7ba5-426f-a8b0-d3ecc0032402"
          },
          {
            "reference": "urn:uuid:29c4df80-adfd-4d8d-abcd-78f498c569d2"
          },
          {
            "reference": "urn:uuid:4ac3feef-c481-43b2-b7e0-35c08d25fb0d"
          },
          {
            "reference": "urn:uuid:913ac8b2-e733-49ba-8fcd-ff8d99e5947a"
          },
          {
            "reference": "urn:uuid:dc748eba-951b-44b1-bd5d-64ca374e8f28"
          },
          {
            "reference": "urn:uuid:929e3f48-708b-475b-ac66-31fe055a3ab8"
          },
          {
            "reference": "urn:uuid:21ea002b-be16-43e7-9c0c-8cac67b5611a"
          },
          {
            "reference": "urn:uuid:6cf27f27-528b-4e25-ba0c-6986b2c01001"
          }
        ],
        "status": "registered",
        "code": {
          "coding": [
            {
              "code": "11502-2",
              "system": "http://loinc.org",
              "display": "Laboratory report"
            }
          ]
        },
        "subject": {
          "reference": "urn:uuid:7d2b8ce7-80d8-432c-a4e9-170db57e39ed",
          "display": "Stephen Weinhage"
        }
      }
    },
    {
      "fullUrl": "urn:uuid:7d2b8ce7-80d8-432c-a4e9-170db57e39ed",
      "resource": {
        "resourceType": "Patient",
        "id": "7d2b8ce7-80d8-432c-a4e9-170db57e39ed",
        "meta": {
          "security": [
            {
              "system": "http://terminology.hl7.org/CodeSystem/v3-ActReason",
              "code": "HTEST"
            },
            {
              "system": "http://terminology.hl7.org/CodeSystem/v3-ActReason",
              "code": "TRAIN"
            }
          ],
          "tag": [
            {
              "system": "https://synderai.net/fhir/CodeSystem/tags",
              "code": "synthetic",
              "display": "SYNDERAI Synthetic data"
            }
          ],
          "profile": [
            "http://hl7.eu/fhir/base/StructureDefinition/patient-eu-core"
          ]
        },
        "identifier": [
          {
            "type": {
              "coding": [
                {
                  "code": "PT",
                  "system": "http://terminology.hl7.org/CodeSystem/v2-0203"
                }
              ]
            },
            "system": "http://ec.europa.eu/identifier/eci",
            "value": "6413-101438-9"
          },
          {
            "type": {
              "coding": [
                {
                  "code": "MR",
                  "system": "http://terminology.hl7.org/CodeSystem/v2-0203"
                }
              ]
            },
            "system": "http://local.setting.eu/identifier",
            "value": "24ebd065-2072-c582-96d3-10256a4a5a7d"
          }
        ],
        "name": [
          {
            "family": "Weinhage"
          },
          {
            "given": [
              "Stephen"
            ]
          },
          {
            "text": "Stephen Weinhage"
          }
        ],
        "address": [
          {
            "line": [
              "Bertold-Stahr-Platz 6/3"
            ],
            "use": "home",
            "type": "physical",
            "postalCode": "31535",
            "city": "Neustadt am Rübenberge",
            "country": "Germany"
          }
        ],
        "telecom": [
          {
            "system": "phone",
            "value": "+49(0)5355171263"
          }
        ],
        "extension": [
          {
            "url": "http://hl7.org/fhir/StructureDefinition/patient-nationality",
            "valueCodeableConcept": {
              "coding": [
                {
                  "code": "DE",
                  "system": "http://hl7.org/fhir/ValueSet/country"
                }
              ]
            }
          }
        ],
        "text": {
          "status": "generated",
          "div": "<div xmlns=\"http://www.w3.org/1999/xhtml\"><table class=\"hl7__ips\"><tr><td>Stephen Weinhage</td><td>male</td><td>11-Aug-1950</td></tr></table></div>"
        },
        "gender": "male",
        "birthDate": "1950-08-11"
      }
    },
    {
      "fullUrl": "urn:uuid:25b20616-b87b-48de-913f-0f90f169f307",
      "resource": {
        "resourceType": "ServiceRequest",
        "id": "25b20616-b87b-48de-913f-0f90f169f307",
        "meta": {
          "profile": [
            "http://hl7.eu/fhir/laboratory/StructureDefinition/ServiceRequest-eu-lab"
          ]
        },
        "identifier": [
          {
            "system": "http://example.org",
            "value": "bcaf40cd-652d-479c-91a3-830965596f3d"
          }
        ],
        "specimen": [
          {
            "reference": "urn:uuid:f0dd78fd-211d-4c8d-9489-4be7d7e3e527"
          },
          {
            "reference": "urn:uuid:dff8c366-b5c9-49e3-9079-a8db2a1761ad"
          },
          {
            "reference": "urn:uuid:69bb1e9b-2dde-41b8-8bea-b0f2735115a9"
          }
        ],
        "reasonCode": [
          {
            "coding": [
              {
                "code": "422034002",
                "system": "http://snomed.info/sct",
                "display": "Retinopathy due to type 2 diabetes mellitus"
              }
            ]
          },
          {
            "coding": [
              {
                "code": "55822004",
                "system": "http://snomed.info/sct",
                "display": "Hyperlipidemia"
              }
            ]
          },
          {
            "coding": [
              {
                "code": "302870006",
                "system": "http://snomed.info/sct",
                "display": "Hypertriglyceridemia"
              }
            ]
          },
          {
            "coding": [
              {
                "code": "44054006",
                "system": "http://snomed.info/sct",
                "display": "Type 2 diabetes mellitus"
              }
            ]
          },
          {
            "coding": [
              {
                "code": "414545008",
                "system": "http://snomed.info/sct",
                "display": "Ischemic heart disease"
              }
            ]
          },
          {
            "coding": [
              {
                "code": "237602007",
                "system": "http://snomed.info/sct",
                "display": "Metabolic syndrome X"
              }
            ]
          },
          {
            "coding": [
              {
                "code": "68496003",
                "system": "http://snomed.info/sct",
                "display": "Polyp of colon"
              }
            ]
          },
          {
            "coding": [
              {
                "code": "59621000",
                "system": "http://snomed.info/sct",
                "display": "Essential hypertension"
              }
            ]
          },
          {
            "coding": [
              {
                "code": "15777000",
                "system": "http://snomed.info/sct",
                "display": "Prediabetes"
              }
            ]
          },
          {
            "coding": [
              {
                "code": "271737000",
                "system": "http://snomed.info/sct",
                "display": "Anemia"
              }
            ]
          },
          {
            "coding": [
              {
                "code": "40055000",
                "system": "http://snomed.info/sct",
                "display": "Chronic sinusitis"
              }
            ]
          }
        ],
        "status": "active",
        "intent": "order",
        "code": {
          "coding": [
            {
              "code": "108252007",
              "system": "http://snomed.info/sct",
              "display": "Laboratory procedure"
            }
          ]
        },
        "subject": {
          "reference": "urn:uuid:7d2b8ce7-80d8-432c-a4e9-170db57e39ed",
          "display": "Stephen Weinhage"
        },
        "requester": {
          "reference": "urn:uuid:c7c8b9b1-6829-444d-a314-6ad85a490747"
        }
      }
    },
    {
      "fullUrl": "urn:uuid:c7c8b9b1-6829-444d-a314-6ad85a490747",
      "resource": {
        "resourceType": "PractitionerRole",
        "id": "c7c8b9b1-6829-444d-a314-6ad85a490747",
        "meta": {
          "profile": [
            "http://hl7.eu/fhir/base/StructureDefinition/practitionerRole-eu"
          ]
        },
        "text": {
          "status": "generated",
          "div": "<div xmlns=\"http://www.w3.org/1999/xhtml\">Provider Role Id: c7c8b9b1-6829-444d-a314-6ad85a490747</div>"
        },
        "organization": {
          "reference": "urn:uuid:93a3ba32-8cd5-4103-af31-c50aa62cd74d"
        }
      }
    },
    {
      "fullUrl": "urn:uuid:93a3ba32-8cd5-4103-af31-c50aa62cd74d",
      "resource": {
        "resourceType": "Organization",
        "id": "93a3ba32-8cd5-4103-af31-c50aa62cd74d",
        "meta": {
          "profile": [
            "http://hl7.eu/fhir/base/StructureDefinition/organization-eu"
          ]
        },
        "identifier": [
          {
            "assigner": {
              "display": "HL7 Europe"
            },
            "system": "urn:oid:2.16.840.1.113883.2.51.999",
            "value": "a6cf4780-3809-4ed9-b2e3-c8579fcd837b"
          }
        ],
        "address": [
          {
            "line": [
              "Dudenser Straße 41A"
            ],
            "city": "Neustadt am Rübenberge",
            "postalCode": "31535",
            "country": "Germany"
          }
        ],
        "text": {
          "status": "generated",
          "div": "<div xmlns=\"http://www.w3.org/1999/xhtml\">Provider Organization: Landarztpraxis Dudensen</div>"
        },
        "name": "Landarztpraxis Dudensen"
      }
    },
    {
      "fullUrl": "urn:uuid:f0dd78fd-211d-4c8d-9489-4be7d7e3e527",
      "resource": {
        "resourceType": "Specimen",
        "id": "f0dd78fd-211d-4c8d-9489-4be7d7e3e527",
        "meta": {
          "profile": [
            "http://hl7.eu/fhir/laboratory/StructureDefinition/Specimen-eu-lab"
          ]
        },
        "collection": {
          "collectedDateTime": "2020-04-27"
        },
        "text": {
          "status": "generated",
          "div": "<div xmlns=\"http://www.w3.org/1999/xhtml\"><table class=\"hl7__eu__lab__report\"><tr><th>Specimen</th><th>Collection Date</th></tr><tr><td>Whole blood specimen (specimen)</td><td><span class=\"nb\">27-Apr-2020</span></td></tr></table></div>"
        },
        "type": {
          "coding": [
            {
              "code": "258580003",
              "system": "http://snomed.info/sct",
              "display": "Whole blood specimen (specimen)"
            }
          ]
        }
      }
    },
    {
      "fullUrl": "urn:uuid:dff8c366-b5c9-49e3-9079-a8db2a1761ad",
      "resource": {
        "resourceType": "Specimen",
        "id": "dff8c366-b5c9-49e3-9079-a8db2a1761ad",
        "meta": {
          "profile": [
            "http://hl7.eu/fhir/laboratory/StructureDefinition/Specimen-eu-lab"
          ]
        },
        "collection": {
          "collectedDateTime": "2020-04-27"
        },
        "text": {
          "status": "generated",
          "div": "<div xmlns=\"http://www.w3.org/1999/xhtml\"><table class=\"hl7__eu__lab__report\"><tr><th>Specimen</th><th>Collection Date</th></tr><tr><td>Acellular blood (serum or plasma) specimen</td><td><span class=\"nb\">27-Apr-2020</span></td></tr></table></div>"
        },
        "type": {
          "coding": [
            {
              "code": "122592007",
              "system": "http://snomed.info/sct",
              "display": "Acellular blood (serum or plasma) specimen"
            }
          ]
        }
      }
    },
    {
      "fullUrl": "urn:uuid:69bb1e9b-2dde-41b8-8bea-b0f2735115a9",
      "resource": {
        "resourceType": "Specimen",
        "id": "69bb1e9b-2dde-41b8-8bea-b0f2735115a9",
        "meta": {
          "profile": [
            "http://hl7.eu/fhir/laboratory/StructureDefinition/Specimen-eu-lab"
          ]
        },
        "collection": {
          "collectedDateTime": "2020-04-27"
        },
        "text": {
          "status": "generated",
          "div": "<div xmlns=\"http://www.w3.org/1999/xhtml\"><table class=\"hl7__eu__lab__report\"><tr><th>Specimen</th><th>Collection Date</th></tr><tr><td>Urine specimen</td><td><span class=\"nb\">27-Apr-2020</span></td></tr></table></div>"
        },
        "type": {
          "coding": [
            {
              "code": "122575003",
              "system": "http://snomed.info/sct",
              "display": "Urine specimen"
            }
          ]
        }
      }
    },
    {
      "fullUrl": "urn:uuid:05612885-e120-4592-b1dc-5f249ed2e875",
      "resource": {
        "resourceType": "Observation",
        "id": "05612885-e120-4592-b1dc-5f249ed2e875",
        "meta": {
          "profile": [
            "http://hl7.eu/fhir/laboratory/StructureDefinition/Observation-resultslab-eu-lab"
          ]
        },
        "performer": [
          {
            "display": "The Central European Lab"
          }
        ],
        "category": [
          {
            "coding": [
              {
                "system": "http://terminology.hl7.org/CodeSystem/observation-category",
                "code": "laboratory"
              }
            ]
          }
        ],
        "code": {
          "coding": [
            {
              "code": "4548-4",
              "system": "http://loinc.org",
              "display": "Hemoglobin A1c/Hemoglobin.total in Blood"
            }
          ],
          "text": "Hemoglobin A1c/Hemoglobin.total in Blood"
        },
        "valueQuantity": {
          "system": "http://unitsofmeasure.org",
          "value": 6.9,
          "unit": "%",
          "code": "%"
        },
        "referenceRange": [
          {
            "low": {
              "value": 4.8,
              "code": "%",
              "system": "http://unitsofmeasure.org"
            }
          },
          {
            "high": {
              "value": 5.7,
              "code": "%",
              "system": "http://unitsofmeasure.org"
            }
          }
        ],
        "interpretation": [
          {
            "coding": [
              {
                "code": "H",
                "system": "http://terminology.hl7.org/CodeSystem/v3-ObservationInterpretation",
                "display": "High"
              }
            ]
          }
        ],
        "text": {
          "status": "generated",
          "div": "<div xmlns=\"http://www.w3.org/1999/xhtml\"><table class=\"hl7__eu__lab__report\"><tr><th>Test</th><th>27-Apr-2020</th><th>Reference&#xA0;Range</th><th>Unit</th></tr><tr><td>Hemoglobin A1c/Hemoglobin.total in Blood</td><td>6.9</td><td>4.8 - 5.7</td><td>H</td><td>%</td></tr></table></div>"
        },
        "status": "final",
        "subject": {
          "reference": "urn:uuid:7d2b8ce7-80d8-432c-a4e9-170db57e39ed",
          "display": "Stephen Weinhage"
        },
        "effectiveDateTime": "2020-04-27T06:55:50Z",
        "specimen": {
          "reference": "urn:uuid:f0dd78fd-211d-4c8d-9489-4be7d7e3e527"
        }
      }
    },
    {
      "fullUrl": "urn:uuid:90f2b174-9f3c-417c-b0a6-31b162e5a504",
      "resource": {
        "resourceType": "Observation",
        "id": "90f2b174-9f3c-417c-b0a6-31b162e5a504",
        "meta": {
          "profile": [
            "http://hl7.eu/fhir/laboratory/StructureDefinition/Observation-resultslab-eu-lab"
          ]
        },
        "performer": [
          {
            "display": "The Central European Lab"
          }
        ],
        "category": [
          {
            "coding": [
              {
                "system": "http://terminology.hl7.org/CodeSystem/observation-category",
                "code": "laboratory"
              }
            ]
          }
        ],
        "code": {
          "coding": [
            {
              "code": "2339-0",
              "system": "http://loinc.org",
              "display": "Glucose [Mass/volume] in Blood"
            }
          ],
          "text": "Glucose [Mass/volume] in Blood"
        },
        "valueQuantity": {
          "system": "http://unitsofmeasure.org",
          "value": 122.7,
          "unit": "mg/dL",
          "code": "mg/dL"
        },
        "referenceRange": [
          {
            "low": {
              "value": 70,
              "code": "mg/dL",
              "system": "http://unitsofmeasure.org"
            }
          },
          {
            "high": {
              "value": 140,
              "code": "mg/dL",
              "system": "http://unitsofmeasure.org"
            }
          }
        ],
        "text": {
          "status": "generated",
          "div": "<div xmlns=\"http://www.w3.org/1999/xhtml\"><table class=\"hl7__eu__lab__report\"><tr><th>Test</th><th>27-Apr-2020</th><th>Reference&#xA0;Range</th><th>Unit</th></tr><tr><td>Glucose [Mass/volume] in Blood</td><td>122.7</td><td>70 - 140</td><td></td><td>mg/dL</td></tr></table></div>"
        },
        "status": "final",
        "subject": {
          "reference": "urn:uuid:7d2b8ce7-80d8-432c-a4e9-170db57e39ed",
          "display": "Stephen Weinhage"
        },
        "effectiveDateTime": "2020-04-27T06:55:50Z",
        "specimen": {
          "reference": "urn:uuid:f0dd78fd-211d-4c8d-9489-4be7d7e3e527"
        }
      }
    },
    {
      "fullUrl": "urn:uuid:a1a0e60c-d3ff-41b5-9563-6af05badcaa4",
      "resource": {
        "resourceType": "Observation",
        "id": "a1a0e60c-d3ff-41b5-9563-6af05badcaa4",
        "meta": {
          "profile": [
            "http://hl7.eu/fhir/laboratory/StructureDefinition/Observation-resultslab-eu-lab"
          ]
        },
        "performer": [
          {
            "display": "The Central European Lab"
          }
        ],
        "category": [
          {
            "coding": [
              {
                "system": "http://terminology.hl7.org/CodeSystem/observation-category",
                "code": "laboratory"
              }
            ]
          }
        ],
        "code": {
          "coding": [
            {
              "code": "6299-2",
              "system": "http://loinc.org",
              "display": "Urea nitrogen [Mass/volume] in Blood"
            }
          ],
          "text": "Urea nitrogen [Mass/volume] in Blood"
        },
        "valueQuantity": {
          "system": "http://unitsofmeasure.org",
          "value": 18.9,
          "unit": "mg/dL",
          "code": "mg/dL"
        },
        "referenceRange": [
          {
            "low": {
              "value": 7,
              "code": "mg/dL",
              "system": "http://unitsofmeasure.org"
            }
          },
          {
            "high": {
              "value": 20,
              "code": "mg/dL",
              "system": "http://unitsofmeasure.org"
            }
          }
        ],
        "text": {
          "status": "generated",
          "div": "<div xmlns=\"http://www.w3.org/1999/xhtml\"><table class=\"hl7__eu__lab__report\"><tr><th>Test</th><th>27-Apr-2020</th><th>Reference&#xA0;Range</th><th>Unit</th></tr><tr><td>Urea nitrogen [Mass/volume] in Blood</td><td>18.9</td><td>7 - 20</td><td></td><td>mg/dL</td></tr></table></div>"
        },
        "status": "final",
        "subject": {
          "reference": "urn:uuid:7d2b8ce7-80d8-432c-a4e9-170db57e39ed",
          "display": "Stephen Weinhage"
        },
        "effectiveDateTime": "2020-04-27T06:55:50Z",
        "specimen": {
          "reference": "urn:uuid:f0dd78fd-211d-4c8d-9489-4be7d7e3e527"
        }
      }
    },
    {
      "fullUrl": "urn:uuid:646febe1-3582-486d-9f1f-9d99c34d29c5",
      "resource": {
        "resourceType": "Observation",
        "id": "646febe1-3582-486d-9f1f-9d99c34d29c5",
        "meta": {
          "profile": [
            "http://hl7.eu/fhir/laboratory/StructureDefinition/Observation-resultslab-eu-lab"
          ]
        },
        "performer": [
          {
            "display": "The Central European Lab"
          }
        ],
        "category": [
          {
            "coding": [
              {
                "system": "http://terminology.hl7.org/CodeSystem/observation-category",
                "code": "laboratory"
              }
            ]
          }
        ],
        "code": {
          "coding": [
            {
              "code": "38483-4",
              "system": "http://loinc.org",
              "display": "Creatinine [Mass/volume] in Blood"
            }
          ],
          "text": "Creatinine [Mass/volume] in Blood"
        },
        "valueQuantity": {
          "system": "http://unitsofmeasure.org",
          "value": 0.8,
          "unit": "mg/dL",
          "code": "mg/dL"
        },
        "referenceRange": [
          {
            "low": {
              "value": 0.6,
              "code": "mg/dL",
              "system": "http://unitsofmeasure.org"
            }
          },
          {
            "high": {
              "value": 1.3,
              "code": "mg/dL",
              "system": "http://unitsofmeasure.org"
            }
          }
        ],
        "text": {
          "status": "generated",
          "div": "<div xmlns=\"http://www.w3.org/1999/xhtml\"><table class=\"hl7__eu__lab__report\"><tr><th>Test</th><th>27-Apr-2020</th><th>Reference&#xA0;Range</th><th>Unit</th></tr><tr><td>Creatinine [Mass/volume] in Blood</td><td>0.8</td><td>0.6 - 1.3</td><td></td><td>mg/dL</td></tr></table></div>"
        },
        "status": "final",
        "subject": {
          "reference": "urn:uuid:7d2b8ce7-80d8-432c-a4e9-170db57e39ed",
          "display": "Stephen Weinhage"
        },
        "effectiveDateTime": "2020-04-27T06:55:50Z",
        "specimen": {
          "reference": "urn:uuid:f0dd78fd-211d-4c8d-9489-4be7d7e3e527"
        }
      }
    },
    {
      "fullUrl": "urn:uuid:c8f557ed-e18d-4a77-ab1a-48adecb3a0c0",
      "resource": {
        "resourceType": "Observation",
        "id": "c8f557ed-e18d-4a77-ab1a-48adecb3a0c0",
        "meta": {
          "profile": [
            "http://hl7.eu/fhir/laboratory/StructureDefinition/Observation-resultslab-eu-lab"
          ]
        },
        "performer": [
          {
            "display": "The Central European Lab"
          }
        ],
        "category": [
          {
            "coding": [
              {
                "system": "http://terminology.hl7.org/CodeSystem/observation-category",
                "code": "laboratory"
              }
            ]
          }
        ],
        "code": {
          "coding": [
            {
              "code": "49765-1",
              "system": "http://loinc.org",
              "display": "Calcium [Mass/volume] in Blood"
            }
          ],
          "text": "Calcium [Mass/volume] in Blood"
        },
        "valueQuantity": {
          "system": "http://unitsofmeasure.org",
          "value": 9.8,
          "unit": "mg/dL",
          "code": "mg/dL"
        },
        "referenceRange": [
          {
            "low": {
              "value": 8.5,
              "code": "mg/dL",
              "system": "http://unitsofmeasure.org"
            }
          },
          {
            "high": {
              "value": 10.5,
              "code": "mg/dL",
              "system": "http://unitsofmeasure.org"
            }
          }
        ],
        "text": {
          "status": "generated",
          "div": "<div xmlns=\"http://www.w3.org/1999/xhtml\"><table class=\"hl7__eu__lab__report\"><tr><th>Test</th><th>27-Apr-2020</th><th>Reference&#xA0;Range</th><th>Unit</th></tr><tr><td>Calcium [Mass/volume] in Blood</td><td>9.8</td><td>8.5 - 10.5</td><td></td><td>mg/dL</td></tr></table></div>"
        },
        "status": "final",
        "subject": {
          "reference": "urn:uuid:7d2b8ce7-80d8-432c-a4e9-170db57e39ed",
          "display": "Stephen Weinhage"
        },
        "effectiveDateTime": "2020-04-27T06:55:50Z",
        "specimen": {
          "reference": "urn:uuid:f0dd78fd-211d-4c8d-9489-4be7d7e3e527"
        }
      }
    },
    {
      "fullUrl": "urn:uuid:82db4bd9-43c2-42f6-a10f-9fe924e663ab",
      "resource": {
        "resourceType": "Observation",
        "id": "82db4bd9-43c2-42f6-a10f-9fe924e663ab",
        "meta": {
          "profile": [
            "http://hl7.eu/fhir/laboratory/StructureDefinition/Observation-resultslab-eu-lab"
          ]
        },
        "performer": [
          {
            "display": "The Central European Lab"
          }
        ],
        "category": [
          {
            "coding": [
              {
                "system": "http://terminology.hl7.org/CodeSystem/observation-category",
                "code": "laboratory"
              }
            ]
          }
        ],
        "code": {
          "coding": [
            {
              "code": "2947-0",
              "system": "http://loinc.org",
              "display": "Sodium [Moles/volume] in Blood"
            }
          ],
          "text": "Sodium [Moles/volume] in Blood"
        },
        "valueQuantity": {
          "system": "http://unitsofmeasure.org",
          "value": 136.3,
          "unit": "mmol/L",
          "code": "mmol/L"
        },
        "referenceRange": [
          {
            "low": {
              "value": 135,
              "code": "mmol/L",
              "system": "http://unitsofmeasure.org"
            }
          },
          {
            "high": {
              "value": 145,
              "code": "mmol/L",
              "system": "http://unitsofmeasure.org"
            }
          }
        ],
        "text": {
          "status": "generated",
          "div": "<div xmlns=\"http://www.w3.org/1999/xhtml\"><table class=\"hl7__eu__lab__report\"><tr><th>Test</th><th>27-Apr-2020</th><th>Reference&#xA0;Range</th><th>Unit</th></tr><tr><td>Sodium [Moles/volume] in Blood</td><td>136.3</td><td>135 - 145</td><td></td><td>mmol/L</td></tr></table></div>"
        },
        "status": "final",
        "subject": {
          "reference": "urn:uuid:7d2b8ce7-80d8-432c-a4e9-170db57e39ed",
          "display": "Stephen Weinhage"
        },
        "effectiveDateTime": "2020-04-27T06:55:50Z",
        "specimen": {
          "reference": "urn:uuid:f0dd78fd-211d-4c8d-9489-4be7d7e3e527"
        }
      }
    },
    {
      "fullUrl": "urn:uuid:07dbaaaa-7ba5-426f-a8b0-d3ecc0032402",
      "resource": {
        "resourceType": "Observation",
        "id": "07dbaaaa-7ba5-426f-a8b0-d3ecc0032402",
        "meta": {
          "profile": [
            "http://hl7.eu/fhir/laboratory/StructureDefinition/Observation-resultslab-eu-lab"
          ]
        },
        "performer": [
          {
            "display": "The Central European Lab"
          }
        ],
        "category": [
          {
            "coding": [
              {
                "system": "http://terminology.hl7.org/CodeSystem/observation-category",
                "code": "laboratory"
              }
            ]
          }
        ],
        "code": {
          "coding": [
            {
              "code": "6298-4",
              "system": "http://loinc.org",
              "display": "Potassium [Moles/volume] in Blood"
            }
          ],
          "text": "Potassium [Moles/volume] in Blood"
        },
        "valueQuantity": {
          "system": "http://unitsofmeasure.org",
          "value": 4,
          "unit": "mmol/L",
          "code": "mmol/L"
        },
        "referenceRange": [
          {
            "low": {
              "value": 3.5,
              "code": "mmol/L",
              "system": "http://unitsofmeasure.org"
            }
          },
          {
            "high": {
              "value": 5.1,
              "code": "mmol/L",
              "system": "http://unitsofmeasure.org"
            }
          }
        ],
        "text": {
          "status": "generated",
          "div": "<div xmlns=\"http://www.w3.org/1999/xhtml\"><table class=\"hl7__eu__lab__report\"><tr><th>Test</th><th>27-Apr-2020</th><th>Reference&#xA0;Range</th><th>Unit</th></tr><tr><td>Potassium [Moles/volume] in Blood</td><td>4.0</td><td>3.5 - 5.1</td><td></td><td>mmol/L</td></tr></table></div>"
        },
        "status": "final",
        "subject": {
          "reference": "urn:uuid:7d2b8ce7-80d8-432c-a4e9-170db57e39ed",
          "display": "Stephen Weinhage"
        },
        "effectiveDateTime": "2020-04-27T06:55:50Z",
        "specimen": {
          "reference": "urn:uuid:f0dd78fd-211d-4c8d-9489-4be7d7e3e527"
        }
      }
    },
    {
      "fullUrl": "urn:uuid:29c4df80-adfd-4d8d-abcd-78f498c569d2",
      "resource": {
        "resourceType": "Observation",
        "id": "29c4df80-adfd-4d8d-abcd-78f498c569d2",
        "meta": {
          "profile": [
            "http://hl7.eu/fhir/laboratory/StructureDefinition/Observation-resultslab-eu-lab"
          ]
        },
        "performer": [
          {
            "display": "The Central European Lab"
          }
        ],
        "category": [
          {
            "coding": [
              {
                "system": "http://terminology.hl7.org/CodeSystem/observation-category",
                "code": "laboratory"
              }
            ]
          }
        ],
        "code": {
          "coding": [
            {
              "code": "2069-3",
              "system": "http://loinc.org",
              "display": "Chloride [Moles/volume] in Blood"
            }
          ],
          "text": "Chloride [Moles/volume] in Blood"
        },
        "valueQuantity": {
          "system": "http://unitsofmeasure.org",
          "value": 110.3,
          "unit": "mmol/L",
          "code": "mmol/L"
        },
        "referenceRange": [
          {
            "low": {
              "value": 98,
              "code": "mmol/L",
              "system": "http://unitsofmeasure.org"
            }
          },
          {
            "high": {
              "value": 108,
              "code": "mmol/L",
              "system": "http://unitsofmeasure.org"
            }
          }
        ],
        "interpretation": [
          {
            "coding": [
              {
                "code": "H",
                "system": "http://terminology.hl7.org/CodeSystem/v3-ObservationInterpretation",
                "display": "High"
              }
            ]
          }
        ],
        "text": {
          "status": "generated",
          "div": "<div xmlns=\"http://www.w3.org/1999/xhtml\"><table class=\"hl7__eu__lab__report\"><tr><th>Test</th><th>27-Apr-2020</th><th>Reference&#xA0;Range</th><th>Unit</th></tr><tr><td>Chloride [Moles/volume] in Blood</td><td>110.3</td><td>98 - 108</td><td>H</td><td>mmol/L</td></tr></table></div>"
        },
        "status": "final",
        "subject": {
          "reference": "urn:uuid:7d2b8ce7-80d8-432c-a4e9-170db57e39ed",
          "display": "Stephen Weinhage"
        },
        "effectiveDateTime": "2020-04-27T06:55:50Z",
        "specimen": {
          "reference": "urn:uuid:f0dd78fd-211d-4c8d-9489-4be7d7e3e527"
        }
      }
    },
    {
      "fullUrl": "urn:uuid:4ac3feef-c481-43b2-b7e0-35c08d25fb0d",
      "resource": {
        "resourceType": "Observation",
        "id": "4ac3feef-c481-43b2-b7e0-35c08d25fb0d",
        "meta": {
          "profile": [
            "http://hl7.eu/fhir/laboratory/StructureDefinition/Observation-resultslab-eu-lab"
          ]
        },
        "performer": [
          {
            "display": "The Central European Lab"
          }
        ],
        "category": [
          {
            "coding": [
              {
                "system": "http://terminology.hl7.org/CodeSystem/observation-category",
                "code": "laboratory"
              }
            ]
          }
        ],
        "code": {
          "coding": [
            {
              "code": "20565-8",
              "system": "http://loinc.org",
              "display": "Carbon dioxide, total [Moles/volume] in Blood"
            }
          ],
          "text": "Carbon dioxide, total [Moles/volume] in Blood"
        },
        "valueQuantity": {
          "system": "http://unitsofmeasure.org",
          "value": 26.1,
          "unit": "mmol/L",
          "code": "mmol/L"
        },
        "referenceRange": [
          {
            "low": {
              "value": 22,
              "code": "mmol/L",
              "system": "http://unitsofmeasure.org"
            }
          },
          {
            "high": {
              "value": 32,
              "code": "mmol/L",
              "system": "http://unitsofmeasure.org"
            }
          }
        ],
        "text": {
          "status": "generated",
          "div": "<div xmlns=\"http://www.w3.org/1999/xhtml\"><table class=\"hl7__eu__lab__report\"><tr><th>Test</th><th>27-Apr-2020</th><th>Reference&#xA0;Range</th><th>Unit</th></tr><tr><td>Carbon dioxide, total [Moles/volume] in Blood</td><td>26.1</td><td>22 - 32</td><td></td><td>mmol/L</td></tr></table></div>"
        },
        "status": "final",
        "subject": {
          "reference": "urn:uuid:7d2b8ce7-80d8-432c-a4e9-170db57e39ed",
          "display": "Stephen Weinhage"
        },
        "effectiveDateTime": "2020-04-27T06:55:50Z",
        "specimen": {
          "reference": "urn:uuid:f0dd78fd-211d-4c8d-9489-4be7d7e3e527"
        }
      }
    },
    {
      "fullUrl": "urn:uuid:913ac8b2-e733-49ba-8fcd-ff8d99e5947a",
      "resource": {
        "resourceType": "Observation",
        "id": "913ac8b2-e733-49ba-8fcd-ff8d99e5947a",
        "meta": {
          "profile": [
            "http://hl7.eu/fhir/laboratory/StructureDefinition/Observation-resultslab-eu-lab"
          ]
        },
        "performer": [
          {
            "display": "The Central European Lab"
          }
        ],
        "category": [
          {
            "coding": [
              {
                "system": "http://terminology.hl7.org/CodeSystem/observation-category",
                "code": "laboratory"
              }
            ]
          }
        ],
        "code": {
          "coding": [
            {
              "code": "2093-3",
              "system": "http://loinc.org",
              "display": "Cholesterol [Mass/volume] in Serum or Plasma"
            }
          ],
          "text": "Cholesterol [Mass/volume] in Serum or Plasma"
        },
        "valueQuantity": {
          "system": "http://unitsofmeasure.org",
          "value": 202.9,
          "unit": "mg/dL",
          "code": "mg/dL"
        },
        "referenceRange": [
          {
            "low": {
              "value": 125,
              "code": "mg/dL",
              "system": "http://unitsofmeasure.org"
            }
          },
          {
            "high": {
              "value": 200,
              "code": "mg/dL",
              "system": "http://unitsofmeasure.org"
            }
          }
        ],
        "interpretation": [
          {
            "coding": [
              {
                "code": "H",
                "system": "http://terminology.hl7.org/CodeSystem/v3-ObservationInterpretation",
                "display": "High"
              }
            ]
          }
        ],
        "text": {
          "status": "generated",
          "div": "<div xmlns=\"http://www.w3.org/1999/xhtml\"><table class=\"hl7__eu__lab__report\"><tr><th>Test</th><th>27-Apr-2020</th><th>Reference&#xA0;Range</th><th>Unit</th></tr><tr><td>Cholesterol [Mass/volume] in Serum or Plasma</td><td>202.9</td><td>125 - 200</td><td>H</td><td>mg/dL</td></tr></table></div>"
        },
        "status": "final",
        "subject": {
          "reference": "urn:uuid:7d2b8ce7-80d8-432c-a4e9-170db57e39ed",
          "display": "Stephen Weinhage"
        },
        "effectiveDateTime": "2020-04-27T06:55:50Z",
        "specimen": {
          "reference": "urn:uuid:dff8c366-b5c9-49e3-9079-a8db2a1761ad"
        }
      }
    },
    {
      "fullUrl": "urn:uuid:dc748eba-951b-44b1-bd5d-64ca374e8f28",
      "resource": {
        "resourceType": "Observation",
        "id": "dc748eba-951b-44b1-bd5d-64ca374e8f28",
        "meta": {
          "profile": [
            "http://hl7.eu/fhir/laboratory/StructureDefinition/Observation-resultslab-eu-lab"
          ]
        },
        "performer": [
          {
            "display": "The Central European Lab"
          }
        ],
        "category": [
          {
            "coding": [
              {
                "system": "http://terminology.hl7.org/CodeSystem/observation-category",
                "code": "laboratory"
              }
            ]
          }
        ],
        "code": {
          "coding": [
            {
              "code": "2571-8",
              "system": "http://loinc.org",
              "display": "Triglyceride [Mass/volume] in Serum or Plasma"
            }
          ],
          "text": "Triglyceride [Mass/volume] in Serum or Plasma"
        },
        "valueQuantity": {
          "system": "http://unitsofmeasure.org",
          "value": 166.6,
          "unit": "mg/dL",
          "code": "mg/dL"
        },
        "referenceRange": [
          {
            "low": {
              "value": 40,
              "code": "mg/dL",
              "system": "http://unitsofmeasure.org"
            }
          },
          {
            "high": {
              "value": 150,
              "code": "mg/dL",
              "system": "http://unitsofmeasure.org"
            }
          }
        ],
        "interpretation": [
          {
            "coding": [
              {
                "code": "H",
                "system": "http://terminology.hl7.org/CodeSystem/v3-ObservationInterpretation",
                "display": "High"
              }
            ]
          }
        ],
        "text": {
          "status": "generated",
          "div": "<div xmlns=\"http://www.w3.org/1999/xhtml\"><table class=\"hl7__eu__lab__report\"><tr><th>Test</th><th>27-Apr-2020</th><th>Reference&#xA0;Range</th><th>Unit</th></tr><tr><td>Triglyceride [Mass/volume] in Serum or Plasma</td><td>166.6</td><td>40 - 150</td><td>H</td><td>mg/dL</td></tr></table></div>"
        },
        "status": "final",
        "subject": {
          "reference": "urn:uuid:7d2b8ce7-80d8-432c-a4e9-170db57e39ed",
          "display": "Stephen Weinhage"
        },
        "effectiveDateTime": "2020-04-27T06:55:50Z",
        "specimen": {
          "reference": "urn:uuid:dff8c366-b5c9-49e3-9079-a8db2a1761ad"
        }
      }
    },
    {
      "fullUrl": "urn:uuid:929e3f48-708b-475b-ac66-31fe055a3ab8",
      "resource": {
        "resourceType": "Observation",
        "id": "929e3f48-708b-475b-ac66-31fe055a3ab8",
        "meta": {
          "profile": [
            "http://hl7.eu/fhir/laboratory/StructureDefinition/Observation-resultslab-eu-lab"
          ]
        },
        "performer": [
          {
            "display": "The Central European Lab"
          }
        ],
        "category": [
          {
            "coding": [
              {
                "system": "http://terminology.hl7.org/CodeSystem/observation-category",
                "code": "laboratory"
              }
            ]
          }
        ],
        "code": {
          "coding": [
            {
              "code": "18262-6",
              "system": "http://loinc.org",
              "display": "Cholesterol in LDL [Mass/volume] in Serum or Plasma by Direct assay"
            }
          ],
          "text": "Cholesterol in LDL [Mass/volume] in Serum or Plasma by Direct assay"
        },
        "valueQuantity": {
          "system": "http://unitsofmeasure.org",
          "value": 121.9,
          "unit": "mg/dL",
          "code": "mg/dL"
        },
        "referenceRange": [
          {
            "low": {
              "value": 0,
              "code": "mg/dL",
              "system": "http://unitsofmeasure.org"
            }
          },
          {
            "high": {
              "value": 190,
              "code": "mg/dL",
              "system": "http://unitsofmeasure.org"
            }
          }
        ],
        "text": {
          "status": "generated",
          "div": "<div xmlns=\"http://www.w3.org/1999/xhtml\"><table class=\"hl7__eu__lab__report\"><tr><th>Test</th><th>27-Apr-2020</th><th>Reference&#xA0;Range</th><th>Unit</th></tr><tr><td>Cholesterol in LDL [Mass/volume] in Serum or Plasma by Direct assay</td><td>121.9</td><td>0 - 190</td><td></td><td>mg/dL</td></tr></table></div>"
        },
        "status": "final",
        "subject": {
          "reference": "urn:uuid:7d2b8ce7-80d8-432c-a4e9-170db57e39ed",
          "display": "Stephen Weinhage"
        },
        "effectiveDateTime": "2020-04-27T06:55:50Z",
        "specimen": {
          "reference": "urn:uuid:dff8c366-b5c9-49e3-9079-a8db2a1761ad"
        }
      }
    },
    {
      "fullUrl": "urn:uuid:21ea002b-be16-43e7-9c0c-8cac67b5611a",
      "resource": {
        "resourceType": "Observation",
        "id": "21ea002b-be16-43e7-9c0c-8cac67b5611a",
        "meta": {
          "profile": [
            "http://hl7.eu/fhir/laboratory/StructureDefinition/Observation-resultslab-eu-lab"
          ]
        },
        "performer": [
          {
            "display": "The Central European Lab"
          }
        ],
        "category": [
          {
            "coding": [
              {
                "system": "http://terminology.hl7.org/CodeSystem/observation-category",
                "code": "laboratory"
              }
            ]
          }
        ],
        "code": {
          "coding": [
            {
              "code": "2085-9",
              "system": "http://loinc.org",
              "display": "Cholesterol in HDL [Mass/volume] in Serum or Plasma"
            }
          ],
          "text": "Cholesterol in HDL [Mass/volume] in Serum or Plasma"
        },
        "valueQuantity": {
          "system": "http://unitsofmeasure.org",
          "value": 47.7,
          "unit": "mg/dL",
          "code": "mg/dL"
        },
        "referenceRange": [
          {
            "low": {
              "value": 40,
              "code": "mg/dL",
              "system": "http://unitsofmeasure.org"
            }
          },
          {
            "high": {
              "value": 60,
              "code": "mg/dL",
              "system": "http://unitsofmeasure.org"
            }
          }
        ],
        "text": {
          "status": "generated",
          "div": "<div xmlns=\"http://www.w3.org/1999/xhtml\"><table class=\"hl7__eu__lab__report\"><tr><th>Test</th><th>27-Apr-2020</th><th>Reference&#xA0;Range</th><th>Unit</th></tr><tr><td>Cholesterol in HDL [Mass/volume] in Serum or Plasma</td><td>47.7</td><td>40 - 60</td><td></td><td>mg/dL</td></tr></table></div>"
        },
        "status": "final",
        "subject": {
          "reference": "urn:uuid:7d2b8ce7-80d8-432c-a4e9-170db57e39ed",
          "display": "Stephen Weinhage"
        },
        "effectiveDateTime": "2020-04-27T06:55:50Z",
        "specimen": {
          "reference": "urn:uuid:dff8c366-b5c9-49e3-9079-a8db2a1761ad"
        }
      }
    },
    {
      "fullUrl": "urn:uuid:6cf27f27-528b-4e25-ba0c-6986b2c01001",
      "resource": {
        "resourceType": "Observation",
        "id": "6cf27f27-528b-4e25-ba0c-6986b2c01001",
        "meta": {
          "profile": [
            "http://hl7.eu/fhir/laboratory/StructureDefinition/Observation-resultslab-eu-lab"
          ]
        },
        "performer": [
          {
            "display": "The Central European Lab"
          }
        ],
        "category": [
          {
            "coding": [
              {
                "system": "http://terminology.hl7.org/CodeSystem/observation-category",
                "code": "laboratory"
              }
            ]
          }
        ],
        "code": {
          "coding": [
            {
              "code": "14959-1",
              "system": "http://loinc.org",
              "display": "Microalbumin/Creatinine [Mass Ratio] in Urine"
            }
          ],
          "text": "Microalbumin/Creatinine [Mass Ratio] in Urine"
        },
        "valueQuantity": {
          "system": "http://unitsofmeasure.org",
          "value": 4.3,
          "unit": "mg/g",
          "code": "mg/g"
        },
        "referenceRange": [
          {
            "low": {
              "value": 0,
              "code": "mg/g",
              "system": "http://unitsofmeasure.org"
            }
          },
          {
            "high": {
              "value": 30,
              "code": "mg/g",
              "system": "http://unitsofmeasure.org"
            }
          }
        ],
        "text": {
          "status": "generated",
          "div": "<div xmlns=\"http://www.w3.org/1999/xhtml\"><table class=\"hl7__eu__lab__report\"><tr><th>Test</th><th>27-Apr-2020</th><th>Reference&#xA0;Range</th><th>Unit</th></tr><tr><td>Microalbumin/Creatinine [Mass Ratio] in Urine</td><td>4.3</td><td>0 - 30</td><td></td><td>mg/g</td></tr></table></div>"
        },
        "status": "final",
        "subject": {
          "reference": "urn:uuid:7d2b8ce7-80d8-432c-a4e9-170db57e39ed",
          "display": "Stephen Weinhage"
        },
        "effectiveDateTime": "2020-04-27T06:55:50Z",
        "specimen": {
          "reference": "urn:uuid:69bb1e9b-2dde-41b8-8bea-b0f2735115a9"
        }
      }
    },
    {
      "fullUrl": "urn:uuid:54766f69-9a2a-4e1e-8428-6283c7153aba",
      "resource": {
        "resourceType": "Device",
        "id": "54766f69-9a2a-4e1e-8428-6283c7153aba",
        "deviceName": [
          {
            "name": "SYNDERAI Synthetic Generator",
            "type": "manufacturer-name"
          }
        ],
        "version": [
          {
            "value": "5.0"
          }
        ],
        "text": {
          "status": "generated",
          "div": "<div xmlns=\"http://www.w3.org/1999/xhtml\">SYNDERAI Synthetic Generator v5.0</div>"
        },
        "status": "active\"",
        "distinctIdentifier": "synderai-generator-50",
        "manufacturer": "SYNDERAI Project"
      }
    },
    {
      "fullUrl": "urn:uuid:41e8a291-b8d5-427f-9873-c38a574cc33c",
      "resource": {
        "resourceType": "Provenance",
        "id": "41e8a291-b8d5-427f-9873-c38a574cc33c",
        "target": [
          {
            "reference": "Patient/7d2b8ce7-80d8-432c-a4e9-170db57e39ed"
          },
          {
            "reference": "Bundle/3bc9f3c4-d31c-4350-b285-57b04b09cbf5"
          },
          {
            "reference": "Composition/171e1dbb-77d2-4b7b-9625-3d032256ec43"
          },
          {
            "reference": "PractitionerRole/d03e0d05-6768-4bc5-a37b-8fd455d72064"
          },
          {
            "reference": "Practitioner/2b53203d-57c1-4774-93a1-658c70069597"
          },
          {
            "reference": "PractitionerRole/c7c8b9b1-6829-444d-a314-6ad85a490747"
          },
          {
            "reference": "Organization/93a3ba32-8cd5-4103-af31-c50aa62cd74d"
          }
        ],
        "activity": {
          "text": "Synthetic Example Data Generation"
        },
        "policy": [
          "https://synderai.net/synderai-synthetic-data-policy"
        ],
        "agent": [
          {
            "type": {
              "text": "author"
            },
            "who": {
              "reference": "Device/54766f69-9a2a-4e1e-8428-6283c7153aba"
            }
          }
        ],
        "reason": [
          {
            "text": "Interoperability Testing and Training (non-clinical use)"
          }
        ],
        "text": {
          "status": "generated",
          "div": "<div xmlns=\"http://www.w3.org/1999/xhtml\">Provenance for SYNDERAI Synthetic Example Data Resource</div>"
        },
        "recorded": "2020-04-27T08:55:50Z"
      }
    },
    {
      "fullUrl": "urn:uuid:d03e0d05-6768-4bc5-a37b-8fd455d72064",
      "resource": {
        "resourceType": "PractitionerRole",
        "id": "d03e0d05-6768-4bc5-a37b-8fd455d72064",
        "meta": {
          "profile": [
            "http://hl7.eu/fhir/base/StructureDefinition/practitionerRole-eu"
          ]
        },
        "text": {
          "status": "generated",
          "div": "<div xmlns=\"http://www.w3.org/1999/xhtml\">Laboratory Role Id: d03e0d05-6768-4bc5-a37b-8fd455d72064</div>"
        },
        "practitioner": {
          "reference": "urn:uuid:2b53203d-57c1-4774-93a1-658c70069597"
        }
      }
    },
    {
      "fullUrl": "urn:uuid:2b53203d-57c1-4774-93a1-658c70069597",
      "resource": {
        "resourceType": "Practitioner",
        "id": "2b53203d-57c1-4774-93a1-658c70069597",
        "meta": {
          "profile": [
            "http://hl7.eu/fhir/base/StructureDefinition/practitioner-eu"
          ]
        },
        "identifier": [
          {
            "assigner": {
              "display": "HL7 Europe"
            },
            "system": "urn:oid:2.16.840.1.113883.2.51.999",
            "value": "dd9e84f5-c846-4760-a633-8707bbaa47d8"
          }
        ],
        "name": [
          {
            "prefix": [
              "dr"
            ],
            "given": [
              "Ex"
            ],
            "family": "Ample"
          }
        ],
        "address": [
          {
            "line": [
              "Laboratoire Central Européenne",
              "Boulevard du Jardin Botanique 32"
            ],
            "postalCode": "1000",
            "city": "Brussels",
            "country": "Belgium"
          }
        ],
        "text": {
          "status": "generated",
          "div": "<div xmlns=\"http://www.w3.org/1999/xhtml\">Laboratory: Laboratoire Central Européenne, 1000 Brussels, Belgium</div>"
        }
      }
    }
  ],
  "type": "document",
  "timestamp": "2020-04-27T08:55:50Z"
}
