{
  "resourceType": "Bundle",
  "id": "76c70f48-2063-4e03-9502-233bf626b131",
  "meta": {
    "profile": [
      "http://hl7.eu/fhir/laboratory/StructureDefinition/Bundle-eu-lab"
    ]
  },
  "identifier": {
    "assigner": {
      "display": "HL7 Europe"
    },
    "system": "urn:oid:2.16.840.1.113883.2.51.999",
    "value": "d299e3cc-6be3-4c44-ae93-61a3972016fe"
  },
  "entry": [
    {
      "fullUrl": "urn:uuid:0a230717-b41c-43fe-9165-f11c5d573f86",
      "resource": {
        "resourceType": "Composition",
        "id": "0a230717-b41c-43fe-9165-f11c5d573f86",
        "meta": {
          "profile": [
            "http://hl7.eu/fhir/laboratory/StructureDefinition/Composition-eu-lab"
          ]
        },
        "identifier": {
          "assigner": {
            "display": "HL7 Europe"
          },
          "system": "urn:oid:2.16.840.1.113883.2.51.999",
          "value": "3e14b896-e337-48fa-be24-43a7d6ac4143"
        },
        "author": [
          {
            "reference": "urn:uuid:0580ae8c-8f21-43a2-8a44-f5e297ff953d"
          }
        ],
        "category": [
          {
            "coding": [
              {
                "code": "26436-6",
                "system": "http://loinc.org",
                "display": "Laboratory studies (set)"
              }
            ]
          }
        ],
        "type": {
          "coding": [
            {
              "code": "11502-2",
              "system": "http://loinc.org",
              "display": "Laboratory report"
            }
          ],
          "text": "Laboratory Report"
        },
        "section": [
          {
            "code": {
              "coding": [
                {
                  "code": "26436-6",
                  "system": "http://loinc.org",
                  "display": "Laboratory studies (set)"
                }
              ],
              "text": "Laboratory studies"
            },
            "section": [
              {
                "code": {
                  "coding": [
                    {
                      "code": "$18719-5",
                      "system": "http://loinc.org",
                      "display": "Chemistry studies (set)"
                    }
                  ],
                  "text": "Chemistry"
                },
                "entry": [
                  {
                    "reference": "urn:uuid:a4478b31-d581-4bdc-abe9-4d9de18ccaad"
                  },
                  {
                    "reference": "urn:uuid:5d43610e-515d-4e38-8c76-b82b6a601a90"
                  },
                  {
                    "reference": "urn:uuid:e6f6df4b-7d01-4509-9335-cbf7aba8f3d1"
                  },
                  {
                    "reference": "urn:uuid:b673e670-77f9-42d7-989f-5440538ef019"
                  },
                  {
                    "reference": "urn:uuid:e1129585-3fa9-4f39-acc1-87f3fd7a5ab0"
                  },
                  {
                    "reference": "urn:uuid:f515e92c-276c-4adf-8409-99caf811a044"
                  },
                  {
                    "reference": "urn:uuid:616c61ff-4b04-4674-a589-65a073d0eee4"
                  },
                  {
                    "reference": "urn:uuid:2a1404bb-64ab-413c-9864-03b355f52374"
                  },
                  {
                    "reference": "urn:uuid:130d8a1f-1cb3-4bd3-953b-cc85492fd7f6"
                  },
                  {
                    "reference": "urn:uuid:89621324-852e-4624-9603-9ef08a576bdb"
                  },
                  {
                    "reference": "urn:uuid:e45565bb-f7b9-4fe4-bb31-866e1f52b60d"
                  },
                  {
                    "reference": "urn:uuid:9cb48108-4006-4555-8123-03c85b7ca9e0"
                  },
                  {
                    "reference": "urn:uuid:637b9e26-b265-43ae-a09f-00ef8cbd2780"
                  }
                ],
                "text": {
                  "status": "generated",
                  "div": "<div xmlns=\"http://www.w3.org/1999/xhtml\"><h3>Chemistry</h3><table class=\"hl7__eu__lab__report\"><thead><tr><th>Test</th><th>17-FEB-2020</th><th>Reference&#xA0;Range</th><th>Unit</th></tr></thead><tbody><tr><td>Hemoglobin A1c/Hemoglobin.total in Blood</td><td><strong>6.0 H</strong></td><td>4.8 - 5.7</td><td>%</td></tr><tr><td>Glucose [Mass/volume] in Blood</td><td>90.7</td><td>70 - 99</td><td>mg/dL</td></tr><tr><td>Urea nitrogen [Mass/volume] in Blood</td><td>8.9</td><td>7 - 20</td><td>mg/dL</td></tr><tr><td>Creatinine [Mass/volume] in Blood</td><td>1.0</td><td>0.6 - 1.1</td><td>mg/dL</td></tr><tr><td>Calcium [Mass/volume] in Blood</td><td>9.7</td><td>8.5 - 10.5</td><td>mg/dL</td></tr><tr><td>Sodium [Moles/volume] in Blood</td><td>137.1</td><td>135 - 145</td><td>mmol/L</td></tr><tr><td>Potassium [Moles/volume] in Blood</td><td>4.8</td><td>3.5 - 5.3</td><td>mmol/L</td></tr><tr><td>Chloride [Moles/volume] in Blood</td><td>102.8</td><td>98 - 114</td><td>mmol/L</td></tr><tr><td>Carbon dioxide, total [Moles/volume] in Blood</td><td>22.9</td><td>22 - 29</td><td>mmol/L</td></tr><tr><td>Cholesterol [Mass/volume] in Serum or Plasma</td><td><strong>212.8 H</strong></td><td>125 - 200</td><td>mg/dL</td></tr><tr><td>Triglyceride [Mass/volume] in Serum or Plasma</td><td>116.2</td><td>35 - 150</td><td>mg/dL</td></tr><tr><td>Cholesterol in LDL [Mass/volume] in Serum or Plasma by Direct assay</td><td>127.3</td><td>0 - 130</td><td>mg/dL</td></tr><tr><td>Cholesterol in HDL [Mass/volume] in Serum or Plasma</td><td><strong>62.2 H</strong></td><td>40 - 60</td><td>mg/dL</td></tr></tbody></table></div>"
                },
                "title": "Chemistry"
              }
            ],
            "title": "Laboratory Report"
          },
          {
            "text": {
              "status": "generated",
              "div": "<div xmlns=\"http://www.w3.org/1999/xhtml\"><h3>Annotation</h3><table class=\"hl7__eu__lab__report\"><tr><th>Conclusion and Recommendations based on this report and previous findings known to us</th></tr><tr><td>The patient shows mildly elevated HbA1c, indicating impaired glucose regulation or possible prediabetes. Total cholesterol and HDL are slightly above the reference range, while LDL and triglycerides are within normal limits. Renal function, electrolytes, and other parameters are unremarkable. Recommend clinical correlation for cardiovascular risk and glycemic control, with consideration of lifestyle modification and follow-up.</td></tr></table></div>"
            },
            "code": {
              "coding": [
                {
                  "system": "http://loinc.org",
                  "code": "48767-8",
                  "display": "Annotation comment"
                }
              ]
            },
            "title": "Annotation comment"
          }
        ],
        "status": "final",
        "subject": {
          "reference": "urn:uuid:64c31b17-79e4-4539-8c65-875901cef8d3",
          "display": "Pauline Grenier"
        },
        "date": "2020-02-17T12:54:46Z",
        "title": "Laboratory Report",
        "confidentiality": "N"
      }
    },
    {
      "fullUrl": "urn:uuid:c71b7fb4-7fb0-4876-9f01-e7a81d4d3e49",
      "resource": {
        "resourceType": "DiagnosticReport",
        "id": "c71b7fb4-7fb0-4876-9f01-e7a81d4d3e49",
        "meta": {
          "profile": [
            "http://hl7.eu/fhir/laboratory/StructureDefinition/DiagnosticReport-eu-lab"
          ]
        },
        "identifier": [
          {
            "assigner": {
              "display": "HL7 Europe"
            },
            "system": "urn:oid:2.16.840.1.113883.2.51.999",
            "value": "8f331046-47b3-40cc-85cd-979c21ab9b51"
          }
        ],
        "extension": [
          {
            "url": "http://hl7.org/fhir/5.0/StructureDefinition/extension-DiagnosticReport.composition",
            "valueReference": {
              "reference": "urn:uuid:3e14b896-e337-48fa-be24-43a7d6ac4143"
            }
          }
        ],
        "category": [
          {
            "coding": [
              {
                "code": "26436-6",
                "system": "http://loinc.org",
                "display": "Laboratory studies (set)"
              }
            ]
          }
        ],
        "specimen": [
          {
            "reference": "urn:uuid:4d304612-afd0-4911-9fb3-9a7131c120bd"
          },
          {
            "reference": "urn:uuid:5b766b0a-ebff-40ac-9cfa-ebd415755e90"
          }
        ],
        "result": [
          {
            "reference": "urn:uuid:a4478b31-d581-4bdc-abe9-4d9de18ccaad"
          },
          {
            "reference": "urn:uuid:5d43610e-515d-4e38-8c76-b82b6a601a90"
          },
          {
            "reference": "urn:uuid:e6f6df4b-7d01-4509-9335-cbf7aba8f3d1"
          },
          {
            "reference": "urn:uuid:b673e670-77f9-42d7-989f-5440538ef019"
          },
          {
            "reference": "urn:uuid:e1129585-3fa9-4f39-acc1-87f3fd7a5ab0"
          },
          {
            "reference": "urn:uuid:f515e92c-276c-4adf-8409-99caf811a044"
          },
          {
            "reference": "urn:uuid:616c61ff-4b04-4674-a589-65a073d0eee4"
          },
          {
            "reference": "urn:uuid:2a1404bb-64ab-413c-9864-03b355f52374"
          },
          {
            "reference": "urn:uuid:130d8a1f-1cb3-4bd3-953b-cc85492fd7f6"
          },
          {
            "reference": "urn:uuid:89621324-852e-4624-9603-9ef08a576bdb"
          },
          {
            "reference": "urn:uuid:e45565bb-f7b9-4fe4-bb31-866e1f52b60d"
          },
          {
            "reference": "urn:uuid:9cb48108-4006-4555-8123-03c85b7ca9e0"
          },
          {
            "reference": "urn:uuid:637b9e26-b265-43ae-a09f-00ef8cbd2780"
          }
        ],
        "status": "registered",
        "code": {
          "coding": [
            {
              "code": "11502-2",
              "system": "http://loinc.org",
              "display": "Laboratory report"
            }
          ]
        },
        "subject": {
          "reference": "urn:uuid:64c31b17-79e4-4539-8c65-875901cef8d3",
          "display": "Pauline Grenier"
        }
      }
    },
    {
      "fullUrl": "urn:uuid:64c31b17-79e4-4539-8c65-875901cef8d3",
      "resource": {
        "resourceType": "Patient",
        "id": "64c31b17-79e4-4539-8c65-875901cef8d3",
        "meta": {
          "security": [
            {
              "system": "http://terminology.hl7.org/CodeSystem/v3-ActReason",
              "code": "HTEST"
            },
            {
              "system": "http://terminology.hl7.org/CodeSystem/v3-ActReason",
              "code": "TRAIN"
            }
          ],
          "tag": [
            {
              "system": "https://synderai.net/fhir/CodeSystem/tags",
              "code": "synthetic",
              "display": "SYNDERAI Synthetic data"
            }
          ],
          "profile": [
            "http://hl7.eu/fhir/base/StructureDefinition/patient-eu-core"
          ]
        },
        "identifier": [
          {
            "type": {
              "coding": [
                {
                  "code": "PT",
                  "system": "http://terminology.hl7.org/CodeSystem/v2-0203"
                }
              ]
            },
            "system": "http://ec.europa.eu/identifier/eci",
            "value": "6776-872657-1"
          },
          {
            "type": {
              "coding": [
                {
                  "code": "MR",
                  "system": "http://terminology.hl7.org/CodeSystem/v2-0203"
                }
              ]
            },
            "system": "http://local.setting.eu/identifier",
            "value": "a90ff566-3092-3af0-91f2-c0514ba66d35"
          }
        ],
        "name": [
          {
            "family": "Grenier"
          },
          {
            "given": [
              "Pauline"
            ]
          },
          {
            "text": "Pauline Grenier"
          }
        ],
        "address": [
          {
            "line": [
              "114, avenue Georges"
            ],
            "use": "home",
            "type": "physical",
            "postalCode": "71110",
            "city": "Caron",
            "country": "France"
          }
        ],
        "telecom": [
          {
            "system": "phone",
            "value": "+33 4 26 27 51 56"
          }
        ],
        "extension": [
          {
            "url": "http://hl7.org/fhir/StructureDefinition/patient-nationality",
            "valueCodeableConcept": {
              "coding": [
                {
                  "code": "FR",
                  "system": "http://hl7.org/fhir/ValueSet/country"
                }
              ]
            }
          }
        ],
        "text": {
          "status": "generated",
          "div": "<div xmlns=\"http://www.w3.org/1999/xhtml\"><table class=\"hl7__ips\"><tr><td>Pauline Grenier</td><td>female</td><td>03-May-1971</td></tr></table></div>"
        },
        "gender": "female",
        "birthDate": "1971-05-03"
      }
    },
    {
      "fullUrl": "urn:uuid:3374c7ff-2369-4566-ad3f-594f6ba41d12",
      "resource": {
        "resourceType": "ServiceRequest",
        "id": "3374c7ff-2369-4566-ad3f-594f6ba41d12",
        "meta": {
          "profile": [
            "http://hl7.eu/fhir/laboratory/StructureDefinition/ServiceRequest-eu-lab"
          ]
        },
        "identifier": [
          {
            "system": "http://example.org",
            "value": "bdb76b4f-6563-4c64-8333-e358f5bf9881"
          }
        ],
        "specimen": [
          {
            "reference": "urn:uuid:4d304612-afd0-4911-9fb3-9a7131c120bd"
          },
          {
            "reference": "urn:uuid:5b766b0a-ebff-40ac-9cfa-ebd415755e90"
          }
        ],
        "reasonCode": [
          {
            "coding": [
              {
                "code": "59621000",
                "system": "http://snomed.info/sct",
                "display": "Essential hypertension"
              }
            ]
          },
          {
            "coding": [
              {
                "code": "237602007",
                "system": "http://snomed.info/sct",
                "display": "Metabolic syndrome X"
              }
            ]
          },
          {
            "coding": [
              {
                "code": "15777000",
                "system": "http://snomed.info/sct",
                "display": "Prediabetes"
              }
            ]
          }
        ],
        "status": "active",
        "intent": "order",
        "code": {
          "coding": [
            {
              "code": "108252007",
              "system": "http://snomed.info/sct",
              "display": "Laboratory procedure"
            }
          ]
        },
        "subject": {
          "reference": "urn:uuid:64c31b17-79e4-4539-8c65-875901cef8d3",
          "display": "Pauline Grenier"
        },
        "requester": {
          "reference": "urn:uuid:82e8ab99-8066-4c04-953f-066b88e96347"
        }
      }
    },
    {
      "fullUrl": "urn:uuid:82e8ab99-8066-4c04-953f-066b88e96347",
      "resource": {
        "resourceType": "PractitionerRole",
        "id": "82e8ab99-8066-4c04-953f-066b88e96347",
        "meta": {
          "profile": [
            "http://hl7.eu/fhir/base/StructureDefinition/practitionerRole-eu"
          ]
        },
        "text": {
          "status": "generated",
          "div": "<div xmlns=\"http://www.w3.org/1999/xhtml\">Provider Role Id: 82e8ab99-8066-4c04-953f-066b88e96347</div>"
        },
        "organization": {
          "reference": "urn:uuid:b3772e2b-5f59-4a88-90bb-a76eb1d04a93"
        }
      }
    },
    {
      "fullUrl": "urn:uuid:b3772e2b-5f59-4a88-90bb-a76eb1d04a93",
      "resource": {
        "resourceType": "Organization",
        "id": "b3772e2b-5f59-4a88-90bb-a76eb1d04a93",
        "meta": {
          "profile": [
            "http://hl7.eu/fhir/base/StructureDefinition/organization-eu"
          ]
        },
        "identifier": [
          {
            "assigner": {
              "display": "HL7 Europe"
            },
            "system": "urn:oid:2.16.840.1.113883.2.51.999",
            "value": "d828582e-c4b0-44d9-8fd3-e003c0617e1c"
          }
        ],
        "address": [
          {
            "city": "Le Creusot",
            "postalCode": "71200",
            "country": "France"
          }
        ],
        "text": {
          "status": "generated",
          "div": "<div xmlns=\"http://www.w3.org/1999/xhtml\">Provider Organization: Hôpital du Creusot - Site Foch</div>"
        },
        "name": "Hôpital du Creusot - Site Foch"
      }
    },
    {
      "fullUrl": "urn:uuid:4d304612-afd0-4911-9fb3-9a7131c120bd",
      "resource": {
        "resourceType": "Specimen",
        "id": "4d304612-afd0-4911-9fb3-9a7131c120bd",
        "meta": {
          "profile": [
            "http://hl7.eu/fhir/laboratory/StructureDefinition/Specimen-eu-lab"
          ]
        },
        "collection": {
          "collectedDateTime": "2020-02-17"
        },
        "text": {
          "status": "generated",
          "div": "<div xmlns=\"http://www.w3.org/1999/xhtml\"><table class=\"hl7__eu__lab__report\"><tr><th>Specimen</th><th>Collection Date</th></tr><tr><td>Whole blood specimen (specimen)</td><td><span class=\"nb\">17-Feb-2020</span></td></tr></table></div>"
        },
        "type": {
          "coding": [
            {
              "code": "258580003",
              "system": "http://snomed.info/sct",
              "display": "Whole blood specimen (specimen)"
            }
          ]
        }
      }
    },
    {
      "fullUrl": "urn:uuid:5b766b0a-ebff-40ac-9cfa-ebd415755e90",
      "resource": {
        "resourceType": "Specimen",
        "id": "5b766b0a-ebff-40ac-9cfa-ebd415755e90",
        "meta": {
          "profile": [
            "http://hl7.eu/fhir/laboratory/StructureDefinition/Specimen-eu-lab"
          ]
        },
        "collection": {
          "collectedDateTime": "2020-02-17"
        },
        "text": {
          "status": "generated",
          "div": "<div xmlns=\"http://www.w3.org/1999/xhtml\"><table class=\"hl7__eu__lab__report\"><tr><th>Specimen</th><th>Collection Date</th></tr><tr><td>Acellular blood (serum or plasma) specimen</td><td><span class=\"nb\">17-Feb-2020</span></td></tr></table></div>"
        },
        "type": {
          "coding": [
            {
              "code": "122592007",
              "system": "http://snomed.info/sct",
              "display": "Acellular blood (serum or plasma) specimen"
            }
          ]
        }
      }
    },
    {
      "fullUrl": "urn:uuid:a4478b31-d581-4bdc-abe9-4d9de18ccaad",
      "resource": {
        "resourceType": "Observation",
        "id": "a4478b31-d581-4bdc-abe9-4d9de18ccaad",
        "meta": {
          "profile": [
            "http://hl7.eu/fhir/laboratory/StructureDefinition/Observation-resultslab-eu-lab"
          ]
        },
        "performer": [
          {
            "display": "The Central European Lab"
          }
        ],
        "category": [
          {
            "coding": [
              {
                "system": "http://terminology.hl7.org/CodeSystem/observation-category",
                "code": "laboratory"
              }
            ]
          }
        ],
        "code": {
          "coding": [
            {
              "code": "4548-4",
              "system": "http://loinc.org",
              "display": "Hemoglobin A1c/Hemoglobin.total in Blood"
            }
          ],
          "text": "Hemoglobin A1c/Hemoglobin.total in Blood"
        },
        "valueQuantity": {
          "system": "http://unitsofmeasure.org",
          "value": 6,
          "unit": "%",
          "code": "%"
        },
        "referenceRange": [
          {
            "low": {
              "value": 4.8,
              "code": "%",
              "system": "http://unitsofmeasure.org"
            }
          },
          {
            "high": {
              "value": 5.7,
              "code": "%",
              "system": "http://unitsofmeasure.org"
            }
          }
        ],
        "interpretation": [
          {
            "coding": [
              {
                "code": "H",
                "system": "http://terminology.hl7.org/CodeSystem/v3-ObservationInterpretation",
                "display": "High"
              }
            ]
          }
        ],
        "text": {
          "status": "generated",
          "div": "<div xmlns=\"http://www.w3.org/1999/xhtml\"><table class=\"hl7__eu__lab__report\"><tr><th>Test</th><th>17-Feb-2020</th><th>Reference&#xA0;Range</th><th>Unit</th></tr><tr><td>Hemoglobin A1c/Hemoglobin.total in Blood</td><td>6.0</td><td>4.8 - 5.7</td><td>H</td><td>%</td></tr></table></div>"
        },
        "status": "final",
        "subject": {
          "reference": "urn:uuid:64c31b17-79e4-4539-8c65-875901cef8d3",
          "display": "Pauline Grenier"
        },
        "effectiveDateTime": "2020-02-17T11:54:46Z",
        "specimen": {
          "reference": "urn:uuid:4d304612-afd0-4911-9fb3-9a7131c120bd"
        }
      }
    },
    {
      "fullUrl": "urn:uuid:5d43610e-515d-4e38-8c76-b82b6a601a90",
      "resource": {
        "resourceType": "Observation",
        "id": "5d43610e-515d-4e38-8c76-b82b6a601a90",
        "meta": {
          "profile": [
            "http://hl7.eu/fhir/laboratory/StructureDefinition/Observation-resultslab-eu-lab"
          ]
        },
        "performer": [
          {
            "display": "The Central European Lab"
          }
        ],
        "category": [
          {
            "coding": [
              {
                "system": "http://terminology.hl7.org/CodeSystem/observation-category",
                "code": "laboratory"
              }
            ]
          }
        ],
        "code": {
          "coding": [
            {
              "code": "2339-0",
              "system": "http://loinc.org",
              "display": "Glucose [Mass/volume] in Blood"
            }
          ],
          "text": "Glucose [Mass/volume] in Blood"
        },
        "valueQuantity": {
          "system": "http://unitsofmeasure.org",
          "value": 90.7,
          "unit": "mg/dL",
          "code": "mg/dL"
        },
        "referenceRange": [
          {
            "low": {
              "value": 70,
              "code": "mg/dL",
              "system": "http://unitsofmeasure.org"
            }
          },
          {
            "high": {
              "value": 99,
              "code": "mg/dL",
              "system": "http://unitsofmeasure.org"
            }
          }
        ],
        "text": {
          "status": "generated",
          "div": "<div xmlns=\"http://www.w3.org/1999/xhtml\"><table class=\"hl7__eu__lab__report\"><tr><th>Test</th><th>17-Feb-2020</th><th>Reference&#xA0;Range</th><th>Unit</th></tr><tr><td>Glucose [Mass/volume] in Blood</td><td>90.7</td><td>70 - 99</td><td></td><td>mg/dL</td></tr></table></div>"
        },
        "status": "final",
        "subject": {
          "reference": "urn:uuid:64c31b17-79e4-4539-8c65-875901cef8d3",
          "display": "Pauline Grenier"
        },
        "effectiveDateTime": "2020-02-17T11:54:46Z",
        "specimen": {
          "reference": "urn:uuid:4d304612-afd0-4911-9fb3-9a7131c120bd"
        }
      }
    },
    {
      "fullUrl": "urn:uuid:e6f6df4b-7d01-4509-9335-cbf7aba8f3d1",
      "resource": {
        "resourceType": "Observation",
        "id": "e6f6df4b-7d01-4509-9335-cbf7aba8f3d1",
        "meta": {
          "profile": [
            "http://hl7.eu/fhir/laboratory/StructureDefinition/Observation-resultslab-eu-lab"
          ]
        },
        "performer": [
          {
            "display": "The Central European Lab"
          }
        ],
        "category": [
          {
            "coding": [
              {
                "system": "http://terminology.hl7.org/CodeSystem/observation-category",
                "code": "laboratory"
              }
            ]
          }
        ],
        "code": {
          "coding": [
            {
              "code": "6299-2",
              "system": "http://loinc.org",
              "display": "Urea nitrogen [Mass/volume] in Blood"
            }
          ],
          "text": "Urea nitrogen [Mass/volume] in Blood"
        },
        "valueQuantity": {
          "system": "http://unitsofmeasure.org",
          "value": 8.9,
          "unit": "mg/dL",
          "code": "mg/dL"
        },
        "referenceRange": [
          {
            "low": {
              "value": 7,
              "code": "mg/dL",
              "system": "http://unitsofmeasure.org"
            }
          },
          {
            "high": {
              "value": 20,
              "code": "mg/dL",
              "system": "http://unitsofmeasure.org"
            }
          }
        ],
        "text": {
          "status": "generated",
          "div": "<div xmlns=\"http://www.w3.org/1999/xhtml\"><table class=\"hl7__eu__lab__report\"><tr><th>Test</th><th>17-Feb-2020</th><th>Reference&#xA0;Range</th><th>Unit</th></tr><tr><td>Urea nitrogen [Mass/volume] in Blood</td><td>8.9</td><td>7 - 20</td><td></td><td>mg/dL</td></tr></table></div>"
        },
        "status": "final",
        "subject": {
          "reference": "urn:uuid:64c31b17-79e4-4539-8c65-875901cef8d3",
          "display": "Pauline Grenier"
        },
        "effectiveDateTime": "2020-02-17T11:54:46Z",
        "specimen": {
          "reference": "urn:uuid:4d304612-afd0-4911-9fb3-9a7131c120bd"
        }
      }
    },
    {
      "fullUrl": "urn:uuid:b673e670-77f9-42d7-989f-5440538ef019",
      "resource": {
        "resourceType": "Observation",
        "id": "b673e670-77f9-42d7-989f-5440538ef019",
        "meta": {
          "profile": [
            "http://hl7.eu/fhir/laboratory/StructureDefinition/Observation-resultslab-eu-lab"
          ]
        },
        "performer": [
          {
            "display": "The Central European Lab"
          }
        ],
        "category": [
          {
            "coding": [
              {
                "system": "http://terminology.hl7.org/CodeSystem/observation-category",
                "code": "laboratory"
              }
            ]
          }
        ],
        "code": {
          "coding": [
            {
              "code": "38483-4",
              "system": "http://loinc.org",
              "display": "Creatinine [Mass/volume] in Blood"
            }
          ],
          "text": "Creatinine [Mass/volume] in Blood"
        },
        "valueQuantity": {
          "system": "http://unitsofmeasure.org",
          "value": 1,
          "unit": "mg/dL",
          "code": "mg/dL"
        },
        "referenceRange": [
          {
            "low": {
              "value": 0.6,
              "code": "mg/dL",
              "system": "http://unitsofmeasure.org"
            }
          },
          {
            "high": {
              "value": 1.1,
              "code": "mg/dL",
              "system": "http://unitsofmeasure.org"
            }
          }
        ],
        "text": {
          "status": "generated",
          "div": "<div xmlns=\"http://www.w3.org/1999/xhtml\"><table class=\"hl7__eu__lab__report\"><tr><th>Test</th><th>17-Feb-2020</th><th>Reference&#xA0;Range</th><th>Unit</th></tr><tr><td>Creatinine [Mass/volume] in Blood</td><td>1.0</td><td>0.6 - 1.1</td><td></td><td>mg/dL</td></tr></table></div>"
        },
        "status": "final",
        "subject": {
          "reference": "urn:uuid:64c31b17-79e4-4539-8c65-875901cef8d3",
          "display": "Pauline Grenier"
        },
        "effectiveDateTime": "2020-02-17T11:54:46Z",
        "specimen": {
          "reference": "urn:uuid:4d304612-afd0-4911-9fb3-9a7131c120bd"
        }
      }
    },
    {
      "fullUrl": "urn:uuid:e1129585-3fa9-4f39-acc1-87f3fd7a5ab0",
      "resource": {
        "resourceType": "Observation",
        "id": "e1129585-3fa9-4f39-acc1-87f3fd7a5ab0",
        "meta": {
          "profile": [
            "http://hl7.eu/fhir/laboratory/StructureDefinition/Observation-resultslab-eu-lab"
          ]
        },
        "performer": [
          {
            "display": "The Central European Lab"
          }
        ],
        "category": [
          {
            "coding": [
              {
                "system": "http://terminology.hl7.org/CodeSystem/observation-category",
                "code": "laboratory"
              }
            ]
          }
        ],
        "code": {
          "coding": [
            {
              "code": "49765-1",
              "system": "http://loinc.org",
              "display": "Calcium [Mass/volume] in Blood"
            }
          ],
          "text": "Calcium [Mass/volume] in Blood"
        },
        "valueQuantity": {
          "system": "http://unitsofmeasure.org",
          "value": 9.7,
          "unit": "mg/dL",
          "code": "mg/dL"
        },
        "referenceRange": [
          {
            "low": {
              "value": 8.5,
              "code": "mg/dL",
              "system": "http://unitsofmeasure.org"
            }
          },
          {
            "high": {
              "value": 10.5,
              "code": "mg/dL",
              "system": "http://unitsofmeasure.org"
            }
          }
        ],
        "text": {
          "status": "generated",
          "div": "<div xmlns=\"http://www.w3.org/1999/xhtml\"><table class=\"hl7__eu__lab__report\"><tr><th>Test</th><th>17-Feb-2020</th><th>Reference&#xA0;Range</th><th>Unit</th></tr><tr><td>Calcium [Mass/volume] in Blood</td><td>9.7</td><td>8.5 - 10.5</td><td></td><td>mg/dL</td></tr></table></div>"
        },
        "status": "final",
        "subject": {
          "reference": "urn:uuid:64c31b17-79e4-4539-8c65-875901cef8d3",
          "display": "Pauline Grenier"
        },
        "effectiveDateTime": "2020-02-17T11:54:46Z",
        "specimen": {
          "reference": "urn:uuid:4d304612-afd0-4911-9fb3-9a7131c120bd"
        }
      }
    },
    {
      "fullUrl": "urn:uuid:f515e92c-276c-4adf-8409-99caf811a044",
      "resource": {
        "resourceType": "Observation",
        "id": "f515e92c-276c-4adf-8409-99caf811a044",
        "meta": {
          "profile": [
            "http://hl7.eu/fhir/laboratory/StructureDefinition/Observation-resultslab-eu-lab"
          ]
        },
        "performer": [
          {
            "display": "The Central European Lab"
          }
        ],
        "category": [
          {
            "coding": [
              {
                "system": "http://terminology.hl7.org/CodeSystem/observation-category",
                "code": "laboratory"
              }
            ]
          }
        ],
        "code": {
          "coding": [
            {
              "code": "2947-0",
              "system": "http://loinc.org",
              "display": "Sodium [Moles/volume] in Blood"
            }
          ],
          "text": "Sodium [Moles/volume] in Blood"
        },
        "valueQuantity": {
          "system": "http://unitsofmeasure.org",
          "value": 137.1,
          "unit": "mmol/L",
          "code": "mmol/L"
        },
        "referenceRange": [
          {
            "low": {
              "value": 135,
              "code": "mmol/L",
              "system": "http://unitsofmeasure.org"
            }
          },
          {
            "high": {
              "value": 145,
              "code": "mmol/L",
              "system": "http://unitsofmeasure.org"
            }
          }
        ],
        "text": {
          "status": "generated",
          "div": "<div xmlns=\"http://www.w3.org/1999/xhtml\"><table class=\"hl7__eu__lab__report\"><tr><th>Test</th><th>17-Feb-2020</th><th>Reference&#xA0;Range</th><th>Unit</th></tr><tr><td>Sodium [Moles/volume] in Blood</td><td>137.1</td><td>135 - 145</td><td></td><td>mmol/L</td></tr></table></div>"
        },
        "status": "final",
        "subject": {
          "reference": "urn:uuid:64c31b17-79e4-4539-8c65-875901cef8d3",
          "display": "Pauline Grenier"
        },
        "effectiveDateTime": "2020-02-17T11:54:46Z",
        "specimen": {
          "reference": "urn:uuid:4d304612-afd0-4911-9fb3-9a7131c120bd"
        }
      }
    },
    {
      "fullUrl": "urn:uuid:616c61ff-4b04-4674-a589-65a073d0eee4",
      "resource": {
        "resourceType": "Observation",
        "id": "616c61ff-4b04-4674-a589-65a073d0eee4",
        "meta": {
          "profile": [
            "http://hl7.eu/fhir/laboratory/StructureDefinition/Observation-resultslab-eu-lab"
          ]
        },
        "performer": [
          {
            "display": "The Central European Lab"
          }
        ],
        "category": [
          {
            "coding": [
              {
                "system": "http://terminology.hl7.org/CodeSystem/observation-category",
                "code": "laboratory"
              }
            ]
          }
        ],
        "code": {
          "coding": [
            {
              "code": "6298-4",
              "system": "http://loinc.org",
              "display": "Potassium [Moles/volume] in Blood"
            }
          ],
          "text": "Potassium [Moles/volume] in Blood"
        },
        "valueQuantity": {
          "system": "http://unitsofmeasure.org",
          "value": 4.8,
          "unit": "mmol/L",
          "code": "mmol/L"
        },
        "referenceRange": [
          {
            "low": {
              "value": 3.5,
              "code": "mmol/L",
              "system": "http://unitsofmeasure.org"
            }
          },
          {
            "high": {
              "value": 5.3,
              "code": "mmol/L",
              "system": "http://unitsofmeasure.org"
            }
          }
        ],
        "text": {
          "status": "generated",
          "div": "<div xmlns=\"http://www.w3.org/1999/xhtml\"><table class=\"hl7__eu__lab__report\"><tr><th>Test</th><th>17-Feb-2020</th><th>Reference&#xA0;Range</th><th>Unit</th></tr><tr><td>Potassium [Moles/volume] in Blood</td><td>4.8</td><td>3.5 - 5.3</td><td></td><td>mmol/L</td></tr></table></div>"
        },
        "status": "final",
        "subject": {
          "reference": "urn:uuid:64c31b17-79e4-4539-8c65-875901cef8d3",
          "display": "Pauline Grenier"
        },
        "effectiveDateTime": "2020-02-17T11:54:46Z",
        "specimen": {
          "reference": "urn:uuid:4d304612-afd0-4911-9fb3-9a7131c120bd"
        }
      }
    },
    {
      "fullUrl": "urn:uuid:2a1404bb-64ab-413c-9864-03b355f52374",
      "resource": {
        "resourceType": "Observation",
        "id": "2a1404bb-64ab-413c-9864-03b355f52374",
        "meta": {
          "profile": [
            "http://hl7.eu/fhir/laboratory/StructureDefinition/Observation-resultslab-eu-lab"
          ]
        },
        "performer": [
          {
            "display": "The Central European Lab"
          }
        ],
        "category": [
          {
            "coding": [
              {
                "system": "http://terminology.hl7.org/CodeSystem/observation-category",
                "code": "laboratory"
              }
            ]
          }
        ],
        "code": {
          "coding": [
            {
              "code": "2069-3",
              "system": "http://loinc.org",
              "display": "Chloride [Moles/volume] in Blood"
            }
          ],
          "text": "Chloride [Moles/volume] in Blood"
        },
        "valueQuantity": {
          "system": "http://unitsofmeasure.org",
          "value": 102.8,
          "unit": "mmol/L",
          "code": "mmol/L"
        },
        "referenceRange": [
          {
            "low": {
              "value": 98,
              "code": "mmol/L",
              "system": "http://unitsofmeasure.org"
            }
          },
          {
            "high": {
              "value": 114,
              "code": "mmol/L",
              "system": "http://unitsofmeasure.org"
            }
          }
        ],
        "text": {
          "status": "generated",
          "div": "<div xmlns=\"http://www.w3.org/1999/xhtml\"><table class=\"hl7__eu__lab__report\"><tr><th>Test</th><th>17-Feb-2020</th><th>Reference&#xA0;Range</th><th>Unit</th></tr><tr><td>Chloride [Moles/volume] in Blood</td><td>102.8</td><td>98 - 114</td><td></td><td>mmol/L</td></tr></table></div>"
        },
        "status": "final",
        "subject": {
          "reference": "urn:uuid:64c31b17-79e4-4539-8c65-875901cef8d3",
          "display": "Pauline Grenier"
        },
        "effectiveDateTime": "2020-02-17T11:54:46Z",
        "specimen": {
          "reference": "urn:uuid:4d304612-afd0-4911-9fb3-9a7131c120bd"
        }
      }
    },
    {
      "fullUrl": "urn:uuid:130d8a1f-1cb3-4bd3-953b-cc85492fd7f6",
      "resource": {
        "resourceType": "Observation",
        "id": "130d8a1f-1cb3-4bd3-953b-cc85492fd7f6",
        "meta": {
          "profile": [
            "http://hl7.eu/fhir/laboratory/StructureDefinition/Observation-resultslab-eu-lab"
          ]
        },
        "performer": [
          {
            "display": "The Central European Lab"
          }
        ],
        "category": [
          {
            "coding": [
              {
                "system": "http://terminology.hl7.org/CodeSystem/observation-category",
                "code": "laboratory"
              }
            ]
          }
        ],
        "code": {
          "coding": [
            {
              "code": "20565-8",
              "system": "http://loinc.org",
              "display": "Carbon dioxide, total [Moles/volume] in Blood"
            }
          ],
          "text": "Carbon dioxide, total [Moles/volume] in Blood"
        },
        "valueQuantity": {
          "system": "http://unitsofmeasure.org",
          "value": 22.9,
          "unit": "mmol/L",
          "code": "mmol/L"
        },
        "referenceRange": [
          {
            "low": {
              "value": 22,
              "code": "mmol/L",
              "system": "http://unitsofmeasure.org"
            }
          },
          {
            "high": {
              "value": 29,
              "code": "mmol/L",
              "system": "http://unitsofmeasure.org"
            }
          }
        ],
        "text": {
          "status": "generated",
          "div": "<div xmlns=\"http://www.w3.org/1999/xhtml\"><table class=\"hl7__eu__lab__report\"><tr><th>Test</th><th>17-Feb-2020</th><th>Reference&#xA0;Range</th><th>Unit</th></tr><tr><td>Carbon dioxide, total [Moles/volume] in Blood</td><td>22.9</td><td>22 - 29</td><td></td><td>mmol/L</td></tr></table></div>"
        },
        "status": "final",
        "subject": {
          "reference": "urn:uuid:64c31b17-79e4-4539-8c65-875901cef8d3",
          "display": "Pauline Grenier"
        },
        "effectiveDateTime": "2020-02-17T11:54:46Z",
        "specimen": {
          "reference": "urn:uuid:4d304612-afd0-4911-9fb3-9a7131c120bd"
        }
      }
    },
    {
      "fullUrl": "urn:uuid:89621324-852e-4624-9603-9ef08a576bdb",
      "resource": {
        "resourceType": "Observation",
        "id": "89621324-852e-4624-9603-9ef08a576bdb",
        "meta": {
          "profile": [
            "http://hl7.eu/fhir/laboratory/StructureDefinition/Observation-resultslab-eu-lab"
          ]
        },
        "performer": [
          {
            "display": "The Central European Lab"
          }
        ],
        "category": [
          {
            "coding": [
              {
                "system": "http://terminology.hl7.org/CodeSystem/observation-category",
                "code": "laboratory"
              }
            ]
          }
        ],
        "code": {
          "coding": [
            {
              "code": "2093-3",
              "system": "http://loinc.org",
              "display": "Cholesterol [Mass/volume] in Serum or Plasma"
            }
          ],
          "text": "Cholesterol [Mass/volume] in Serum or Plasma"
        },
        "valueQuantity": {
          "system": "http://unitsofmeasure.org",
          "value": 212.8,
          "unit": "mg/dL",
          "code": "mg/dL"
        },
        "referenceRange": [
          {
            "low": {
              "value": 125,
              "code": "mg/dL",
              "system": "http://unitsofmeasure.org"
            }
          },
          {
            "high": {
              "value": 200,
              "code": "mg/dL",
              "system": "http://unitsofmeasure.org"
            }
          }
        ],
        "interpretation": [
          {
            "coding": [
              {
                "code": "H",
                "system": "http://terminology.hl7.org/CodeSystem/v3-ObservationInterpretation",
                "display": "High"
              }
            ]
          }
        ],
        "text": {
          "status": "generated",
          "div": "<div xmlns=\"http://www.w3.org/1999/xhtml\"><table class=\"hl7__eu__lab__report\"><tr><th>Test</th><th>17-Feb-2020</th><th>Reference&#xA0;Range</th><th>Unit</th></tr><tr><td>Cholesterol [Mass/volume] in Serum or Plasma</td><td>212.8</td><td>125 - 200</td><td>H</td><td>mg/dL</td></tr></table></div>"
        },
        "status": "final",
        "subject": {
          "reference": "urn:uuid:64c31b17-79e4-4539-8c65-875901cef8d3",
          "display": "Pauline Grenier"
        },
        "effectiveDateTime": "2020-02-17T11:54:46Z",
        "specimen": {
          "reference": "urn:uuid:5b766b0a-ebff-40ac-9cfa-ebd415755e90"
        }
      }
    },
    {
      "fullUrl": "urn:uuid:e45565bb-f7b9-4fe4-bb31-866e1f52b60d",
      "resource": {
        "resourceType": "Observation",
        "id": "e45565bb-f7b9-4fe4-bb31-866e1f52b60d",
        "meta": {
          "profile": [
            "http://hl7.eu/fhir/laboratory/StructureDefinition/Observation-resultslab-eu-lab"
          ]
        },
        "performer": [
          {
            "display": "The Central European Lab"
          }
        ],
        "category": [
          {
            "coding": [
              {
                "system": "http://terminology.hl7.org/CodeSystem/observation-category",
                "code": "laboratory"
              }
            ]
          }
        ],
        "code": {
          "coding": [
            {
              "code": "2571-8",
              "system": "http://loinc.org",
              "display": "Triglyceride [Mass/volume] in Serum or Plasma"
            }
          ],
          "text": "Triglyceride [Mass/volume] in Serum or Plasma"
        },
        "valueQuantity": {
          "system": "http://unitsofmeasure.org",
          "value": 116.2,
          "unit": "mg/dL",
          "code": "mg/dL"
        },
        "referenceRange": [
          {
            "low": {
              "value": 35,
              "code": "mg/dL",
              "system": "http://unitsofmeasure.org"
            }
          },
          {
            "high": {
              "value": 150,
              "code": "mg/dL",
              "system": "http://unitsofmeasure.org"
            }
          }
        ],
        "text": {
          "status": "generated",
          "div": "<div xmlns=\"http://www.w3.org/1999/xhtml\"><table class=\"hl7__eu__lab__report\"><tr><th>Test</th><th>17-Feb-2020</th><th>Reference&#xA0;Range</th><th>Unit</th></tr><tr><td>Triglyceride [Mass/volume] in Serum or Plasma</td><td>116.2</td><td>35 - 150</td><td></td><td>mg/dL</td></tr></table></div>"
        },
        "status": "final",
        "subject": {
          "reference": "urn:uuid:64c31b17-79e4-4539-8c65-875901cef8d3",
          "display": "Pauline Grenier"
        },
        "effectiveDateTime": "2020-02-17T11:54:46Z",
        "specimen": {
          "reference": "urn:uuid:5b766b0a-ebff-40ac-9cfa-ebd415755e90"
        }
      }
    },
    {
      "fullUrl": "urn:uuid:9cb48108-4006-4555-8123-03c85b7ca9e0",
      "resource": {
        "resourceType": "Observation",
        "id": "9cb48108-4006-4555-8123-03c85b7ca9e0",
        "meta": {
          "profile": [
            "http://hl7.eu/fhir/laboratory/StructureDefinition/Observation-resultslab-eu-lab"
          ]
        },
        "performer": [
          {
            "display": "The Central European Lab"
          }
        ],
        "category": [
          {
            "coding": [
              {
                "system": "http://terminology.hl7.org/CodeSystem/observation-category",
                "code": "laboratory"
              }
            ]
          }
        ],
        "code": {
          "coding": [
            {
              "code": "18262-6",
              "system": "http://loinc.org",
              "display": "Cholesterol in LDL [Mass/volume] in Serum or Plasma by Direct assay"
            }
          ],
          "text": "Cholesterol in LDL [Mass/volume] in Serum or Plasma by Direct assay"
        },
        "valueQuantity": {
          "system": "http://unitsofmeasure.org",
          "value": 127.3,
          "unit": "mg/dL",
          "code": "mg/dL"
        },
        "referenceRange": [
          {
            "low": {
              "value": 0,
              "code": "mg/dL",
              "system": "http://unitsofmeasure.org"
            }
          },
          {
            "high": {
              "value": 130,
              "code": "mg/dL",
              "system": "http://unitsofmeasure.org"
            }
          }
        ],
        "text": {
          "status": "generated",
          "div": "<div xmlns=\"http://www.w3.org/1999/xhtml\"><table class=\"hl7__eu__lab__report\"><tr><th>Test</th><th>17-Feb-2020</th><th>Reference&#xA0;Range</th><th>Unit</th></tr><tr><td>Cholesterol in LDL [Mass/volume] in Serum or Plasma by Direct assay</td><td>127.3</td><td>0 - 130</td><td></td><td>mg/dL</td></tr></table></div>"
        },
        "status": "final",
        "subject": {
          "reference": "urn:uuid:64c31b17-79e4-4539-8c65-875901cef8d3",
          "display": "Pauline Grenier"
        },
        "effectiveDateTime": "2020-02-17T11:54:46Z",
        "specimen": {
          "reference": "urn:uuid:5b766b0a-ebff-40ac-9cfa-ebd415755e90"
        }
      }
    },
    {
      "fullUrl": "urn:uuid:637b9e26-b265-43ae-a09f-00ef8cbd2780",
      "resource": {
        "resourceType": "Observation",
        "id": "637b9e26-b265-43ae-a09f-00ef8cbd2780",
        "meta": {
          "profile": [
            "http://hl7.eu/fhir/laboratory/StructureDefinition/Observation-resultslab-eu-lab"
          ]
        },
        "performer": [
          {
            "display": "The Central European Lab"
          }
        ],
        "category": [
          {
            "coding": [
              {
                "system": "http://terminology.hl7.org/CodeSystem/observation-category",
                "code": "laboratory"
              }
            ]
          }
        ],
        "code": {
          "coding": [
            {
              "code": "2085-9",
              "system": "http://loinc.org",
              "display": "Cholesterol in HDL [Mass/volume] in Serum or Plasma"
            }
          ],
          "text": "Cholesterol in HDL [Mass/volume] in Serum or Plasma"
        },
        "valueQuantity": {
          "system": "http://unitsofmeasure.org",
          "value": 62.2,
          "unit": "mg/dL",
          "code": "mg/dL"
        },
        "referenceRange": [
          {
            "low": {
              "value": 40,
              "code": "mg/dL",
              "system": "http://unitsofmeasure.org"
            }
          },
          {
            "high": {
              "value": 60,
              "code": "mg/dL",
              "system": "http://unitsofmeasure.org"
            }
          }
        ],
        "interpretation": [
          {
            "coding": [
              {
                "code": "H",
                "system": "http://terminology.hl7.org/CodeSystem/v3-ObservationInterpretation",
                "display": "High"
              }
            ]
          }
        ],
        "text": {
          "status": "generated",
          "div": "<div xmlns=\"http://www.w3.org/1999/xhtml\"><table class=\"hl7__eu__lab__report\"><tr><th>Test</th><th>17-Feb-2020</th><th>Reference&#xA0;Range</th><th>Unit</th></tr><tr><td>Cholesterol in HDL [Mass/volume] in Serum or Plasma</td><td>62.2</td><td>40 - 60</td><td>H</td><td>mg/dL</td></tr></table></div>"
        },
        "status": "final",
        "subject": {
          "reference": "urn:uuid:64c31b17-79e4-4539-8c65-875901cef8d3",
          "display": "Pauline Grenier"
        },
        "effectiveDateTime": "2020-02-17T11:54:46Z",
        "specimen": {
          "reference": "urn:uuid:5b766b0a-ebff-40ac-9cfa-ebd415755e90"
        }
      }
    },
    {
      "fullUrl": "urn:uuid:f51b57f6-d6e3-44b9-8f5c-e66085d0acee",
      "resource": {
        "resourceType": "Device",
        "id": "f51b57f6-d6e3-44b9-8f5c-e66085d0acee",
        "deviceName": [
          {
            "name": "SYNDERAI Synthetic Generator",
            "type": "manufacturer-name"
          }
        ],
        "version": [
          {
            "value": "5.0"
          }
        ],
        "text": {
          "status": "generated",
          "div": "<div xmlns=\"http://www.w3.org/1999/xhtml\">SYNDERAI Synthetic Generator v5.0</div>"
        },
        "status": "active\"",
        "distinctIdentifier": "synderai-generator-50",
        "manufacturer": "SYNDERAI Project"
      }
    },
    {
      "fullUrl": "urn:uuid:fdc5541f-0b63-4fa7-a370-1a1905cf6caf",
      "resource": {
        "resourceType": "Provenance",
        "id": "fdc5541f-0b63-4fa7-a370-1a1905cf6caf",
        "target": [
          {
            "reference": "Patient/64c31b17-79e4-4539-8c65-875901cef8d3"
          },
          {
            "reference": "Bundle/76c70f48-2063-4e03-9502-233bf626b131"
          },
          {
            "reference": "Composition/0a230717-b41c-43fe-9165-f11c5d573f86"
          },
          {
            "reference": "PractitionerRole/0580ae8c-8f21-43a2-8a44-f5e297ff953d"
          },
          {
            "reference": "Practitioner/0f98a6f5-923d-403b-a26f-00da7f4d8ace"
          },
          {
            "reference": "PractitionerRole/82e8ab99-8066-4c04-953f-066b88e96347"
          },
          {
            "reference": "Organization/b3772e2b-5f59-4a88-90bb-a76eb1d04a93"
          }
        ],
        "activity": {
          "text": "Synthetic Example Data Generation"
        },
        "policy": [
          "https://synderai.net/synderai-synthetic-data-policy"
        ],
        "agent": [
          {
            "type": {
              "text": "author"
            },
            "who": {
              "reference": "Device/f51b57f6-d6e3-44b9-8f5c-e66085d0acee"
            }
          }
        ],
        "reason": [
          {
            "text": "Interoperability Testing and Training (non-clinical use)"
          }
        ],
        "text": {
          "status": "generated",
          "div": "<div xmlns=\"http://www.w3.org/1999/xhtml\">Provenance for SYNDERAI Synthetic Example Data Resource</div>"
        },
        "recorded": "2020-02-17T12:54:46Z"
      }
    },
    {
      "fullUrl": "urn:uuid:0580ae8c-8f21-43a2-8a44-f5e297ff953d",
      "resource": {
        "resourceType": "PractitionerRole",
        "id": "0580ae8c-8f21-43a2-8a44-f5e297ff953d",
        "meta": {
          "profile": [
            "http://hl7.eu/fhir/base/StructureDefinition/practitionerRole-eu"
          ]
        },
        "text": {
          "status": "generated",
          "div": "<div xmlns=\"http://www.w3.org/1999/xhtml\">Laboratory Role Id: 0580ae8c-8f21-43a2-8a44-f5e297ff953d</div>"
        },
        "practitioner": {
          "reference": "urn:uuid:0f98a6f5-923d-403b-a26f-00da7f4d8ace"
        }
      }
    },
    {
      "fullUrl": "urn:uuid:0f98a6f5-923d-403b-a26f-00da7f4d8ace",
      "resource": {
        "resourceType": "Practitioner",
        "id": "0f98a6f5-923d-403b-a26f-00da7f4d8ace",
        "meta": {
          "profile": [
            "http://hl7.eu/fhir/base/StructureDefinition/practitioner-eu"
          ]
        },
        "identifier": [
          {
            "assigner": {
              "display": "HL7 Europe"
            },
            "system": "urn:oid:2.16.840.1.113883.2.51.999",
            "value": "f7d7ce52-1374-4221-af6c-5b49ab3349c7"
          }
        ],
        "name": [
          {
            "prefix": [
              "dr"
            ],
            "given": [
              "Ex"
            ],
            "family": "Ample"
          }
        ],
        "address": [
          {
            "line": [
              "Laboratoire Central Européenne",
              "Boulevard du Jardin Botanique 32"
            ],
            "postalCode": "1000",
            "city": "Brussels",
            "country": "Belgium"
          }
        ],
        "text": {
          "status": "generated",
          "div": "<div xmlns=\"http://www.w3.org/1999/xhtml\">Laboratory: Laboratoire Central Européenne, 1000 Brussels, Belgium</div>"
        }
      }
    }
  ],
  "type": "document",
  "timestamp": "2020-02-17T12:54:46Z"
}
