{
  "resourceType": "Bundle",
  "id": "1d4ac446-7078-4f28-8f07-8d5f06304d05",
  "meta": {
    "profile": [
      "http://hl7.eu/fhir/laboratory/StructureDefinition/Bundle-eu-lab"
    ]
  },
  "identifier": {
    "assigner": {
      "display": "HL7 Europe"
    },
    "system": "urn:oid:2.16.840.1.113883.2.51.999",
    "value": "279abdcb-a48d-4256-8966-6a46d0a3d691"
  },
  "entry": [
    {
      "fullUrl": "urn:uuid:26f33470-5965-42c8-a2f5-3ec48408eeb0",
      "resource": {
        "resourceType": "Composition",
        "id": "26f33470-5965-42c8-a2f5-3ec48408eeb0",
        "meta": {
          "profile": [
            "http://hl7.eu/fhir/laboratory/StructureDefinition/Composition-eu-lab"
          ]
        },
        "identifier": {
          "assigner": {
            "display": "HL7 Europe"
          },
          "system": "urn:oid:2.16.840.1.113883.2.51.999",
          "value": "15ed52eb-6dd9-4bc2-bff3-bbcd40e9d202"
        },
        "author": [
          {
            "reference": "urn:uuid:f7d1d401-d7a5-477d-a470-0a40dbc15c72"
          }
        ],
        "category": [
          {
            "coding": [
              {
                "code": "26436-6",
                "system": "http://loinc.org",
                "display": "Laboratory studies (set)"
              }
            ]
          }
        ],
        "type": {
          "coding": [
            {
              "code": "11502-2",
              "system": "http://loinc.org",
              "display": "Laboratory report"
            }
          ],
          "text": "Laboratory Report"
        },
        "section": [
          {
            "code": {
              "coding": [
                {
                  "code": "26436-6",
                  "system": "http://loinc.org",
                  "display": "Laboratory studies (set)"
                }
              ],
              "text": "Laboratory studies"
            },
            "section": [
              {
                "code": {
                  "coding": [
                    {
                      "code": "$18719-5",
                      "system": "http://loinc.org",
                      "display": "Chemistry studies (set)"
                    }
                  ],
                  "text": "Chemistry"
                },
                "entry": [
                  {
                    "reference": "urn:uuid:f40c4349-1970-4827-9a6f-560a00a13d90"
                  },
                  {
                    "reference": "urn:uuid:91c2a019-bafb-4f77-bee0-3efa8c527054"
                  },
                  {
                    "reference": "urn:uuid:10103b78-86c0-44b0-a078-99a754e6ca21"
                  },
                  {
                    "reference": "urn:uuid:a2513a66-177b-439c-9456-c79baa6f3469"
                  },
                  {
                    "reference": "urn:uuid:f93f5ddb-183c-482b-a502-4d80e974d776"
                  },
                  {
                    "reference": "urn:uuid:4309b395-3052-43fd-bb2c-6c3536babc51"
                  },
                  {
                    "reference": "urn:uuid:e55c3813-0100-4723-a3d8-83927ced80df"
                  },
                  {
                    "reference": "urn:uuid:272ff7fb-2216-423b-85ae-9dcc7e135acf"
                  },
                  {
                    "reference": "urn:uuid:4c72017e-0580-4744-a034-5b3edb934cbd"
                  },
                  {
                    "reference": "urn:uuid:58c27fa8-17e5-4944-8ccf-025ef688e670"
                  },
                  {
                    "reference": "urn:uuid:f253cc45-973d-415e-a648-4fd991184d10"
                  },
                  {
                    "reference": "urn:uuid:88603381-9177-4888-8430-dd8f3cef8f76"
                  },
                  {
                    "reference": "urn:uuid:310081aa-46bc-4f0d-a69f-d2f951dc0719"
                  },
                  {
                    "reference": "urn:uuid:830e1779-2977-475c-97d2-554fb33f2fdb"
                  },
                  {
                    "reference": "urn:uuid:30bd85fc-2276-4b57-9c96-6f071ea8f62d"
                  },
                  {
                    "reference": "urn:uuid:fab8e3a4-3ae4-44a4-aaf0-d78b9b8cf815"
                  },
                  {
                    "reference": "urn:uuid:bab51170-77ee-43f6-b11d-c6eb3cb2b8ac"
                  },
                  {
                    "reference": "urn:uuid:a3ba14bf-c6da-427c-aa39-4a2ec780d95b"
                  }
                ],
                "text": {
                  "status": "generated",
                  "div": "<div xmlns=\"http://www.w3.org/1999/xhtml\"><h3>Chemistry</h3><table class=\"hl7__eu__lab__report\"><thead><tr><th>Test</th><th>08-FEB-2017</th><th>Reference&#xA0;Range</th><th>Unit</th></tr></thead><tbody><tr><td>Glucose [Mass/volume] in Serum or Plasma</td><td>75.2</td><td>70 - 140</td><td>mg/dL</td></tr><tr><td>Urea nitrogen [Mass/volume] in Serum or Plasma</td><td>17.6</td><td>7 - 20</td><td>mg/dL</td></tr><tr><td>Creatinine [Mass/volume] in Serum or Plasma</td><td><strong>2.3 H</strong></td><td>0.6 - 1.3</td><td>mg/dL</td></tr><tr><td>Calcium [Mass/volume] in Serum or Plasma</td><td>8.8</td><td>8.6 - 10.4</td><td>mg/dL</td></tr><tr><td>Sodium [Moles/volume] in Serum or Plasma</td><td>141.1</td><td>135 - 145</td><td>mmol/L</td></tr><tr><td>Potassium [Moles/volume] in Serum or Plasma</td><td>4.8</td><td>3.5 - 5.1</td><td>mmol/L</td></tr><tr><td>Chloride [Moles/volume] in Serum or Plasma</td><td><strong>108.5 H</strong></td><td>98 - 108</td><td>mmol/L</td></tr><tr><td>Carbon dioxide, total [Moles/volume] in Serum or Plasma</td><td>28.7</td><td>22 - 32</td><td>mmol/L</td></tr><tr><td>Ketones [Presence] in Urine by Test strip</td><td>Urine ketone test = +++</td><td></td><td></td></tr><tr><td>Hemoglobin A1c/Hemoglobin.total in Blood</td><td><strong>3.2 L</strong></td><td>4.5 - 6.4</td><td>%</td></tr><tr><td>Glucose [Mass/volume] in Blood</td><td>75.2</td><td>70 - 140</td><td>mg/dL</td></tr><tr><td>Urea nitrogen [Mass/volume] in Blood</td><td>17.6</td><td>7 - 30</td><td>mg/dL</td></tr><tr><td>Creatinine [Mass/volume] in Blood</td><td><strong>8.9 H</strong></td><td>0.5 - 1.3</td><td>mg/dL</td></tr><tr><td>Calcium [Mass/volume] in Blood</td><td>8.8</td><td>8.6 - 10.2</td><td>mg/dL</td></tr><tr><td>Sodium [Moles/volume] in Blood</td><td>141.1</td><td>135 - 145</td><td>mmol/L</td></tr><tr><td>Potassium [Moles/volume] in Blood</td><td>4.8</td><td>3.5 - 5.1</td><td>mmol/L</td></tr><tr><td>Chloride [Moles/volume] in Blood</td><td>108.5</td><td>98 - 114</td><td>mmol/L</td></tr><tr><td>Carbon dioxide, total [Moles/volume] in Blood</td><td>28.7</td><td>22 - 32</td><td>mmol/L</td></tr></tbody></table></div>"
                },
                "title": "Chemistry"
              },
              {
                "code": {
                  "coding": [
                    {
                      "code": "$18729-4",
                      "system": "http://loinc.org",
                      "display": "Urinalysis studies (set)"
                    }
                  ],
                  "text": "Urinalysis"
                },
                "entry": [
                  {
                    "reference": "urn:uuid:a014de1f-e487-4545-8c48-2c5b23a71180"
                  },
                  {
                    "reference": "urn:uuid:8c0631f1-37d7-436d-a516-6fd5f2f19d14"
                  },
                  {
                    "reference": "urn:uuid:29a0986a-dc94-41d7-a078-7919d3e6ec4c"
                  },
                  {
                    "reference": "urn:uuid:96dce099-064a-4e0a-acf2-c5d2a8575521"
                  },
                  {
                    "reference": "urn:uuid:84417fa8-1ab9-4e78-a5e4-c8eb909e4732"
                  },
                  {
                    "reference": "urn:uuid:9cbbbfe2-5507-4368-ba36-b1a1d2724e19"
                  },
                  {
                    "reference": "urn:uuid:6cb1d9f2-ed9a-463f-a66a-ec5b50e088ec"
                  },
                  {
                    "reference": "urn:uuid:07265fb7-7748-49cc-b7b4-49d5a39e7d5f"
                  },
                  {
                    "reference": "urn:uuid:6d7ca807-b17e-4c94-8beb-797044b20c84"
                  },
                  {
                    "reference": "urn:uuid:13d31eb2-5dc0-4339-95d6-3bf84ef31719"
                  },
                  {
                    "reference": "urn:uuid:24cf4e33-5e6c-4596-ae2f-4d061bcac990"
                  },
                  {
                    "reference": "urn:uuid:aa5a57eb-57ce-474a-ad33-69121c86aa43"
                  }
                ],
                "text": {
                  "status": "generated",
                  "div": "<div xmlns=\"http://www.w3.org/1999/xhtml\"><h3>Urinalysis</h3><table class=\"hl7__eu__lab__report\"><thead><tr><th>Test</th><th>08-FEB-2017</th><th>Reference&#xA0;Range</th><th>Unit</th></tr></thead><tbody><tr><td>Glucose [Mass/volume] in Urine by Test strip</td><td><strong>2.3 H</strong></td><td>0.8 - 0</td><td>mg/dL</td></tr><tr><td>Glucose [Presence] in Urine by Test strip</td><td>++</td><td></td><td></td></tr><tr><td>Bilirubin.total [Mass/volume] in Urine by Test strip</td><td>1.5</td><td>0 - 1.5</td><td>mg/dL</td></tr><tr><td>Bilirubin.total [Presence] in Urine by Test strip</td><td>Finding of bilirubin in urine</td><td></td><td></td></tr><tr><td>Ketones [Mass/volume] in Urine by Test strip</td><td>6.2</td><td>0 - 8</td><td>mg/dL</td></tr><tr><td>Specific gravity of Urine by Test strip</td><td><strong>1.0 L</strong></td><td>1.01 - 1.03</td><td>{nominal}</td></tr><tr><td>pH of Urine by Test strip</td><td>6.8</td><td>4.6 - 7.5</td><td>pH</td></tr><tr><td>Protein [Mass/volume] in Urine by Test strip</td><td><strong>314.3 H</strong></td><td>0 - 14</td><td>mg/dL</td></tr><tr><td>Protein [Presence] in Urine by Test strip</td><td>Urine protein test = +++</td><td></td><td></td></tr><tr><td>Nitrite [Presence] in Urine by Test strip</td><td>Urine nitrite negative</td><td></td><td></td></tr><tr><td>Hemoglobin [Presence] in Urine by Test strip</td><td>Urine blood test = negative</td><td></td><td></td></tr><tr><td>Leukocyte esterase [Presence] in Urine by Test strip</td><td>Urine leukocyte test negative</td><td></td><td></td></tr></tbody></table></div>"
                },
                "title": "Urinalysis"
              },
              {
                "code": {
                  "coding": [
                    {
                      "code": "$LP7846-1",
                      "system": "http://loinc.org",
                      "display": "Specimen information"
                    }
                  ],
                  "text": "Specimen information"
                },
                "entry": [
                  {
                    "reference": "urn:uuid:524b1597-93fb-4c56-a5c3-374c4fac44bd"
                  },
                  {
                    "reference": "urn:uuid:3d4e47e9-755c-49ca-b363-c99ed76b6f5f"
                  },
                  {
                    "reference": "urn:uuid:ea388742-d41f-4a32-b7db-a2f9ead72666"
                  },
                  {
                    "reference": "urn:uuid:6b819618-7d45-448e-89f3-1dcb80e25c5c"
                  }
                ],
                "text": {
                  "status": "generated",
                  "div": "<div xmlns=\"http://www.w3.org/1999/xhtml\"><h3>Specimen information</h3><table class=\"hl7__eu__lab__report\"><thead><tr><th>Test</th><th>08-FEB-2017</th><th>Specimen</th><th></th></tr></thead><tbody><tr><td>Appearance of Urine</td><td>Cloudy urine</td><td>Urine</td><td></td></tr><tr><td>Odor of Urine</td><td>Urine smell ammoniacal</td><td>Urine</td><td></td></tr><tr><td>Clarity of Urine</td><td>Translucent</td><td>Urine</td><td></td></tr><tr><td>Color of Urine</td><td>Brown color</td><td>Urine</td><td></td></tr></tbody></table></div>"
                },
                "title": "Specimen information"
              }
            ],
            "title": "Laboratory Report"
          },
          {
            "text": {
              "status": "generated",
              "div": "<div xmlns=\"http://www.w3.org/1999/xhtml\"><h3>Annotation</h3><table class=\"hl7__eu__lab__report\"><tr><th>Conclusion and Recommendations based on this report and previous findings known to us</th></tr><tr><td>The patient shows markedly elevated creatinine in both serum and blood, indicating significant renal impairment. Urinalysis reveals proteinuria, glucosuria, ketonuria, low specific gravity, and abnormal urine appearance, suggesting nephrotic syndrome or advanced kidney disease. Hemoglobin A1c is low, making diabetes unlikely. No evidence of urinary tract infection. Recommend urgent nephrology evaluation for possible acute or chronic renal failure.</td></tr></table></div>"
            },
            "code": {
              "coding": [
                {
                  "system": "http://loinc.org",
                  "code": "48767-8",
                  "display": "Annotation comment"
                }
              ]
            },
            "title": "Annotation comment"
          }
        ],
        "status": "final",
        "subject": {
          "reference": "urn:uuid:9e46c4f6-136d-491b-8d01-d475a6b51f61",
          "display": "Maria Nohlmans"
        },
        "date": "2017-02-08T12:02:39Z",
        "title": "Laboratory Report",
        "confidentiality": "N"
      }
    },
    {
      "fullUrl": "urn:uuid:823443ac-5357-40cc-9b73-480d862eed43",
      "resource": {
        "resourceType": "DiagnosticReport",
        "id": "823443ac-5357-40cc-9b73-480d862eed43",
        "meta": {
          "profile": [
            "http://hl7.eu/fhir/laboratory/StructureDefinition/DiagnosticReport-eu-lab"
          ]
        },
        "identifier": [
          {
            "assigner": {
              "display": "HL7 Europe"
            },
            "system": "urn:oid:2.16.840.1.113883.2.51.999",
            "value": "af1ac161-3f6e-40b0-beb6-cd54946719c5"
          }
        ],
        "extension": [
          {
            "url": "http://hl7.org/fhir/5.0/StructureDefinition/extension-DiagnosticReport.composition",
            "valueReference": {
              "reference": "urn:uuid:15ed52eb-6dd9-4bc2-bff3-bbcd40e9d202"
            }
          }
        ],
        "category": [
          {
            "coding": [
              {
                "code": "26436-6",
                "system": "http://loinc.org",
                "display": "Laboratory studies (set)"
              }
            ]
          }
        ],
        "specimen": [
          {
            "reference": "urn:uuid:77e78f73-2be9-417e-856a-a1014af7cfb4"
          },
          {
            "reference": "urn:uuid:3864680b-9a0a-4eb1-a1d2-34ae9e5b31a2"
          },
          {
            "reference": "urn:uuid:3555b8a9-958d-4f7d-8365-dd0cc0c02b20"
          }
        ],
        "result": [
          {
            "reference": "urn:uuid:f40c4349-1970-4827-9a6f-560a00a13d90"
          },
          {
            "reference": "urn:uuid:91c2a019-bafb-4f77-bee0-3efa8c527054"
          },
          {
            "reference": "urn:uuid:10103b78-86c0-44b0-a078-99a754e6ca21"
          },
          {
            "reference": "urn:uuid:a2513a66-177b-439c-9456-c79baa6f3469"
          },
          {
            "reference": "urn:uuid:f93f5ddb-183c-482b-a502-4d80e974d776"
          },
          {
            "reference": "urn:uuid:4309b395-3052-43fd-bb2c-6c3536babc51"
          },
          {
            "reference": "urn:uuid:e55c3813-0100-4723-a3d8-83927ced80df"
          },
          {
            "reference": "urn:uuid:272ff7fb-2216-423b-85ae-9dcc7e135acf"
          },
          {
            "reference": "urn:uuid:524b1597-93fb-4c56-a5c3-374c4fac44bd"
          },
          {
            "reference": "urn:uuid:3d4e47e9-755c-49ca-b363-c99ed76b6f5f"
          },
          {
            "reference": "urn:uuid:ea388742-d41f-4a32-b7db-a2f9ead72666"
          },
          {
            "reference": "urn:uuid:6b819618-7d45-448e-89f3-1dcb80e25c5c"
          },
          {
            "reference": "urn:uuid:a014de1f-e487-4545-8c48-2c5b23a71180"
          },
          {
            "reference": "urn:uuid:8c0631f1-37d7-436d-a516-6fd5f2f19d14"
          },
          {
            "reference": "urn:uuid:29a0986a-dc94-41d7-a078-7919d3e6ec4c"
          },
          {
            "reference": "urn:uuid:96dce099-064a-4e0a-acf2-c5d2a8575521"
          },
          {
            "reference": "urn:uuid:84417fa8-1ab9-4e78-a5e4-c8eb909e4732"
          },
          {
            "reference": "urn:uuid:4c72017e-0580-4744-a034-5b3edb934cbd"
          },
          {
            "reference": "urn:uuid:9cbbbfe2-5507-4368-ba36-b1a1d2724e19"
          },
          {
            "reference": "urn:uuid:6cb1d9f2-ed9a-463f-a66a-ec5b50e088ec"
          },
          {
            "reference": "urn:uuid:07265fb7-7748-49cc-b7b4-49d5a39e7d5f"
          },
          {
            "reference": "urn:uuid:6d7ca807-b17e-4c94-8beb-797044b20c84"
          },
          {
            "reference": "urn:uuid:13d31eb2-5dc0-4339-95d6-3bf84ef31719"
          },
          {
            "reference": "urn:uuid:24cf4e33-5e6c-4596-ae2f-4d061bcac990"
          },
          {
            "reference": "urn:uuid:aa5a57eb-57ce-474a-ad33-69121c86aa43"
          },
          {
            "reference": "urn:uuid:58c27fa8-17e5-4944-8ccf-025ef688e670"
          },
          {
            "reference": "urn:uuid:f253cc45-973d-415e-a648-4fd991184d10"
          },
          {
            "reference": "urn:uuid:88603381-9177-4888-8430-dd8f3cef8f76"
          },
          {
            "reference": "urn:uuid:310081aa-46bc-4f0d-a69f-d2f951dc0719"
          },
          {
            "reference": "urn:uuid:830e1779-2977-475c-97d2-554fb33f2fdb"
          },
          {
            "reference": "urn:uuid:30bd85fc-2276-4b57-9c96-6f071ea8f62d"
          },
          {
            "reference": "urn:uuid:fab8e3a4-3ae4-44a4-aaf0-d78b9b8cf815"
          },
          {
            "reference": "urn:uuid:bab51170-77ee-43f6-b11d-c6eb3cb2b8ac"
          },
          {
            "reference": "urn:uuid:a3ba14bf-c6da-427c-aa39-4a2ec780d95b"
          }
        ],
        "status": "registered",
        "code": {
          "coding": [
            {
              "code": "11502-2",
              "system": "http://loinc.org",
              "display": "Laboratory report"
            }
          ]
        },
        "subject": {
          "reference": "urn:uuid:9e46c4f6-136d-491b-8d01-d475a6b51f61",
          "display": "Maria Nohlmans"
        }
      }
    },
    {
      "fullUrl": "urn:uuid:9e46c4f6-136d-491b-8d01-d475a6b51f61",
      "resource": {
        "resourceType": "Patient",
        "id": "9e46c4f6-136d-491b-8d01-d475a6b51f61",
        "meta": {
          "security": [
            {
              "system": "http://terminology.hl7.org/CodeSystem/v3-ActReason",
              "code": "HTEST"
            },
            {
              "system": "http://terminology.hl7.org/CodeSystem/v3-ActReason",
              "code": "TRAIN"
            }
          ],
          "tag": [
            {
              "system": "https://synderai.net/fhir/CodeSystem/tags",
              "code": "synthetic",
              "display": "SYNDERAI Synthetic data"
            }
          ],
          "profile": [
            "http://hl7.eu/fhir/base/StructureDefinition/patient-eu-core"
          ]
        },
        "identifier": [
          {
            "type": {
              "coding": [
                {
                  "code": "PT",
                  "system": "http://terminology.hl7.org/CodeSystem/v2-0203"
                }
              ]
            },
            "system": "http://ec.europa.eu/identifier/eci",
            "value": "6886-506417-1"
          },
          {
            "type": {
              "coding": [
                {
                  "code": "MR",
                  "system": "http://terminology.hl7.org/CodeSystem/v2-0203"
                }
              ]
            },
            "system": "http://local.setting.eu/identifier",
            "value": "2cb21ed6-b617-b1f3-2290-589a710de5ee"
          }
        ],
        "name": [
          {
            "family": "Nohlmans"
          },
          {
            "given": [
              "Maria"
            ]
          },
          {
            "text": "Maria Nohlmans"
          }
        ],
        "address": [
          {
            "line": [
              "Alfons-Wulff-Weg 1"
            ],
            "use": "home",
            "type": "physical",
            "postalCode": "25813",
            "city": "Husum",
            "country": "Germany"
          }
        ],
        "telecom": [
          {
            "system": "phone",
            "value": "+49(0)1911 105501"
          }
        ],
        "extension": [
          {
            "url": "http://hl7.org/fhir/StructureDefinition/patient-nationality",
            "valueCodeableConcept": {
              "coding": [
                {
                  "code": "DE",
                  "system": "http://hl7.org/fhir/ValueSet/country"
                }
              ]
            }
          }
        ],
        "text": {
          "status": "generated",
          "div": "<div xmlns=\"http://www.w3.org/1999/xhtml\"><table class=\"hl7__ips\"><tr><td>Maria Nohlmans</td><td>female</td><td>11-Jun-1947</td></tr></table></div>"
        },
        "gender": "female",
        "birthDate": "1947-06-11"
      }
    },
    {
      "fullUrl": "urn:uuid:d256bda7-85a8-48cf-8c3e-7eb6b3cd5c9b",
      "resource": {
        "resourceType": "ServiceRequest",
        "id": "d256bda7-85a8-48cf-8c3e-7eb6b3cd5c9b",
        "meta": {
          "profile": [
            "http://hl7.eu/fhir/laboratory/StructureDefinition/ServiceRequest-eu-lab"
          ]
        },
        "identifier": [
          {
            "system": "http://example.org",
            "value": "25b28401-0a86-40cf-81cd-d66d29c12bd8"
          }
        ],
        "specimen": [
          {
            "reference": "urn:uuid:77e78f73-2be9-417e-856a-a1014af7cfb4"
          },
          {
            "reference": "urn:uuid:3864680b-9a0a-4eb1-a1d2-34ae9e5b31a2"
          },
          {
            "reference": "urn:uuid:3555b8a9-958d-4f7d-8365-dd0cc0c02b20"
          }
        ],
        "reasonCode": [
          {
            "coding": [
              {
                "code": "401314000",
                "system": "http://snomed.info/sct",
                "display": "Acute non-ST segment elevation myocardial infarction"
              }
            ]
          },
          {
            "coding": [
              {
                "code": "157141000119108",
                "system": "http://snomed.info/sct",
                "display": "Proteinuria due to type 2 diabetes mellitus"
              }
            ]
          },
          {
            "coding": [
              {
                "code": "237602007",
                "system": "http://snomed.info/sct",
                "display": "Metabolic syndrome X"
              }
            ]
          },
          {
            "coding": [
              {
                "code": "90781000119102",
                "system": "http://snomed.info/sct",
                "display": "Microalbuminuria due to type 2 diabetes mellitus"
              }
            ]
          },
          {
            "coding": [
              {
                "code": "127013003",
                "system": "http://snomed.info/sct",
                "display": "Disorder of kidney due to diabetes mellitus"
              }
            ]
          },
          {
            "coding": [
              {
                "code": "59621000",
                "system": "http://snomed.info/sct",
                "display": "Essential hypertension"
              }
            ]
          },
          {
            "coding": [
              {
                "code": "271737000",
                "system": "http://snomed.info/sct",
                "display": "Anemia"
              }
            ]
          },
          {
            "coding": [
              {
                "code": "15777000",
                "system": "http://snomed.info/sct",
                "display": "Prediabetes"
              }
            ]
          }
        ],
        "status": "active",
        "intent": "order",
        "code": {
          "coding": [
            {
              "code": "108252007",
              "system": "http://snomed.info/sct",
              "display": "Laboratory procedure"
            }
          ]
        },
        "subject": {
          "reference": "urn:uuid:9e46c4f6-136d-491b-8d01-d475a6b51f61",
          "display": "Maria Nohlmans"
        },
        "requester": {
          "reference": "urn:uuid:7c36a743-fbbf-42b6-aece-57a59d8ba02b"
        }
      }
    },
    {
      "fullUrl": "urn:uuid:7c36a743-fbbf-42b6-aece-57a59d8ba02b",
      "resource": {
        "resourceType": "PractitionerRole",
        "id": "7c36a743-fbbf-42b6-aece-57a59d8ba02b",
        "meta": {
          "profile": [
            "http://hl7.eu/fhir/base/StructureDefinition/practitionerRole-eu"
          ]
        },
        "text": {
          "status": "generated",
          "div": "<div xmlns=\"http://www.w3.org/1999/xhtml\">Provider Role Id: 7c36a743-fbbf-42b6-aece-57a59d8ba02b</div>"
        },
        "organization": {
          "reference": "urn:uuid:5e8ccd21-fda1-473f-bd8f-293d5f75ed6c"
        }
      }
    },
    {
      "fullUrl": "urn:uuid:5e8ccd21-fda1-473f-bd8f-293d5f75ed6c",
      "resource": {
        "resourceType": "Organization",
        "id": "5e8ccd21-fda1-473f-bd8f-293d5f75ed6c",
        "meta": {
          "profile": [
            "http://hl7.eu/fhir/base/StructureDefinition/organization-eu"
          ]
        },
        "identifier": [
          {
            "assigner": {
              "display": "HL7 Europe"
            },
            "system": "urn:oid:2.16.840.1.113883.2.51.999",
            "value": "b5ffb89d-6ca3-46cc-9211-ad8ccdb457f1"
          }
        ],
        "address": [
          {
            "line": [
              "Brinckmannstraße 35"
            ],
            "city": "Husum",
            "postalCode": "25813",
            "country": "Germany"
          }
        ],
        "text": {
          "status": "generated",
          "div": "<div xmlns=\"http://www.w3.org/1999/xhtml\">Provider Organization: Dr. Wolfram Hussels Kieferorthopäde</div>"
        },
        "name": "Dr. Wolfram Hussels Kieferorthopäde"
      }
    },
    {
      "fullUrl": "urn:uuid:77e78f73-2be9-417e-856a-a1014af7cfb4",
      "resource": {
        "resourceType": "Specimen",
        "id": "77e78f73-2be9-417e-856a-a1014af7cfb4",
        "meta": {
          "profile": [
            "http://hl7.eu/fhir/laboratory/StructureDefinition/Specimen-eu-lab"
          ]
        },
        "collection": {
          "collectedDateTime": "2017-02-08"
        },
        "text": {
          "status": "generated",
          "div": "<div xmlns=\"http://www.w3.org/1999/xhtml\"><table class=\"hl7__eu__lab__report\"><tr><th>Specimen</th><th>Collection Date</th></tr><tr><td>Acellular blood (serum or plasma) specimen</td><td><span class=\"nb\">08-Feb-2017</span></td></tr></table></div>"
        },
        "type": {
          "coding": [
            {
              "code": "122592007",
              "system": "http://snomed.info/sct",
              "display": "Acellular blood (serum or plasma) specimen"
            }
          ]
        }
      }
    },
    {
      "fullUrl": "urn:uuid:3864680b-9a0a-4eb1-a1d2-34ae9e5b31a2",
      "resource": {
        "resourceType": "Specimen",
        "id": "3864680b-9a0a-4eb1-a1d2-34ae9e5b31a2",
        "meta": {
          "profile": [
            "http://hl7.eu/fhir/laboratory/StructureDefinition/Specimen-eu-lab"
          ]
        },
        "collection": {
          "collectedDateTime": "2017-02-08"
        },
        "text": {
          "status": "generated",
          "div": "<div xmlns=\"http://www.w3.org/1999/xhtml\"><table class=\"hl7__eu__lab__report\"><tr><th>Specimen</th><th>Collection Date</th></tr><tr><td>Urine specimen</td><td><span class=\"nb\">08-Feb-2017</span></td></tr></table></div>"
        },
        "type": {
          "coding": [
            {
              "code": "122575003",
              "system": "http://snomed.info/sct",
              "display": "Urine specimen"
            }
          ]
        }
      }
    },
    {
      "fullUrl": "urn:uuid:3555b8a9-958d-4f7d-8365-dd0cc0c02b20",
      "resource": {
        "resourceType": "Specimen",
        "id": "3555b8a9-958d-4f7d-8365-dd0cc0c02b20",
        "meta": {
          "profile": [
            "http://hl7.eu/fhir/laboratory/StructureDefinition/Specimen-eu-lab"
          ]
        },
        "collection": {
          "collectedDateTime": "2017-02-08"
        },
        "text": {
          "status": "generated",
          "div": "<div xmlns=\"http://www.w3.org/1999/xhtml\"><table class=\"hl7__eu__lab__report\"><tr><th>Specimen</th><th>Collection Date</th></tr><tr><td>Whole blood specimen (specimen)</td><td><span class=\"nb\">08-Feb-2017</span></td></tr></table></div>"
        },
        "type": {
          "coding": [
            {
              "code": "258580003",
              "system": "http://snomed.info/sct",
              "display": "Whole blood specimen (specimen)"
            }
          ]
        }
      }
    },
    {
      "fullUrl": "urn:uuid:f40c4349-1970-4827-9a6f-560a00a13d90",
      "resource": {
        "resourceType": "Observation",
        "id": "f40c4349-1970-4827-9a6f-560a00a13d90",
        "meta": {
          "profile": [
            "http://hl7.eu/fhir/laboratory/StructureDefinition/Observation-resultslab-eu-lab"
          ]
        },
        "performer": [
          {
            "display": "The Central European Lab"
          }
        ],
        "category": [
          {
            "coding": [
              {
                "system": "http://terminology.hl7.org/CodeSystem/observation-category",
                "code": "laboratory"
              }
            ]
          }
        ],
        "code": {
          "coding": [
            {
              "code": "2345-7",
              "system": "http://loinc.org",
              "display": "Glucose [Mass/volume] in Serum or Plasma"
            }
          ],
          "text": "Glucose [Mass/volume] in Serum or Plasma"
        },
        "valueQuantity": {
          "system": "http://unitsofmeasure.org",
          "value": 75.2,
          "unit": "mg/dL",
          "code": "mg/dL"
        },
        "referenceRange": [
          {
            "low": {
              "value": 70,
              "code": "mg/dL",
              "system": "http://unitsofmeasure.org"
            }
          },
          {
            "high": {
              "value": 140,
              "code": "mg/dL",
              "system": "http://unitsofmeasure.org"
            }
          }
        ],
        "text": {
          "status": "generated",
          "div": "<div xmlns=\"http://www.w3.org/1999/xhtml\"><table class=\"hl7__eu__lab__report\"><tr><th>Test</th><th>08-Feb-2017</th><th>Reference&#xA0;Range</th><th>Unit</th></tr><tr><td>Glucose [Mass/volume] in Serum or Plasma</td><td>75.2</td><td>70 - 140</td><td></td><td>mg/dL</td></tr></table></div>"
        },
        "status": "final",
        "subject": {
          "reference": "urn:uuid:9e46c4f6-136d-491b-8d01-d475a6b51f61",
          "display": "Maria Nohlmans"
        },
        "effectiveDateTime": "2017-02-08T11:02:39Z",
        "specimen": {
          "reference": "urn:uuid:77e78f73-2be9-417e-856a-a1014af7cfb4"
        }
      }
    },
    {
      "fullUrl": "urn:uuid:91c2a019-bafb-4f77-bee0-3efa8c527054",
      "resource": {
        "resourceType": "Observation",
        "id": "91c2a019-bafb-4f77-bee0-3efa8c527054",
        "meta": {
          "profile": [
            "http://hl7.eu/fhir/laboratory/StructureDefinition/Observation-resultslab-eu-lab"
          ]
        },
        "performer": [
          {
            "display": "The Central European Lab"
          }
        ],
        "category": [
          {
            "coding": [
              {
                "system": "http://terminology.hl7.org/CodeSystem/observation-category",
                "code": "laboratory"
              }
            ]
          }
        ],
        "code": {
          "coding": [
            {
              "code": "3094-0",
              "system": "http://loinc.org",
              "display": "Urea nitrogen [Mass/volume] in Serum or Plasma"
            }
          ],
          "text": "Urea nitrogen [Mass/volume] in Serum or Plasma"
        },
        "valueQuantity": {
          "system": "http://unitsofmeasure.org",
          "value": 17.6,
          "unit": "mg/dL",
          "code": "mg/dL"
        },
        "referenceRange": [
          {
            "low": {
              "value": 7,
              "code": "mg/dL",
              "system": "http://unitsofmeasure.org"
            }
          },
          {
            "high": {
              "value": 20,
              "code": "mg/dL",
              "system": "http://unitsofmeasure.org"
            }
          }
        ],
        "text": {
          "status": "generated",
          "div": "<div xmlns=\"http://www.w3.org/1999/xhtml\"><table class=\"hl7__eu__lab__report\"><tr><th>Test</th><th>08-Feb-2017</th><th>Reference&#xA0;Range</th><th>Unit</th></tr><tr><td>Urea nitrogen [Mass/volume] in Serum or Plasma</td><td>17.6</td><td>7 - 20</td><td></td><td>mg/dL</td></tr></table></div>"
        },
        "status": "final",
        "subject": {
          "reference": "urn:uuid:9e46c4f6-136d-491b-8d01-d475a6b51f61",
          "display": "Maria Nohlmans"
        },
        "effectiveDateTime": "2017-02-08T11:02:39Z",
        "specimen": {
          "reference": "urn:uuid:77e78f73-2be9-417e-856a-a1014af7cfb4"
        }
      }
    },
    {
      "fullUrl": "urn:uuid:10103b78-86c0-44b0-a078-99a754e6ca21",
      "resource": {
        "resourceType": "Observation",
        "id": "10103b78-86c0-44b0-a078-99a754e6ca21",
        "meta": {
          "profile": [
            "http://hl7.eu/fhir/laboratory/StructureDefinition/Observation-resultslab-eu-lab"
          ]
        },
        "performer": [
          {
            "display": "The Central European Lab"
          }
        ],
        "category": [
          {
            "coding": [
              {
                "system": "http://terminology.hl7.org/CodeSystem/observation-category",
                "code": "laboratory"
              }
            ]
          }
        ],
        "code": {
          "coding": [
            {
              "code": "2160-0",
              "system": "http://loinc.org",
              "display": "Creatinine [Mass/volume] in Serum or Plasma"
            }
          ],
          "text": "Creatinine [Mass/volume] in Serum or Plasma"
        },
        "valueQuantity": {
          "system": "http://unitsofmeasure.org",
          "value": 2.3,
          "unit": "mg/dL",
          "code": "mg/dL"
        },
        "referenceRange": [
          {
            "low": {
              "value": 0.6,
              "code": "mg/dL",
              "system": "http://unitsofmeasure.org"
            }
          },
          {
            "high": {
              "value": 1.3,
              "code": "mg/dL",
              "system": "http://unitsofmeasure.org"
            }
          }
        ],
        "interpretation": [
          {
            "coding": [
              {
                "code": "H",
                "system": "http://terminology.hl7.org/CodeSystem/v3-ObservationInterpretation",
                "display": "High"
              }
            ]
          }
        ],
        "text": {
          "status": "generated",
          "div": "<div xmlns=\"http://www.w3.org/1999/xhtml\"><table class=\"hl7__eu__lab__report\"><tr><th>Test</th><th>08-Feb-2017</th><th>Reference&#xA0;Range</th><th>Unit</th></tr><tr><td>Creatinine [Mass/volume] in Serum or Plasma</td><td>2.3</td><td>0.6 - 1.3</td><td>H</td><td>mg/dL</td></tr></table></div>"
        },
        "status": "final",
        "subject": {
          "reference": "urn:uuid:9e46c4f6-136d-491b-8d01-d475a6b51f61",
          "display": "Maria Nohlmans"
        },
        "effectiveDateTime": "2017-02-08T11:02:39Z",
        "specimen": {
          "reference": "urn:uuid:77e78f73-2be9-417e-856a-a1014af7cfb4"
        }
      }
    },
    {
      "fullUrl": "urn:uuid:a2513a66-177b-439c-9456-c79baa6f3469",
      "resource": {
        "resourceType": "Observation",
        "id": "a2513a66-177b-439c-9456-c79baa6f3469",
        "meta": {
          "profile": [
            "http://hl7.eu/fhir/laboratory/StructureDefinition/Observation-resultslab-eu-lab"
          ]
        },
        "performer": [
          {
            "display": "The Central European Lab"
          }
        ],
        "category": [
          {
            "coding": [
              {
                "system": "http://terminology.hl7.org/CodeSystem/observation-category",
                "code": "laboratory"
              }
            ]
          }
        ],
        "code": {
          "coding": [
            {
              "code": "17861-6",
              "system": "http://loinc.org",
              "display": "Calcium [Mass/volume] in Serum or Plasma"
            }
          ],
          "text": "Calcium [Mass/volume] in Serum or Plasma"
        },
        "valueQuantity": {
          "system": "http://unitsofmeasure.org",
          "value": 8.8,
          "unit": "mg/dL",
          "code": "mg/dL"
        },
        "referenceRange": [
          {
            "low": {
              "value": 8.6,
              "code": "mg/dL",
              "system": "http://unitsofmeasure.org"
            }
          },
          {
            "high": {
              "value": 10.4,
              "code": "mg/dL",
              "system": "http://unitsofmeasure.org"
            }
          }
        ],
        "text": {
          "status": "generated",
          "div": "<div xmlns=\"http://www.w3.org/1999/xhtml\"><table class=\"hl7__eu__lab__report\"><tr><th>Test</th><th>08-Feb-2017</th><th>Reference&#xA0;Range</th><th>Unit</th></tr><tr><td>Calcium [Mass/volume] in Serum or Plasma</td><td>8.8</td><td>8.6 - 10.4</td><td></td><td>mg/dL</td></tr></table></div>"
        },
        "status": "final",
        "subject": {
          "reference": "urn:uuid:9e46c4f6-136d-491b-8d01-d475a6b51f61",
          "display": "Maria Nohlmans"
        },
        "effectiveDateTime": "2017-02-08T11:02:39Z",
        "specimen": {
          "reference": "urn:uuid:77e78f73-2be9-417e-856a-a1014af7cfb4"
        }
      }
    },
    {
      "fullUrl": "urn:uuid:f93f5ddb-183c-482b-a502-4d80e974d776",
      "resource": {
        "resourceType": "Observation",
        "id": "f93f5ddb-183c-482b-a502-4d80e974d776",
        "meta": {
          "profile": [
            "http://hl7.eu/fhir/laboratory/StructureDefinition/Observation-resultslab-eu-lab"
          ]
        },
        "performer": [
          {
            "display": "The Central European Lab"
          }
        ],
        "category": [
          {
            "coding": [
              {
                "system": "http://terminology.hl7.org/CodeSystem/observation-category",
                "code": "laboratory"
              }
            ]
          }
        ],
        "code": {
          "coding": [
            {
              "code": "2951-2",
              "system": "http://loinc.org",
              "display": "Sodium [Moles/volume] in Serum or Plasma"
            }
          ],
          "text": "Sodium [Moles/volume] in Serum or Plasma"
        },
        "valueQuantity": {
          "system": "http://unitsofmeasure.org",
          "value": 141.1,
          "unit": "mmol/L",
          "code": "mmol/L"
        },
        "referenceRange": [
          {
            "low": {
              "value": 135,
              "code": "mmol/L",
              "system": "http://unitsofmeasure.org"
            }
          },
          {
            "high": {
              "value": 145,
              "code": "mmol/L",
              "system": "http://unitsofmeasure.org"
            }
          }
        ],
        "text": {
          "status": "generated",
          "div": "<div xmlns=\"http://www.w3.org/1999/xhtml\"><table class=\"hl7__eu__lab__report\"><tr><th>Test</th><th>08-Feb-2017</th><th>Reference&#xA0;Range</th><th>Unit</th></tr><tr><td>Sodium [Moles/volume] in Serum or Plasma</td><td>141.1</td><td>135 - 145</td><td></td><td>mmol/L</td></tr></table></div>"
        },
        "status": "final",
        "subject": {
          "reference": "urn:uuid:9e46c4f6-136d-491b-8d01-d475a6b51f61",
          "display": "Maria Nohlmans"
        },
        "effectiveDateTime": "2017-02-08T11:02:39Z",
        "specimen": {
          "reference": "urn:uuid:77e78f73-2be9-417e-856a-a1014af7cfb4"
        }
      }
    },
    {
      "fullUrl": "urn:uuid:4309b395-3052-43fd-bb2c-6c3536babc51",
      "resource": {
        "resourceType": "Observation",
        "id": "4309b395-3052-43fd-bb2c-6c3536babc51",
        "meta": {
          "profile": [
            "http://hl7.eu/fhir/laboratory/StructureDefinition/Observation-resultslab-eu-lab"
          ]
        },
        "performer": [
          {
            "display": "The Central European Lab"
          }
        ],
        "category": [
          {
            "coding": [
              {
                "system": "http://terminology.hl7.org/CodeSystem/observation-category",
                "code": "laboratory"
              }
            ]
          }
        ],
        "code": {
          "coding": [
            {
              "code": "2823-3",
              "system": "http://loinc.org",
              "display": "Potassium [Moles/volume] in Serum or Plasma"
            }
          ],
          "text": "Potassium [Moles/volume] in Serum or Plasma"
        },
        "valueQuantity": {
          "system": "http://unitsofmeasure.org",
          "value": 4.8,
          "unit": "mmol/L",
          "code": "mmol/L"
        },
        "referenceRange": [
          {
            "low": {
              "value": 3.5,
              "code": "mmol/L",
              "system": "http://unitsofmeasure.org"
            }
          },
          {
            "high": {
              "value": 5.1,
              "code": "mmol/L",
              "system": "http://unitsofmeasure.org"
            }
          }
        ],
        "text": {
          "status": "generated",
          "div": "<div xmlns=\"http://www.w3.org/1999/xhtml\"><table class=\"hl7__eu__lab__report\"><tr><th>Test</th><th>08-Feb-2017</th><th>Reference&#xA0;Range</th><th>Unit</th></tr><tr><td>Potassium [Moles/volume] in Serum or Plasma</td><td>4.8</td><td>3.5 - 5.1</td><td></td><td>mmol/L</td></tr></table></div>"
        },
        "status": "final",
        "subject": {
          "reference": "urn:uuid:9e46c4f6-136d-491b-8d01-d475a6b51f61",
          "display": "Maria Nohlmans"
        },
        "effectiveDateTime": "2017-02-08T11:02:39Z",
        "specimen": {
          "reference": "urn:uuid:77e78f73-2be9-417e-856a-a1014af7cfb4"
        }
      }
    },
    {
      "fullUrl": "urn:uuid:e55c3813-0100-4723-a3d8-83927ced80df",
      "resource": {
        "resourceType": "Observation",
        "id": "e55c3813-0100-4723-a3d8-83927ced80df",
        "meta": {
          "profile": [
            "http://hl7.eu/fhir/laboratory/StructureDefinition/Observation-resultslab-eu-lab"
          ]
        },
        "performer": [
          {
            "display": "The Central European Lab"
          }
        ],
        "category": [
          {
            "coding": [
              {
                "system": "http://terminology.hl7.org/CodeSystem/observation-category",
                "code": "laboratory"
              }
            ]
          }
        ],
        "code": {
          "coding": [
            {
              "code": "2075-0",
              "system": "http://loinc.org",
              "display": "Chloride [Moles/volume] in Serum or Plasma"
            }
          ],
          "text": "Chloride [Moles/volume] in Serum or Plasma"
        },
        "valueQuantity": {
          "system": "http://unitsofmeasure.org",
          "value": 108.5,
          "unit": "mmol/L",
          "code": "mmol/L"
        },
        "referenceRange": [
          {
            "low": {
              "value": 98,
              "code": "mmol/L",
              "system": "http://unitsofmeasure.org"
            }
          },
          {
            "high": {
              "value": 108,
              "code": "mmol/L",
              "system": "http://unitsofmeasure.org"
            }
          }
        ],
        "interpretation": [
          {
            "coding": [
              {
                "code": "H",
                "system": "http://terminology.hl7.org/CodeSystem/v3-ObservationInterpretation",
                "display": "High"
              }
            ]
          }
        ],
        "text": {
          "status": "generated",
          "div": "<div xmlns=\"http://www.w3.org/1999/xhtml\"><table class=\"hl7__eu__lab__report\"><tr><th>Test</th><th>08-Feb-2017</th><th>Reference&#xA0;Range</th><th>Unit</th></tr><tr><td>Chloride [Moles/volume] in Serum or Plasma</td><td>108.5</td><td>98 - 108</td><td>H</td><td>mmol/L</td></tr></table></div>"
        },
        "status": "final",
        "subject": {
          "reference": "urn:uuid:9e46c4f6-136d-491b-8d01-d475a6b51f61",
          "display": "Maria Nohlmans"
        },
        "effectiveDateTime": "2017-02-08T11:02:39Z",
        "specimen": {
          "reference": "urn:uuid:77e78f73-2be9-417e-856a-a1014af7cfb4"
        }
      }
    },
    {
      "fullUrl": "urn:uuid:272ff7fb-2216-423b-85ae-9dcc7e135acf",
      "resource": {
        "resourceType": "Observation",
        "id": "272ff7fb-2216-423b-85ae-9dcc7e135acf",
        "meta": {
          "profile": [
            "http://hl7.eu/fhir/laboratory/StructureDefinition/Observation-resultslab-eu-lab"
          ]
        },
        "performer": [
          {
            "display": "The Central European Lab"
          }
        ],
        "category": [
          {
            "coding": [
              {
                "system": "http://terminology.hl7.org/CodeSystem/observation-category",
                "code": "laboratory"
              }
            ]
          }
        ],
        "code": {
          "coding": [
            {
              "code": "2028-9",
              "system": "http://loinc.org",
              "display": "Carbon dioxide, total [Moles/volume] in Serum or Plasma"
            }
          ],
          "text": "Carbon dioxide, total [Moles/volume] in Serum or Plasma"
        },
        "valueQuantity": {
          "system": "http://unitsofmeasure.org",
          "value": 28.7,
          "unit": "mmol/L",
          "code": "mmol/L"
        },
        "referenceRange": [
          {
            "low": {
              "value": 22,
              "code": "mmol/L",
              "system": "http://unitsofmeasure.org"
            }
          },
          {
            "high": {
              "value": 32,
              "code": "mmol/L",
              "system": "http://unitsofmeasure.org"
            }
          }
        ],
        "text": {
          "status": "generated",
          "div": "<div xmlns=\"http://www.w3.org/1999/xhtml\"><table class=\"hl7__eu__lab__report\"><tr><th>Test</th><th>08-Feb-2017</th><th>Reference&#xA0;Range</th><th>Unit</th></tr><tr><td>Carbon dioxide, total [Moles/volume] in Serum or Plasma</td><td>28.7</td><td>22 - 32</td><td></td><td>mmol/L</td></tr></table></div>"
        },
        "status": "final",
        "subject": {
          "reference": "urn:uuid:9e46c4f6-136d-491b-8d01-d475a6b51f61",
          "display": "Maria Nohlmans"
        },
        "effectiveDateTime": "2017-02-08T11:02:39Z",
        "specimen": {
          "reference": "urn:uuid:77e78f73-2be9-417e-856a-a1014af7cfb4"
        }
      }
    },
    {
      "fullUrl": "urn:uuid:524b1597-93fb-4c56-a5c3-374c4fac44bd",
      "resource": {
        "resourceType": "Observation",
        "id": "524b1597-93fb-4c56-a5c3-374c4fac44bd",
        "meta": {
          "profile": [
            "http://hl7.eu/fhir/laboratory/StructureDefinition/Observation-resultslab-eu-lab"
          ]
        },
        "performer": [
          {
            "display": "The Central European Lab"
          }
        ],
        "category": [
          {
            "coding": [
              {
                "system": "http://terminology.hl7.org/CodeSystem/observation-category",
                "code": "laboratory"
              }
            ]
          }
        ],
        "code": {
          "coding": [
            {
              "code": "5767-9",
              "system": "http://loinc.org",
              "display": "Appearance of Urine"
            }
          ],
          "text": "Appearance of Urine"
        },
        "text": {
          "status": "generated",
          "div": "<div xmlns=\"http://www.w3.org/1999/xhtml\"><table class=\"hl7__eu__lab__report\"><tr><th>Test</th><th>08-Feb-2017</th><th>Reference&#xA0;Range</th><th>Unit</th></tr><tr><td>Appearance of Urine</td></tr></table></div>"
        },
        "status": "final",
        "subject": {
          "reference": "urn:uuid:9e46c4f6-136d-491b-8d01-d475a6b51f61",
          "display": "Maria Nohlmans"
        },
        "effectiveDateTime": "2017-02-08T11:02:39Z",
        "specimen": {
          "reference": "urn:uuid:3864680b-9a0a-4eb1-a1d2-34ae9e5b31a2"
        }
      }
    },
    {
      "fullUrl": "urn:uuid:3d4e47e9-755c-49ca-b363-c99ed76b6f5f",
      "resource": {
        "resourceType": "Observation",
        "id": "3d4e47e9-755c-49ca-b363-c99ed76b6f5f",
        "meta": {
          "profile": [
            "http://hl7.eu/fhir/laboratory/StructureDefinition/Observation-resultslab-eu-lab"
          ]
        },
        "performer": [
          {
            "display": "The Central European Lab"
          }
        ],
        "category": [
          {
            "coding": [
              {
                "system": "http://terminology.hl7.org/CodeSystem/observation-category",
                "code": "laboratory"
              }
            ]
          }
        ],
        "code": {
          "coding": [
            {
              "code": "34533-0",
              "system": "http://loinc.org",
              "display": "Odor of Urine"
            }
          ],
          "text": "Odor of Urine"
        },
        "text": {
          "status": "generated",
          "div": "<div xmlns=\"http://www.w3.org/1999/xhtml\"><table class=\"hl7__eu__lab__report\"><tr><th>Test</th><th>08-Feb-2017</th><th>Reference&#xA0;Range</th><th>Unit</th></tr><tr><td>Odor of Urine</td></tr></table></div>"
        },
        "status": "final",
        "subject": {
          "reference": "urn:uuid:9e46c4f6-136d-491b-8d01-d475a6b51f61",
          "display": "Maria Nohlmans"
        },
        "effectiveDateTime": "2017-02-08T11:02:39Z",
        "specimen": {
          "reference": "urn:uuid:3864680b-9a0a-4eb1-a1d2-34ae9e5b31a2"
        }
      }
    },
    {
      "fullUrl": "urn:uuid:ea388742-d41f-4a32-b7db-a2f9ead72666",
      "resource": {
        "resourceType": "Observation",
        "id": "ea388742-d41f-4a32-b7db-a2f9ead72666",
        "meta": {
          "profile": [
            "http://hl7.eu/fhir/laboratory/StructureDefinition/Observation-resultslab-eu-lab"
          ]
        },
        "performer": [
          {
            "display": "The Central European Lab"
          }
        ],
        "category": [
          {
            "coding": [
              {
                "system": "http://terminology.hl7.org/CodeSystem/observation-category",
                "code": "laboratory"
              }
            ]
          }
        ],
        "code": {
          "coding": [
            {
              "code": "32167-9",
              "system": "http://loinc.org",
              "display": "Clarity of Urine"
            }
          ],
          "text": "Clarity of Urine"
        },
        "text": {
          "status": "generated",
          "div": "<div xmlns=\"http://www.w3.org/1999/xhtml\"><table class=\"hl7__eu__lab__report\"><tr><th>Test</th><th>08-Feb-2017</th><th>Reference&#xA0;Range</th><th>Unit</th></tr><tr><td>Clarity of Urine</td></tr></table></div>"
        },
        "status": "final",
        "subject": {
          "reference": "urn:uuid:9e46c4f6-136d-491b-8d01-d475a6b51f61",
          "display": "Maria Nohlmans"
        },
        "effectiveDateTime": "2017-02-08T11:02:39Z",
        "specimen": {
          "reference": "urn:uuid:3864680b-9a0a-4eb1-a1d2-34ae9e5b31a2"
        }
      }
    },
    {
      "fullUrl": "urn:uuid:6b819618-7d45-448e-89f3-1dcb80e25c5c",
      "resource": {
        "resourceType": "Observation",
        "id": "6b819618-7d45-448e-89f3-1dcb80e25c5c",
        "meta": {
          "profile": [
            "http://hl7.eu/fhir/laboratory/StructureDefinition/Observation-resultslab-eu-lab"
          ]
        },
        "performer": [
          {
            "display": "The Central European Lab"
          }
        ],
        "category": [
          {
            "coding": [
              {
                "system": "http://terminology.hl7.org/CodeSystem/observation-category",
                "code": "laboratory"
              }
            ]
          }
        ],
        "code": {
          "coding": [
            {
              "code": "5778-6",
              "system": "http://loinc.org",
              "display": "Color of Urine"
            }
          ],
          "text": "Color of Urine"
        },
        "text": {
          "status": "generated",
          "div": "<div xmlns=\"http://www.w3.org/1999/xhtml\"><table class=\"hl7__eu__lab__report\"><tr><th>Test</th><th>08-Feb-2017</th><th>Reference&#xA0;Range</th><th>Unit</th></tr><tr><td>Color of Urine</td></tr></table></div>"
        },
        "status": "final",
        "subject": {
          "reference": "urn:uuid:9e46c4f6-136d-491b-8d01-d475a6b51f61",
          "display": "Maria Nohlmans"
        },
        "effectiveDateTime": "2017-02-08T11:02:39Z",
        "specimen": {
          "reference": "urn:uuid:3864680b-9a0a-4eb1-a1d2-34ae9e5b31a2"
        }
      }
    },
    {
      "fullUrl": "urn:uuid:a014de1f-e487-4545-8c48-2c5b23a71180",
      "resource": {
        "resourceType": "Observation",
        "id": "a014de1f-e487-4545-8c48-2c5b23a71180",
        "meta": {
          "profile": [
            "http://hl7.eu/fhir/laboratory/StructureDefinition/Observation-resultslab-eu-lab"
          ]
        },
        "performer": [
          {
            "display": "The Central European Lab"
          }
        ],
        "category": [
          {
            "coding": [
              {
                "system": "http://terminology.hl7.org/CodeSystem/observation-category",
                "code": "laboratory"
              }
            ]
          }
        ],
        "code": {
          "coding": [
            {
              "code": "5792-7",
              "system": "http://loinc.org",
              "display": "Glucose [Mass/volume] in Urine by Test strip"
            }
          ],
          "text": "Glucose [Mass/volume] in Urine by Test strip"
        },
        "valueQuantity": {
          "system": "http://unitsofmeasure.org",
          "value": 2.3,
          "unit": "mg/dL",
          "code": "mg/dL"
        },
        "referenceRange": [
          {
            "low": {
              "value": 0.8,
              "code": "mg/dL",
              "system": "http://unitsofmeasure.org"
            }
          },
          {
            "high": {
              "value": 0,
              "code": "mg/dL",
              "system": "http://unitsofmeasure.org"
            }
          }
        ],
        "interpretation": [
          {
            "coding": [
              {
                "code": "H",
                "system": "http://terminology.hl7.org/CodeSystem/v3-ObservationInterpretation",
                "display": "High"
              }
            ]
          }
        ],
        "text": {
          "status": "generated",
          "div": "<div xmlns=\"http://www.w3.org/1999/xhtml\"><table class=\"hl7__eu__lab__report\"><tr><th>Test</th><th>08-Feb-2017</th><th>Reference&#xA0;Range</th><th>Unit</th></tr><tr><td>Glucose [Mass/volume] in Urine by Test strip</td><td>2.3</td><td>0.8 - 0</td><td>H</td><td>mg/dL</td></tr></table></div>"
        },
        "status": "final",
        "subject": {
          "reference": "urn:uuid:9e46c4f6-136d-491b-8d01-d475a6b51f61",
          "display": "Maria Nohlmans"
        },
        "effectiveDateTime": "2017-02-08T11:02:39Z",
        "specimen": {
          "reference": "urn:uuid:3864680b-9a0a-4eb1-a1d2-34ae9e5b31a2"
        }
      }
    },
    {
      "fullUrl": "urn:uuid:8c0631f1-37d7-436d-a516-6fd5f2f19d14",
      "resource": {
        "resourceType": "Observation",
        "id": "8c0631f1-37d7-436d-a516-6fd5f2f19d14",
        "meta": {
          "profile": [
            "http://hl7.eu/fhir/laboratory/StructureDefinition/Observation-resultslab-eu-lab"
          ]
        },
        "performer": [
          {
            "display": "The Central European Lab"
          }
        ],
        "category": [
          {
            "coding": [
              {
                "system": "http://terminology.hl7.org/CodeSystem/observation-category",
                "code": "laboratory"
              }
            ]
          }
        ],
        "code": {
          "coding": [
            {
              "code": "25428-4",
              "system": "http://loinc.org",
              "display": "Glucose [Presence] in Urine by Test strip"
            }
          ],
          "text": "Glucose [Presence] in Urine by Test strip"
        },
        "text": {
          "status": "generated",
          "div": "<div xmlns=\"http://www.w3.org/1999/xhtml\"><table class=\"hl7__eu__lab__report\"><tr><th>Test</th><th>08-Feb-2017</th><th>Reference&#xA0;Range</th><th>Unit</th></tr><tr><td>Glucose [Presence] in Urine by Test strip</td></tr></table></div>"
        },
        "status": "final",
        "subject": {
          "reference": "urn:uuid:9e46c4f6-136d-491b-8d01-d475a6b51f61",
          "display": "Maria Nohlmans"
        },
        "effectiveDateTime": "2017-02-08T11:02:39Z",
        "specimen": {
          "reference": "urn:uuid:3864680b-9a0a-4eb1-a1d2-34ae9e5b31a2"
        }
      }
    },
    {
      "fullUrl": "urn:uuid:29a0986a-dc94-41d7-a078-7919d3e6ec4c",
      "resource": {
        "resourceType": "Observation",
        "id": "29a0986a-dc94-41d7-a078-7919d3e6ec4c",
        "meta": {
          "profile": [
            "http://hl7.eu/fhir/laboratory/StructureDefinition/Observation-resultslab-eu-lab"
          ]
        },
        "performer": [
          {
            "display": "The Central European Lab"
          }
        ],
        "category": [
          {
            "coding": [
              {
                "system": "http://terminology.hl7.org/CodeSystem/observation-category",
                "code": "laboratory"
              }
            ]
          }
        ],
        "code": {
          "coding": [
            {
              "code": "20505-4",
              "system": "http://loinc.org",
              "display": "Bilirubin.total [Mass/volume] in Urine by Test strip"
            }
          ],
          "text": "Bilirubin.total [Mass/volume] in Urine by Test strip"
        },
        "valueQuantity": {
          "system": "http://unitsofmeasure.org",
          "value": 1.5,
          "unit": "mg/dL",
          "code": "mg/dL"
        },
        "referenceRange": [
          {
            "low": {
              "value": 0,
              "code": "mg/dL",
              "system": "http://unitsofmeasure.org"
            }
          },
          {
            "high": {
              "value": 1.5,
              "code": "mg/dL",
              "system": "http://unitsofmeasure.org"
            }
          }
        ],
        "text": {
          "status": "generated",
          "div": "<div xmlns=\"http://www.w3.org/1999/xhtml\"><table class=\"hl7__eu__lab__report\"><tr><th>Test</th><th>08-Feb-2017</th><th>Reference&#xA0;Range</th><th>Unit</th></tr><tr><td>Bilirubin.total [Mass/volume] in Urine by Test strip</td><td>1.5</td><td>0 - 1.5</td><td></td><td>mg/dL</td></tr></table></div>"
        },
        "status": "final",
        "subject": {
          "reference": "urn:uuid:9e46c4f6-136d-491b-8d01-d475a6b51f61",
          "display": "Maria Nohlmans"
        },
        "effectiveDateTime": "2017-02-08T11:02:39Z",
        "specimen": {
          "reference": "urn:uuid:3864680b-9a0a-4eb1-a1d2-34ae9e5b31a2"
        }
      }
    },
    {
      "fullUrl": "urn:uuid:96dce099-064a-4e0a-acf2-c5d2a8575521",
      "resource": {
        "resourceType": "Observation",
        "id": "96dce099-064a-4e0a-acf2-c5d2a8575521",
        "meta": {
          "profile": [
            "http://hl7.eu/fhir/laboratory/StructureDefinition/Observation-resultslab-eu-lab"
          ]
        },
        "performer": [
          {
            "display": "The Central European Lab"
          }
        ],
        "category": [
          {
            "coding": [
              {
                "system": "http://terminology.hl7.org/CodeSystem/observation-category",
                "code": "laboratory"
              }
            ]
          }
        ],
        "code": {
          "coding": [
            {
              "code": "5770-3",
              "system": "http://loinc.org",
              "display": "Bilirubin.total [Presence] in Urine by Test strip"
            }
          ],
          "text": "Bilirubin.total [Presence] in Urine by Test strip"
        },
        "text": {
          "status": "generated",
          "div": "<div xmlns=\"http://www.w3.org/1999/xhtml\"><table class=\"hl7__eu__lab__report\"><tr><th>Test</th><th>08-Feb-2017</th><th>Reference&#xA0;Range</th><th>Unit</th></tr><tr><td>Bilirubin.total [Presence] in Urine by Test strip</td></tr></table></div>"
        },
        "status": "final",
        "subject": {
          "reference": "urn:uuid:9e46c4f6-136d-491b-8d01-d475a6b51f61",
          "display": "Maria Nohlmans"
        },
        "effectiveDateTime": "2017-02-08T11:02:39Z",
        "specimen": {
          "reference": "urn:uuid:3864680b-9a0a-4eb1-a1d2-34ae9e5b31a2"
        }
      }
    },
    {
      "fullUrl": "urn:uuid:84417fa8-1ab9-4e78-a5e4-c8eb909e4732",
      "resource": {
        "resourceType": "Observation",
        "id": "84417fa8-1ab9-4e78-a5e4-c8eb909e4732",
        "meta": {
          "profile": [
            "http://hl7.eu/fhir/laboratory/StructureDefinition/Observation-resultslab-eu-lab"
          ]
        },
        "performer": [
          {
            "display": "The Central European Lab"
          }
        ],
        "category": [
          {
            "coding": [
              {
                "system": "http://terminology.hl7.org/CodeSystem/observation-category",
                "code": "laboratory"
              }
            ]
          }
        ],
        "code": {
          "coding": [
            {
              "code": "5797-6",
              "system": "http://loinc.org",
              "display": "Ketones [Mass/volume] in Urine by Test strip"
            }
          ],
          "text": "Ketones [Mass/volume] in Urine by Test strip"
        },
        "valueQuantity": {
          "system": "http://unitsofmeasure.org",
          "value": 6.2,
          "unit": "mg/dL",
          "code": "mg/dL"
        },
        "referenceRange": [
          {
            "low": {
              "value": 0,
              "code": "mg/dL",
              "system": "http://unitsofmeasure.org"
            }
          },
          {
            "high": {
              "value": 8,
              "code": "mg/dL",
              "system": "http://unitsofmeasure.org"
            }
          }
        ],
        "text": {
          "status": "generated",
          "div": "<div xmlns=\"http://www.w3.org/1999/xhtml\"><table class=\"hl7__eu__lab__report\"><tr><th>Test</th><th>08-Feb-2017</th><th>Reference&#xA0;Range</th><th>Unit</th></tr><tr><td>Ketones [Mass/volume] in Urine by Test strip</td><td>6.2</td><td>0 - 8</td><td></td><td>mg/dL</td></tr></table></div>"
        },
        "status": "final",
        "subject": {
          "reference": "urn:uuid:9e46c4f6-136d-491b-8d01-d475a6b51f61",
          "display": "Maria Nohlmans"
        },
        "effectiveDateTime": "2017-02-08T11:02:39Z",
        "specimen": {
          "reference": "urn:uuid:3864680b-9a0a-4eb1-a1d2-34ae9e5b31a2"
        }
      }
    },
    {
      "fullUrl": "urn:uuid:4c72017e-0580-4744-a034-5b3edb934cbd",
      "resource": {
        "resourceType": "Observation",
        "id": "4c72017e-0580-4744-a034-5b3edb934cbd",
        "meta": {
          "profile": [
            "http://hl7.eu/fhir/laboratory/StructureDefinition/Observation-resultslab-eu-lab"
          ]
        },
        "performer": [
          {
            "display": "The Central European Lab"
          }
        ],
        "category": [
          {
            "coding": [
              {
                "system": "http://terminology.hl7.org/CodeSystem/observation-category",
                "code": "laboratory"
              }
            ]
          }
        ],
        "code": {
          "coding": [
            {
              "code": "2514-8",
              "system": "http://loinc.org",
              "display": "Ketones [Presence] in Urine by Test strip"
            }
          ],
          "text": "Ketones [Presence] in Urine by Test strip"
        },
        "text": {
          "status": "generated",
          "div": "<div xmlns=\"http://www.w3.org/1999/xhtml\"><table class=\"hl7__eu__lab__report\"><tr><th>Test</th><th>08-Feb-2017</th><th>Reference&#xA0;Range</th><th>Unit</th></tr><tr><td>Ketones [Presence] in Urine by Test strip</td></tr></table></div>"
        },
        "status": "final",
        "subject": {
          "reference": "urn:uuid:9e46c4f6-136d-491b-8d01-d475a6b51f61",
          "display": "Maria Nohlmans"
        },
        "effectiveDateTime": "2017-02-08T11:02:39Z",
        "specimen": {
          "reference": "urn:uuid:3864680b-9a0a-4eb1-a1d2-34ae9e5b31a2"
        }
      }
    },
    {
      "fullUrl": "urn:uuid:9cbbbfe2-5507-4368-ba36-b1a1d2724e19",
      "resource": {
        "resourceType": "Observation",
        "id": "9cbbbfe2-5507-4368-ba36-b1a1d2724e19",
        "meta": {
          "profile": [
            "http://hl7.eu/fhir/laboratory/StructureDefinition/Observation-resultslab-eu-lab"
          ]
        },
        "performer": [
          {
            "display": "The Central European Lab"
          }
        ],
        "category": [
          {
            "coding": [
              {
                "system": "http://terminology.hl7.org/CodeSystem/observation-category",
                "code": "laboratory"
              }
            ]
          }
        ],
        "code": {
          "coding": [
            {
              "code": "5811-5",
              "system": "http://loinc.org",
              "display": "Specific gravity of Urine by Test strip"
            }
          ],
          "text": "Specific gravity of Urine by Test strip"
        },
        "valueQuantity": {
          "system": "http://unitsofmeasure.org",
          "value": 1,
          "unit": "{nominal}",
          "code": "{nominal}"
        },
        "referenceRange": [
          {
            "low": {
              "value": 1.01,
              "code": "g/mL",
              "system": "http://unitsofmeasure.org"
            }
          },
          {
            "high": {
              "value": 1.03,
              "code": "g/mL",
              "system": "http://unitsofmeasure.org"
            }
          }
        ],
        "interpretation": [
          {
            "coding": [
              {
                "code": "L",
                "system": "http://terminology.hl7.org/CodeSystem/v3-ObservationInterpretation",
                "display": "Low"
              }
            ]
          }
        ],
        "text": {
          "status": "generated",
          "div": "<div xmlns=\"http://www.w3.org/1999/xhtml\"><table class=\"hl7__eu__lab__report\"><tr><th>Test</th><th>08-Feb-2017</th><th>Reference&#xA0;Range</th><th>Unit</th></tr><tr><td>Specific gravity of Urine by Test strip</td><td>1.0</td><td>1.01 - 1.03</td><td>L</td><td>{nominal}</td></tr></table></div>"
        },
        "status": "final",
        "subject": {
          "reference": "urn:uuid:9e46c4f6-136d-491b-8d01-d475a6b51f61",
          "display": "Maria Nohlmans"
        },
        "effectiveDateTime": "2017-02-08T11:02:39Z",
        "specimen": {
          "reference": "urn:uuid:3864680b-9a0a-4eb1-a1d2-34ae9e5b31a2"
        }
      }
    },
    {
      "fullUrl": "urn:uuid:6cb1d9f2-ed9a-463f-a66a-ec5b50e088ec",
      "resource": {
        "resourceType": "Observation",
        "id": "6cb1d9f2-ed9a-463f-a66a-ec5b50e088ec",
        "meta": {
          "profile": [
            "http://hl7.eu/fhir/laboratory/StructureDefinition/Observation-resultslab-eu-lab"
          ]
        },
        "performer": [
          {
            "display": "The Central European Lab"
          }
        ],
        "category": [
          {
            "coding": [
              {
                "system": "http://terminology.hl7.org/CodeSystem/observation-category",
                "code": "laboratory"
              }
            ]
          }
        ],
        "code": {
          "coding": [
            {
              "code": "5803-2",
              "system": "http://loinc.org",
              "display": "pH of Urine by Test strip"
            }
          ],
          "text": "pH of Urine by Test strip"
        },
        "valueQuantity": {
          "system": "http://unitsofmeasure.org",
          "value": 6.8,
          "unit": "pH",
          "code": "pH"
        },
        "referenceRange": [
          {
            "low": {
              "value": 4.6,
              "code": "pH",
              "system": "http://unitsofmeasure.org"
            }
          },
          {
            "high": {
              "value": 7.5,
              "code": "pH",
              "system": "http://unitsofmeasure.org"
            }
          }
        ],
        "text": {
          "status": "generated",
          "div": "<div xmlns=\"http://www.w3.org/1999/xhtml\"><table class=\"hl7__eu__lab__report\"><tr><th>Test</th><th>08-Feb-2017</th><th>Reference&#xA0;Range</th><th>Unit</th></tr><tr><td>pH of Urine by Test strip</td><td>6.8</td><td>4.6 - 7.5</td><td></td><td>pH</td></tr></table></div>"
        },
        "status": "final",
        "subject": {
          "reference": "urn:uuid:9e46c4f6-136d-491b-8d01-d475a6b51f61",
          "display": "Maria Nohlmans"
        },
        "effectiveDateTime": "2017-02-08T11:02:39Z",
        "specimen": {
          "reference": "urn:uuid:3864680b-9a0a-4eb1-a1d2-34ae9e5b31a2"
        }
      }
    },
    {
      "fullUrl": "urn:uuid:07265fb7-7748-49cc-b7b4-49d5a39e7d5f",
      "resource": {
        "resourceType": "Observation",
        "id": "07265fb7-7748-49cc-b7b4-49d5a39e7d5f",
        "meta": {
          "profile": [
            "http://hl7.eu/fhir/laboratory/StructureDefinition/Observation-resultslab-eu-lab"
          ]
        },
        "performer": [
          {
            "display": "The Central European Lab"
          }
        ],
        "category": [
          {
            "coding": [
              {
                "system": "http://terminology.hl7.org/CodeSystem/observation-category",
                "code": "laboratory"
              }
            ]
          }
        ],
        "code": {
          "coding": [
            {
              "code": "5804-0",
              "system": "http://loinc.org",
              "display": "Protein [Mass/volume] in Urine by Test strip"
            }
          ],
          "text": "Protein [Mass/volume] in Urine by Test strip"
        },
        "valueQuantity": {
          "system": "http://unitsofmeasure.org",
          "value": 314.3,
          "unit": "mg/dL",
          "code": "mg/dL"
        },
        "referenceRange": [
          {
            "low": {
              "value": 0,
              "code": "mg/dL",
              "system": "http://unitsofmeasure.org"
            }
          },
          {
            "high": {
              "value": 14,
              "code": "mg/dL",
              "system": "http://unitsofmeasure.org"
            }
          }
        ],
        "interpretation": [
          {
            "coding": [
              {
                "code": "H",
                "system": "http://terminology.hl7.org/CodeSystem/v3-ObservationInterpretation",
                "display": "High"
              }
            ]
          }
        ],
        "text": {
          "status": "generated",
          "div": "<div xmlns=\"http://www.w3.org/1999/xhtml\"><table class=\"hl7__eu__lab__report\"><tr><th>Test</th><th>08-Feb-2017</th><th>Reference&#xA0;Range</th><th>Unit</th></tr><tr><td>Protein [Mass/volume] in Urine by Test strip</td><td>314.3</td><td>0 - 14</td><td>H</td><td>mg/dL</td></tr></table></div>"
        },
        "status": "final",
        "subject": {
          "reference": "urn:uuid:9e46c4f6-136d-491b-8d01-d475a6b51f61",
          "display": "Maria Nohlmans"
        },
        "effectiveDateTime": "2017-02-08T11:02:39Z",
        "specimen": {
          "reference": "urn:uuid:3864680b-9a0a-4eb1-a1d2-34ae9e5b31a2"
        }
      }
    },
    {
      "fullUrl": "urn:uuid:6d7ca807-b17e-4c94-8beb-797044b20c84",
      "resource": {
        "resourceType": "Observation",
        "id": "6d7ca807-b17e-4c94-8beb-797044b20c84",
        "meta": {
          "profile": [
            "http://hl7.eu/fhir/laboratory/StructureDefinition/Observation-resultslab-eu-lab"
          ]
        },
        "performer": [
          {
            "display": "The Central European Lab"
          }
        ],
        "category": [
          {
            "coding": [
              {
                "system": "http://terminology.hl7.org/CodeSystem/observation-category",
                "code": "laboratory"
              }
            ]
          }
        ],
        "code": {
          "coding": [
            {
              "code": "20454-5",
              "system": "http://loinc.org",
              "display": "Protein [Presence] in Urine by Test strip"
            }
          ],
          "text": "Protein [Presence] in Urine by Test strip"
        },
        "text": {
          "status": "generated",
          "div": "<div xmlns=\"http://www.w3.org/1999/xhtml\"><table class=\"hl7__eu__lab__report\"><tr><th>Test</th><th>08-Feb-2017</th><th>Reference&#xA0;Range</th><th>Unit</th></tr><tr><td>Protein [Presence] in Urine by Test strip</td></tr></table></div>"
        },
        "status": "final",
        "subject": {
          "reference": "urn:uuid:9e46c4f6-136d-491b-8d01-d475a6b51f61",
          "display": "Maria Nohlmans"
        },
        "effectiveDateTime": "2017-02-08T11:02:39Z",
        "specimen": {
          "reference": "urn:uuid:3864680b-9a0a-4eb1-a1d2-34ae9e5b31a2"
        }
      }
    },
    {
      "fullUrl": "urn:uuid:13d31eb2-5dc0-4339-95d6-3bf84ef31719",
      "resource": {
        "resourceType": "Observation",
        "id": "13d31eb2-5dc0-4339-95d6-3bf84ef31719",
        "meta": {
          "profile": [
            "http://hl7.eu/fhir/laboratory/StructureDefinition/Observation-resultslab-eu-lab"
          ]
        },
        "performer": [
          {
            "display": "The Central European Lab"
          }
        ],
        "category": [
          {
            "coding": [
              {
                "system": "http://terminology.hl7.org/CodeSystem/observation-category",
                "code": "laboratory"
              }
            ]
          }
        ],
        "code": {
          "coding": [
            {
              "code": "5802-4",
              "system": "http://loinc.org",
              "display": "Nitrite [Presence] in Urine by Test strip"
            }
          ],
          "text": "Nitrite [Presence] in Urine by Test strip"
        },
        "text": {
          "status": "generated",
          "div": "<div xmlns=\"http://www.w3.org/1999/xhtml\"><table class=\"hl7__eu__lab__report\"><tr><th>Test</th><th>08-Feb-2017</th><th>Reference&#xA0;Range</th><th>Unit</th></tr><tr><td>Nitrite [Presence] in Urine by Test strip</td></tr></table></div>"
        },
        "status": "final",
        "subject": {
          "reference": "urn:uuid:9e46c4f6-136d-491b-8d01-d475a6b51f61",
          "display": "Maria Nohlmans"
        },
        "effectiveDateTime": "2017-02-08T11:02:39Z",
        "specimen": {
          "reference": "urn:uuid:3864680b-9a0a-4eb1-a1d2-34ae9e5b31a2"
        }
      }
    },
    {
      "fullUrl": "urn:uuid:24cf4e33-5e6c-4596-ae2f-4d061bcac990",
      "resource": {
        "resourceType": "Observation",
        "id": "24cf4e33-5e6c-4596-ae2f-4d061bcac990",
        "meta": {
          "profile": [
            "http://hl7.eu/fhir/laboratory/StructureDefinition/Observation-resultslab-eu-lab"
          ]
        },
        "performer": [
          {
            "display": "The Central European Lab"
          }
        ],
        "category": [
          {
            "coding": [
              {
                "system": "http://terminology.hl7.org/CodeSystem/observation-category",
                "code": "laboratory"
              }
            ]
          }
        ],
        "code": {
          "coding": [
            {
              "code": "5794-3",
              "system": "http://loinc.org",
              "display": "Hemoglobin [Presence] in Urine by Test strip"
            }
          ],
          "text": "Hemoglobin [Presence] in Urine by Test strip"
        },
        "text": {
          "status": "generated",
          "div": "<div xmlns=\"http://www.w3.org/1999/xhtml\"><table class=\"hl7__eu__lab__report\"><tr><th>Test</th><th>08-Feb-2017</th><th>Reference&#xA0;Range</th><th>Unit</th></tr><tr><td>Hemoglobin [Presence] in Urine by Test strip</td></tr></table></div>"
        },
        "status": "final",
        "subject": {
          "reference": "urn:uuid:9e46c4f6-136d-491b-8d01-d475a6b51f61",
          "display": "Maria Nohlmans"
        },
        "effectiveDateTime": "2017-02-08T11:02:39Z",
        "specimen": {
          "reference": "urn:uuid:3864680b-9a0a-4eb1-a1d2-34ae9e5b31a2"
        }
      }
    },
    {
      "fullUrl": "urn:uuid:aa5a57eb-57ce-474a-ad33-69121c86aa43",
      "resource": {
        "resourceType": "Observation",
        "id": "aa5a57eb-57ce-474a-ad33-69121c86aa43",
        "meta": {
          "profile": [
            "http://hl7.eu/fhir/laboratory/StructureDefinition/Observation-resultslab-eu-lab"
          ]
        },
        "performer": [
          {
            "display": "The Central European Lab"
          }
        ],
        "category": [
          {
            "coding": [
              {
                "system": "http://terminology.hl7.org/CodeSystem/observation-category",
                "code": "laboratory"
              }
            ]
          }
        ],
        "code": {
          "coding": [
            {
              "code": "5799-2",
              "system": "http://loinc.org",
              "display": "Leukocyte esterase [Presence] in Urine by Test strip"
            }
          ],
          "text": "Leukocyte esterase [Presence] in Urine by Test strip"
        },
        "text": {
          "status": "generated",
          "div": "<div xmlns=\"http://www.w3.org/1999/xhtml\"><table class=\"hl7__eu__lab__report\"><tr><th>Test</th><th>08-Feb-2017</th><th>Reference&#xA0;Range</th><th>Unit</th></tr><tr><td>Leukocyte esterase [Presence] in Urine by Test strip</td></tr></table></div>"
        },
        "status": "final",
        "subject": {
          "reference": "urn:uuid:9e46c4f6-136d-491b-8d01-d475a6b51f61",
          "display": "Maria Nohlmans"
        },
        "effectiveDateTime": "2017-02-08T11:02:39Z",
        "specimen": {
          "reference": "urn:uuid:3864680b-9a0a-4eb1-a1d2-34ae9e5b31a2"
        }
      }
    },
    {
      "fullUrl": "urn:uuid:58c27fa8-17e5-4944-8ccf-025ef688e670",
      "resource": {
        "resourceType": "Observation",
        "id": "58c27fa8-17e5-4944-8ccf-025ef688e670",
        "meta": {
          "profile": [
            "http://hl7.eu/fhir/laboratory/StructureDefinition/Observation-resultslab-eu-lab"
          ]
        },
        "performer": [
          {
            "display": "The Central European Lab"
          }
        ],
        "category": [
          {
            "coding": [
              {
                "system": "http://terminology.hl7.org/CodeSystem/observation-category",
                "code": "laboratory"
              }
            ]
          }
        ],
        "code": {
          "coding": [
            {
              "code": "4548-4",
              "system": "http://loinc.org",
              "display": "Hemoglobin A1c/Hemoglobin.total in Blood"
            }
          ],
          "text": "Hemoglobin A1c/Hemoglobin.total in Blood"
        },
        "valueQuantity": {
          "system": "http://unitsofmeasure.org",
          "value": 3.2,
          "unit": "%",
          "code": "%"
        },
        "referenceRange": [
          {
            "low": {
              "value": 4.5,
              "code": "%",
              "system": "http://unitsofmeasure.org"
            }
          },
          {
            "high": {
              "value": 6.4,
              "code": "%",
              "system": "http://unitsofmeasure.org"
            }
          }
        ],
        "interpretation": [
          {
            "coding": [
              {
                "code": "L",
                "system": "http://terminology.hl7.org/CodeSystem/v3-ObservationInterpretation",
                "display": "Low"
              }
            ]
          }
        ],
        "text": {
          "status": "generated",
          "div": "<div xmlns=\"http://www.w3.org/1999/xhtml\"><table class=\"hl7__eu__lab__report\"><tr><th>Test</th><th>08-Feb-2017</th><th>Reference&#xA0;Range</th><th>Unit</th></tr><tr><td>Hemoglobin A1c/Hemoglobin.total in Blood</td><td>3.2</td><td>4.5 - 6.4</td><td>L</td><td>%</td></tr></table></div>"
        },
        "status": "final",
        "subject": {
          "reference": "urn:uuid:9e46c4f6-136d-491b-8d01-d475a6b51f61",
          "display": "Maria Nohlmans"
        },
        "effectiveDateTime": "2017-02-08T11:02:39Z",
        "specimen": {
          "reference": "urn:uuid:3555b8a9-958d-4f7d-8365-dd0cc0c02b20"
        }
      }
    },
    {
      "fullUrl": "urn:uuid:f253cc45-973d-415e-a648-4fd991184d10",
      "resource": {
        "resourceType": "Observation",
        "id": "f253cc45-973d-415e-a648-4fd991184d10",
        "meta": {
          "profile": [
            "http://hl7.eu/fhir/laboratory/StructureDefinition/Observation-resultslab-eu-lab"
          ]
        },
        "performer": [
          {
            "display": "The Central European Lab"
          }
        ],
        "category": [
          {
            "coding": [
              {
                "system": "http://terminology.hl7.org/CodeSystem/observation-category",
                "code": "laboratory"
              }
            ]
          }
        ],
        "code": {
          "coding": [
            {
              "code": "2339-0",
              "system": "http://loinc.org",
              "display": "Glucose [Mass/volume] in Blood"
            }
          ],
          "text": "Glucose [Mass/volume] in Blood"
        },
        "valueQuantity": {
          "system": "http://unitsofmeasure.org",
          "value": 75.2,
          "unit": "mg/dL",
          "code": "mg/dL"
        },
        "referenceRange": [
          {
            "low": {
              "value": 70,
              "code": "mg/dL",
              "system": "http://unitsofmeasure.org"
            }
          },
          {
            "high": {
              "value": 140,
              "code": "mg/dL",
              "system": "http://unitsofmeasure.org"
            }
          }
        ],
        "text": {
          "status": "generated",
          "div": "<div xmlns=\"http://www.w3.org/1999/xhtml\"><table class=\"hl7__eu__lab__report\"><tr><th>Test</th><th>08-Feb-2017</th><th>Reference&#xA0;Range</th><th>Unit</th></tr><tr><td>Glucose [Mass/volume] in Blood</td><td>75.2</td><td>70 - 140</td><td></td><td>mg/dL</td></tr></table></div>"
        },
        "status": "final",
        "subject": {
          "reference": "urn:uuid:9e46c4f6-136d-491b-8d01-d475a6b51f61",
          "display": "Maria Nohlmans"
        },
        "effectiveDateTime": "2017-02-08T11:02:39Z",
        "specimen": {
          "reference": "urn:uuid:3555b8a9-958d-4f7d-8365-dd0cc0c02b20"
        }
      }
    },
    {
      "fullUrl": "urn:uuid:88603381-9177-4888-8430-dd8f3cef8f76",
      "resource": {
        "resourceType": "Observation",
        "id": "88603381-9177-4888-8430-dd8f3cef8f76",
        "meta": {
          "profile": [
            "http://hl7.eu/fhir/laboratory/StructureDefinition/Observation-resultslab-eu-lab"
          ]
        },
        "performer": [
          {
            "display": "The Central European Lab"
          }
        ],
        "category": [
          {
            "coding": [
              {
                "system": "http://terminology.hl7.org/CodeSystem/observation-category",
                "code": "laboratory"
              }
            ]
          }
        ],
        "code": {
          "coding": [
            {
              "code": "6299-2",
              "system": "http://loinc.org",
              "display": "Urea nitrogen [Mass/volume] in Blood"
            }
          ],
          "text": "Urea nitrogen [Mass/volume] in Blood"
        },
        "valueQuantity": {
          "system": "http://unitsofmeasure.org",
          "value": 17.6,
          "unit": "mg/dL",
          "code": "mg/dL"
        },
        "referenceRange": [
          {
            "low": {
              "value": 7,
              "code": "mg/dL",
              "system": "http://unitsofmeasure.org"
            }
          },
          {
            "high": {
              "value": 30,
              "code": "mg/dL",
              "system": "http://unitsofmeasure.org"
            }
          }
        ],
        "text": {
          "status": "generated",
          "div": "<div xmlns=\"http://www.w3.org/1999/xhtml\"><table class=\"hl7__eu__lab__report\"><tr><th>Test</th><th>08-Feb-2017</th><th>Reference&#xA0;Range</th><th>Unit</th></tr><tr><td>Urea nitrogen [Mass/volume] in Blood</td><td>17.6</td><td>7 - 30</td><td></td><td>mg/dL</td></tr></table></div>"
        },
        "status": "final",
        "subject": {
          "reference": "urn:uuid:9e46c4f6-136d-491b-8d01-d475a6b51f61",
          "display": "Maria Nohlmans"
        },
        "effectiveDateTime": "2017-02-08T11:02:39Z",
        "specimen": {
          "reference": "urn:uuid:3555b8a9-958d-4f7d-8365-dd0cc0c02b20"
        }
      }
    },
    {
      "fullUrl": "urn:uuid:310081aa-46bc-4f0d-a69f-d2f951dc0719",
      "resource": {
        "resourceType": "Observation",
        "id": "310081aa-46bc-4f0d-a69f-d2f951dc0719",
        "meta": {
          "profile": [
            "http://hl7.eu/fhir/laboratory/StructureDefinition/Observation-resultslab-eu-lab"
          ]
        },
        "performer": [
          {
            "display": "The Central European Lab"
          }
        ],
        "category": [
          {
            "coding": [
              {
                "system": "http://terminology.hl7.org/CodeSystem/observation-category",
                "code": "laboratory"
              }
            ]
          }
        ],
        "code": {
          "coding": [
            {
              "code": "38483-4",
              "system": "http://loinc.org",
              "display": "Creatinine [Mass/volume] in Blood"
            }
          ],
          "text": "Creatinine [Mass/volume] in Blood"
        },
        "valueQuantity": {
          "system": "http://unitsofmeasure.org",
          "value": 8.9,
          "unit": "mg/dL",
          "code": "mg/dL"
        },
        "referenceRange": [
          {
            "low": {
              "value": 0.5,
              "code": "mg/dL",
              "system": "http://unitsofmeasure.org"
            }
          },
          {
            "high": {
              "value": 1.3,
              "code": "mg/dL",
              "system": "http://unitsofmeasure.org"
            }
          }
        ],
        "interpretation": [
          {
            "coding": [
              {
                "code": "H",
                "system": "http://terminology.hl7.org/CodeSystem/v3-ObservationInterpretation",
                "display": "High"
              }
            ]
          }
        ],
        "text": {
          "status": "generated",
          "div": "<div xmlns=\"http://www.w3.org/1999/xhtml\"><table class=\"hl7__eu__lab__report\"><tr><th>Test</th><th>08-Feb-2017</th><th>Reference&#xA0;Range</th><th>Unit</th></tr><tr><td>Creatinine [Mass/volume] in Blood</td><td>8.9</td><td>0.5 - 1.3</td><td>H</td><td>mg/dL</td></tr></table></div>"
        },
        "status": "final",
        "subject": {
          "reference": "urn:uuid:9e46c4f6-136d-491b-8d01-d475a6b51f61",
          "display": "Maria Nohlmans"
        },
        "effectiveDateTime": "2017-02-08T11:02:39Z",
        "specimen": {
          "reference": "urn:uuid:3555b8a9-958d-4f7d-8365-dd0cc0c02b20"
        }
      }
    },
    {
      "fullUrl": "urn:uuid:830e1779-2977-475c-97d2-554fb33f2fdb",
      "resource": {
        "resourceType": "Observation",
        "id": "830e1779-2977-475c-97d2-554fb33f2fdb",
        "meta": {
          "profile": [
            "http://hl7.eu/fhir/laboratory/StructureDefinition/Observation-resultslab-eu-lab"
          ]
        },
        "performer": [
          {
            "display": "The Central European Lab"
          }
        ],
        "category": [
          {
            "coding": [
              {
                "system": "http://terminology.hl7.org/CodeSystem/observation-category",
                "code": "laboratory"
              }
            ]
          }
        ],
        "code": {
          "coding": [
            {
              "code": "49765-1",
              "system": "http://loinc.org",
              "display": "Calcium [Mass/volume] in Blood"
            }
          ],
          "text": "Calcium [Mass/volume] in Blood"
        },
        "valueQuantity": {
          "system": "http://unitsofmeasure.org",
          "value": 8.8,
          "unit": "mg/dL",
          "code": "mg/dL"
        },
        "referenceRange": [
          {
            "low": {
              "value": 8.6,
              "code": "mg/dL",
              "system": "http://unitsofmeasure.org"
            }
          },
          {
            "high": {
              "value": 10.2,
              "code": "mg/dL",
              "system": "http://unitsofmeasure.org"
            }
          }
        ],
        "text": {
          "status": "generated",
          "div": "<div xmlns=\"http://www.w3.org/1999/xhtml\"><table class=\"hl7__eu__lab__report\"><tr><th>Test</th><th>08-Feb-2017</th><th>Reference&#xA0;Range</th><th>Unit</th></tr><tr><td>Calcium [Mass/volume] in Blood</td><td>8.8</td><td>8.6 - 10.2</td><td></td><td>mg/dL</td></tr></table></div>"
        },
        "status": "final",
        "subject": {
          "reference": "urn:uuid:9e46c4f6-136d-491b-8d01-d475a6b51f61",
          "display": "Maria Nohlmans"
        },
        "effectiveDateTime": "2017-02-08T11:02:39Z",
        "specimen": {
          "reference": "urn:uuid:3555b8a9-958d-4f7d-8365-dd0cc0c02b20"
        }
      }
    },
    {
      "fullUrl": "urn:uuid:30bd85fc-2276-4b57-9c96-6f071ea8f62d",
      "resource": {
        "resourceType": "Observation",
        "id": "30bd85fc-2276-4b57-9c96-6f071ea8f62d",
        "meta": {
          "profile": [
            "http://hl7.eu/fhir/laboratory/StructureDefinition/Observation-resultslab-eu-lab"
          ]
        },
        "performer": [
          {
            "display": "The Central European Lab"
          }
        ],
        "category": [
          {
            "coding": [
              {
                "system": "http://terminology.hl7.org/CodeSystem/observation-category",
                "code": "laboratory"
              }
            ]
          }
        ],
        "code": {
          "coding": [
            {
              "code": "2947-0",
              "system": "http://loinc.org",
              "display": "Sodium [Moles/volume] in Blood"
            }
          ],
          "text": "Sodium [Moles/volume] in Blood"
        },
        "valueQuantity": {
          "system": "http://unitsofmeasure.org",
          "value": 141.1,
          "unit": "mmol/L",
          "code": "mmol/L"
        },
        "referenceRange": [
          {
            "low": {
              "value": 135,
              "code": "mmol/L",
              "system": "http://unitsofmeasure.org"
            }
          },
          {
            "high": {
              "value": 145,
              "code": "mmol/L",
              "system": "http://unitsofmeasure.org"
            }
          }
        ],
        "text": {
          "status": "generated",
          "div": "<div xmlns=\"http://www.w3.org/1999/xhtml\"><table class=\"hl7__eu__lab__report\"><tr><th>Test</th><th>08-Feb-2017</th><th>Reference&#xA0;Range</th><th>Unit</th></tr><tr><td>Sodium [Moles/volume] in Blood</td><td>141.1</td><td>135 - 145</td><td></td><td>mmol/L</td></tr></table></div>"
        },
        "status": "final",
        "subject": {
          "reference": "urn:uuid:9e46c4f6-136d-491b-8d01-d475a6b51f61",
          "display": "Maria Nohlmans"
        },
        "effectiveDateTime": "2017-02-08T11:02:39Z",
        "specimen": {
          "reference": "urn:uuid:3555b8a9-958d-4f7d-8365-dd0cc0c02b20"
        }
      }
    },
    {
      "fullUrl": "urn:uuid:fab8e3a4-3ae4-44a4-aaf0-d78b9b8cf815",
      "resource": {
        "resourceType": "Observation",
        "id": "fab8e3a4-3ae4-44a4-aaf0-d78b9b8cf815",
        "meta": {
          "profile": [
            "http://hl7.eu/fhir/laboratory/StructureDefinition/Observation-resultslab-eu-lab"
          ]
        },
        "performer": [
          {
            "display": "The Central European Lab"
          }
        ],
        "category": [
          {
            "coding": [
              {
                "system": "http://terminology.hl7.org/CodeSystem/observation-category",
                "code": "laboratory"
              }
            ]
          }
        ],
        "code": {
          "coding": [
            {
              "code": "6298-4",
              "system": "http://loinc.org",
              "display": "Potassium [Moles/volume] in Blood"
            }
          ],
          "text": "Potassium [Moles/volume] in Blood"
        },
        "valueQuantity": {
          "system": "http://unitsofmeasure.org",
          "value": 4.8,
          "unit": "mmol/L",
          "code": "mmol/L"
        },
        "referenceRange": [
          {
            "low": {
              "value": 3.5,
              "code": "mmol/L",
              "system": "http://unitsofmeasure.org"
            }
          },
          {
            "high": {
              "value": 5.1,
              "code": "mmol/L",
              "system": "http://unitsofmeasure.org"
            }
          }
        ],
        "text": {
          "status": "generated",
          "div": "<div xmlns=\"http://www.w3.org/1999/xhtml\"><table class=\"hl7__eu__lab__report\"><tr><th>Test</th><th>08-Feb-2017</th><th>Reference&#xA0;Range</th><th>Unit</th></tr><tr><td>Potassium [Moles/volume] in Blood</td><td>4.8</td><td>3.5 - 5.1</td><td></td><td>mmol/L</td></tr></table></div>"
        },
        "status": "final",
        "subject": {
          "reference": "urn:uuid:9e46c4f6-136d-491b-8d01-d475a6b51f61",
          "display": "Maria Nohlmans"
        },
        "effectiveDateTime": "2017-02-08T11:02:39Z",
        "specimen": {
          "reference": "urn:uuid:3555b8a9-958d-4f7d-8365-dd0cc0c02b20"
        }
      }
    },
    {
      "fullUrl": "urn:uuid:bab51170-77ee-43f6-b11d-c6eb3cb2b8ac",
      "resource": {
        "resourceType": "Observation",
        "id": "bab51170-77ee-43f6-b11d-c6eb3cb2b8ac",
        "meta": {
          "profile": [
            "http://hl7.eu/fhir/laboratory/StructureDefinition/Observation-resultslab-eu-lab"
          ]
        },
        "performer": [
          {
            "display": "The Central European Lab"
          }
        ],
        "category": [
          {
            "coding": [
              {
                "system": "http://terminology.hl7.org/CodeSystem/observation-category",
                "code": "laboratory"
              }
            ]
          }
        ],
        "code": {
          "coding": [
            {
              "code": "2069-3",
              "system": "http://loinc.org",
              "display": "Chloride [Moles/volume] in Blood"
            }
          ],
          "text": "Chloride [Moles/volume] in Blood"
        },
        "valueQuantity": {
          "system": "http://unitsofmeasure.org",
          "value": 108.5,
          "unit": "mmol/L",
          "code": "mmol/L"
        },
        "referenceRange": [
          {
            "low": {
              "value": 98,
              "code": "mmol/L",
              "system": "http://unitsofmeasure.org"
            }
          },
          {
            "high": {
              "value": 114,
              "code": "mmol/L",
              "system": "http://unitsofmeasure.org"
            }
          }
        ],
        "text": {
          "status": "generated",
          "div": "<div xmlns=\"http://www.w3.org/1999/xhtml\"><table class=\"hl7__eu__lab__report\"><tr><th>Test</th><th>08-Feb-2017</th><th>Reference&#xA0;Range</th><th>Unit</th></tr><tr><td>Chloride [Moles/volume] in Blood</td><td>108.5</td><td>98 - 114</td><td></td><td>mmol/L</td></tr></table></div>"
        },
        "status": "final",
        "subject": {
          "reference": "urn:uuid:9e46c4f6-136d-491b-8d01-d475a6b51f61",
          "display": "Maria Nohlmans"
        },
        "effectiveDateTime": "2017-02-08T11:02:39Z",
        "specimen": {
          "reference": "urn:uuid:3555b8a9-958d-4f7d-8365-dd0cc0c02b20"
        }
      }
    },
    {
      "fullUrl": "urn:uuid:a3ba14bf-c6da-427c-aa39-4a2ec780d95b",
      "resource": {
        "resourceType": "Observation",
        "id": "a3ba14bf-c6da-427c-aa39-4a2ec780d95b",
        "meta": {
          "profile": [
            "http://hl7.eu/fhir/laboratory/StructureDefinition/Observation-resultslab-eu-lab"
          ]
        },
        "performer": [
          {
            "display": "The Central European Lab"
          }
        ],
        "category": [
          {
            "coding": [
              {
                "system": "http://terminology.hl7.org/CodeSystem/observation-category",
                "code": "laboratory"
              }
            ]
          }
        ],
        "code": {
          "coding": [
            {
              "code": "20565-8",
              "system": "http://loinc.org",
              "display": "Carbon dioxide, total [Moles/volume] in Blood"
            }
          ],
          "text": "Carbon dioxide, total [Moles/volume] in Blood"
        },
        "valueQuantity": {
          "system": "http://unitsofmeasure.org",
          "value": 28.7,
          "unit": "mmol/L",
          "code": "mmol/L"
        },
        "referenceRange": [
          {
            "low": {
              "value": 22,
              "code": "mmol/L",
              "system": "http://unitsofmeasure.org"
            }
          },
          {
            "high": {
              "value": 32,
              "code": "mmol/L",
              "system": "http://unitsofmeasure.org"
            }
          }
        ],
        "text": {
          "status": "generated",
          "div": "<div xmlns=\"http://www.w3.org/1999/xhtml\"><table class=\"hl7__eu__lab__report\"><tr><th>Test</th><th>08-Feb-2017</th><th>Reference&#xA0;Range</th><th>Unit</th></tr><tr><td>Carbon dioxide, total [Moles/volume] in Blood</td><td>28.7</td><td>22 - 32</td><td></td><td>mmol/L</td></tr></table></div>"
        },
        "status": "final",
        "subject": {
          "reference": "urn:uuid:9e46c4f6-136d-491b-8d01-d475a6b51f61",
          "display": "Maria Nohlmans"
        },
        "effectiveDateTime": "2017-02-08T11:02:39Z",
        "specimen": {
          "reference": "urn:uuid:3555b8a9-958d-4f7d-8365-dd0cc0c02b20"
        }
      }
    },
    {
      "fullUrl": "urn:uuid:12ce82c7-73db-47fa-a0a5-bda36404341b",
      "resource": {
        "resourceType": "Device",
        "id": "12ce82c7-73db-47fa-a0a5-bda36404341b",
        "deviceName": [
          {
            "name": "SYNDERAI Synthetic Generator",
            "type": "manufacturer-name"
          }
        ],
        "version": [
          {
            "value": "5.0"
          }
        ],
        "text": {
          "status": "generated",
          "div": "<div xmlns=\"http://www.w3.org/1999/xhtml\">SYNDERAI Synthetic Generator v5.0</div>"
        },
        "status": "active\"",
        "distinctIdentifier": "synderai-generator-50",
        "manufacturer": "SYNDERAI Project"
      }
    },
    {
      "fullUrl": "urn:uuid:0afc676a-5e68-4e18-9dc5-5d27f2588a87",
      "resource": {
        "resourceType": "Provenance",
        "id": "0afc676a-5e68-4e18-9dc5-5d27f2588a87",
        "target": [
          {
            "reference": "Patient/9e46c4f6-136d-491b-8d01-d475a6b51f61"
          },
          {
            "reference": "Bundle/1d4ac446-7078-4f28-8f07-8d5f06304d05"
          },
          {
            "reference": "Composition/26f33470-5965-42c8-a2f5-3ec48408eeb0"
          },
          {
            "reference": "PractitionerRole/f7d1d401-d7a5-477d-a470-0a40dbc15c72"
          },
          {
            "reference": "Practitioner/63d7efc5-d21c-45a0-b060-4161e4a7b459"
          },
          {
            "reference": "PractitionerRole/7c36a743-fbbf-42b6-aece-57a59d8ba02b"
          },
          {
            "reference": "Organization/5e8ccd21-fda1-473f-bd8f-293d5f75ed6c"
          }
        ],
        "activity": {
          "text": "Synthetic Example Data Generation"
        },
        "policy": [
          "https://synderai.net/synderai-synthetic-data-policy"
        ],
        "agent": [
          {
            "type": {
              "text": "author"
            },
            "who": {
              "reference": "Device/12ce82c7-73db-47fa-a0a5-bda36404341b"
            }
          }
        ],
        "reason": [
          {
            "text": "Interoperability Testing and Training (non-clinical use)"
          }
        ],
        "text": {
          "status": "generated",
          "div": "<div xmlns=\"http://www.w3.org/1999/xhtml\">Provenance for SYNDERAI Synthetic Example Data Resource</div>"
        },
        "recorded": "2017-02-08T12:02:39Z"
      }
    },
    {
      "fullUrl": "urn:uuid:f7d1d401-d7a5-477d-a470-0a40dbc15c72",
      "resource": {
        "resourceType": "PractitionerRole",
        "id": "f7d1d401-d7a5-477d-a470-0a40dbc15c72",
        "meta": {
          "profile": [
            "http://hl7.eu/fhir/base/StructureDefinition/practitionerRole-eu"
          ]
        },
        "text": {
          "status": "generated",
          "div": "<div xmlns=\"http://www.w3.org/1999/xhtml\">Laboratory Role Id: f7d1d401-d7a5-477d-a470-0a40dbc15c72</div>"
        },
        "practitioner": {
          "reference": "urn:uuid:63d7efc5-d21c-45a0-b060-4161e4a7b459"
        }
      }
    },
    {
      "fullUrl": "urn:uuid:63d7efc5-d21c-45a0-b060-4161e4a7b459",
      "resource": {
        "resourceType": "Practitioner",
        "id": "63d7efc5-d21c-45a0-b060-4161e4a7b459",
        "meta": {
          "profile": [
            "http://hl7.eu/fhir/base/StructureDefinition/practitioner-eu"
          ]
        },
        "identifier": [
          {
            "assigner": {
              "display": "HL7 Europe"
            },
            "system": "urn:oid:2.16.840.1.113883.2.51.999",
            "value": "25c1898a-27a2-43fd-9f25-2d76f3297038"
          }
        ],
        "name": [
          {
            "prefix": [
              "dr"
            ],
            "given": [
              "Ex"
            ],
            "family": "Ample"
          }
        ],
        "address": [
          {
            "line": [
              "Laboratoire Central Européenne",
              "Boulevard du Jardin Botanique 32"
            ],
            "postalCode": "1000",
            "city": "Brussels",
            "country": "Belgium"
          }
        ],
        "text": {
          "status": "generated",
          "div": "<div xmlns=\"http://www.w3.org/1999/xhtml\">Laboratory: Laboratoire Central Européenne, 1000 Brussels, Belgium</div>"
        }
      }
    }
  ],
  "type": "document",
  "timestamp": "2017-02-08T12:02:39Z"
}
