{
  "resourceType": "Bundle",
  "id": "d75efa13-6062-4dd6-adb8-bf665413bd20",
  "meta": {
    "profile": [
      "http://hl7.eu/fhir/laboratory/StructureDefinition/Bundle-eu-lab"
    ]
  },
  "identifier": {
    "assigner": {
      "display": "HL7 Europe"
    },
    "system": "urn:oid:2.16.840.1.113883.2.51.999",
    "value": "ca8757e9-6d4b-4ee4-847b-748e945187a6"
  },
  "entry": [
    {
      "fullUrl": "urn:uuid:bf72a77b-99cb-4815-8c4a-366c31666281",
      "resource": {
        "resourceType": "Composition",
        "id": "bf72a77b-99cb-4815-8c4a-366c31666281",
        "meta": {
          "profile": [
            "http://hl7.eu/fhir/laboratory/StructureDefinition/Composition-eu-lab"
          ]
        },
        "identifier": {
          "assigner": {
            "display": "HL7 Europe"
          },
          "system": "urn:oid:2.16.840.1.113883.2.51.999",
          "value": "91304474-6583-49be-a9c7-5dfbfee7ee78"
        },
        "author": [
          {
            "reference": "urn:uuid:42482c2c-e222-41e6-9677-cec5de1bbd26"
          }
        ],
        "category": [
          {
            "coding": [
              {
                "code": "26436-6",
                "system": "http://loinc.org",
                "display": "Laboratory studies (set)"
              }
            ]
          }
        ],
        "type": {
          "coding": [
            {
              "code": "11502-2",
              "system": "http://loinc.org",
              "display": "Laboratory report"
            }
          ],
          "text": "Laboratory Report"
        },
        "section": [
          {
            "code": {
              "coding": [
                {
                  "code": "26436-6",
                  "system": "http://loinc.org",
                  "display": "Laboratory studies (set)"
                }
              ],
              "text": "Laboratory studies"
            },
            "section": [
              {
                "code": {
                  "coding": [
                    {
                      "code": "$18719-5",
                      "system": "http://loinc.org",
                      "display": "Chemistry studies (set)"
                    }
                  ],
                  "text": "Chemistry"
                },
                "entry": [
                  {
                    "reference": "urn:uuid:236463a0-a45d-491a-a9d7-c04b747895d9"
                  },
                  {
                    "reference": "urn:uuid:4f75aa14-b38b-40c6-a8d7-66e43ebf41fb"
                  },
                  {
                    "reference": "urn:uuid:70f12380-3f87-4984-8be8-468dda09abf5"
                  },
                  {
                    "reference": "urn:uuid:9bdf0036-31ae-4d32-8e7e-239a9215fa7f"
                  },
                  {
                    "reference": "urn:uuid:180ab1b6-3a3c-4546-98a2-e964ff09c088"
                  },
                  {
                    "reference": "urn:uuid:cf04eb84-be56-42ca-a906-1e485ab21233"
                  },
                  {
                    "reference": "urn:uuid:8f345bb9-506e-4e21-ad63-903b36b34388"
                  },
                  {
                    "reference": "urn:uuid:b3254b3d-f8c0-43a3-8a84-72992d77055b"
                  },
                  {
                    "reference": "urn:uuid:281d4ff0-96ef-482c-845d-b64ad150606f"
                  }
                ],
                "text": {
                  "status": "generated",
                  "div": "<div xmlns=\"http://www.w3.org/1999/xhtml\"><h3>Chemistry</h3><table class=\"hl7__eu__lab__report\"><thead><tr><th>Test</th><th>27-JAN-2022</th><th>Reference&#xA0;Range</th><th>Unit</th></tr></thead><tbody><tr><td>Glucose [Mass/volume] in Serum or Plasma</td><td><strong>68.0 L</strong></td><td>70 - 140</td><td>mg/dL</td></tr><tr><td>Urea nitrogen [Mass/volume] in Serum or Plasma</td><td>15.6</td><td>7 - 50</td><td>mg/dL</td></tr><tr><td>Creatinine [Mass/volume] in Serum or Plasma</td><td><strong>1.9 H</strong></td><td>0.6 - 1.1</td><td>mg/dL</td></tr><tr><td>Calcium [Mass/volume] in Serum or Plasma</td><td>9.5</td><td>8.5 - 10.5</td><td>mg/dL</td></tr><tr><td>Sodium [Moles/volume] in Serum or Plasma</td><td>136.4</td><td>135 - 145</td><td>mmol/L</td></tr><tr><td>Potassium [Moles/volume] in Serum or Plasma</td><td>4.5</td><td>3.5 - 5.1</td><td>mmol/L</td></tr><tr><td>Chloride [Moles/volume] in Serum or Plasma</td><td>106.5</td><td>98 - 108</td><td>mmol/L</td></tr><tr><td>Carbon dioxide, total [Moles/volume] in Serum or Plasma</td><td>27.8</td><td>22 - 32</td><td>mmol/L</td></tr><tr><td>Ketones [Presence] in Urine by Test strip</td><td>Urine ketone test = +</td><td></td><td></td></tr></tbody></table></div>"
                },
                "title": "Chemistry"
              },
              {
                "code": {
                  "coding": [
                    {
                      "code": "$18729-4",
                      "system": "http://loinc.org",
                      "display": "Urinalysis studies (set)"
                    }
                  ],
                  "text": "Urinalysis"
                },
                "entry": [
                  {
                    "reference": "urn:uuid:20054789-76af-4921-8411-27b4e6107496"
                  },
                  {
                    "reference": "urn:uuid:f420c33e-73c0-4553-894f-014672e54af8"
                  },
                  {
                    "reference": "urn:uuid:89197bc5-ae0b-48b1-b80b-ed2ad7c73a16"
                  },
                  {
                    "reference": "urn:uuid:efb24bc7-684c-48de-a037-927743eea56c"
                  },
                  {
                    "reference": "urn:uuid:4bc2204e-217a-4945-bfd3-b05d18b03dcf"
                  },
                  {
                    "reference": "urn:uuid:35a9a68d-384a-405a-8d37-fe2b5cf7dc85"
                  },
                  {
                    "reference": "urn:uuid:d2c53a17-99e7-4d27-9b86-11e57980345c"
                  },
                  {
                    "reference": "urn:uuid:6dd8c27c-3bdb-4c94-a7ac-1535418755a9"
                  },
                  {
                    "reference": "urn:uuid:265cf3b6-80f7-457d-a1d5-f7149850c28b"
                  },
                  {
                    "reference": "urn:uuid:877ea1f7-68d6-4a23-8d73-9675ec19fb55"
                  },
                  {
                    "reference": "urn:uuid:3f579349-bd06-4f29-b9dd-d5c41175e528"
                  },
                  {
                    "reference": "urn:uuid:1c2065d4-ef92-4643-9f54-98fa12ae490f"
                  }
                ],
                "text": {
                  "status": "generated",
                  "div": "<div xmlns=\"http://www.w3.org/1999/xhtml\"><h3>Urinalysis</h3><table class=\"hl7__eu__lab__report\"><thead><tr><th>Test</th><th>27-JAN-2022</th><th>Reference&#xA0;Range</th><th>Unit</th></tr></thead><tbody><tr><td>Glucose [Mass/volume] in Urine by Test strip</td><td><strong>2.5 H</strong></td><td>0.8 - 0</td><td>mg/dL</td></tr><tr><td>Glucose [Presence] in Urine by Test strip</td><td>++</td><td></td><td></td></tr><tr><td>Bilirubin.total [Mass/volume] in Urine by Test strip</td><td><strong>1.1 H</strong></td><td>0 - 1</td><td>mg/dL</td></tr><tr><td>Bilirubin.total [Presence] in Urine by Test strip</td><td>Finding of bilirubin in urine</td><td></td><td></td></tr><tr><td>Ketones [Mass/volume] in Urine by Test strip</td><td>13.9</td><td>0 - 20</td><td>mg/dL</td></tr><tr><td>Specific gravity of Urine by Test strip</td><td><strong>1.0 L</strong></td><td>1.01 - 1.03</td><td>{nominal}</td></tr><tr><td>pH of Urine by Test strip</td><td>6.8</td><td>4.6 - 7</td><td>pH</td></tr><tr><td>Protein [Mass/volume] in Urine by Test strip</td><td><strong>337.8 H</strong></td><td>0 - 15</td><td>mg/dL</td></tr><tr><td>Protein [Presence] in Urine by Test strip</td><td>Urine protein test = ++</td><td></td><td></td></tr><tr><td>Nitrite [Presence] in Urine by Test strip</td><td>Urine nitrite negative</td><td></td><td></td></tr><tr><td>Hemoglobin [Presence] in Urine by Test strip</td><td>Urine blood test = negative</td><td></td><td></td></tr><tr><td>Leukocyte esterase [Presence] in Urine by Test strip</td><td>Urine leukocyte test negative</td><td></td><td></td></tr></tbody></table></div>"
                },
                "title": "Urinalysis"
              },
              {
                "code": {
                  "coding": [
                    {
                      "code": "$LP7846-1",
                      "system": "http://loinc.org",
                      "display": "Specimen information"
                    }
                  ],
                  "text": "Specimen information"
                },
                "entry": [
                  {
                    "reference": "urn:uuid:2f4d7faa-85f7-4681-bd2d-7df73a097862"
                  },
                  {
                    "reference": "urn:uuid:3fcfb173-330e-4356-bf60-a7bfd0474ac0"
                  },
                  {
                    "reference": "urn:uuid:59409844-1191-4ae8-b1d9-f5d73b75e646"
                  },
                  {
                    "reference": "urn:uuid:95ca00ba-f18a-402a-8a41-be7988da3e02"
                  }
                ],
                "text": {
                  "status": "generated",
                  "div": "<div xmlns=\"http://www.w3.org/1999/xhtml\"><h3>Specimen information</h3><table class=\"hl7__eu__lab__report\"><thead><tr><th>Test</th><th>27-JAN-2022</th><th>Specimen</th><th></th></tr></thead><tbody><tr><td>Appearance of Urine</td><td>Cloudy urine</td><td>Urine</td><td></td></tr><tr><td>Odor of Urine</td><td>Urine smell ammoniacal</td><td>Urine</td><td></td></tr><tr><td>Clarity of Urine</td><td>Translucent</td><td>Urine</td><td></td></tr><tr><td>Color of Urine</td><td>Brown color</td><td>Urine</td><td></td></tr></tbody></table></div>"
                },
                "title": "Specimen information"
              }
            ],
            "title": "Laboratory Report"
          },
          {
            "text": {
              "status": "generated",
              "div": "<div xmlns=\"http://www.w3.org/1999/xhtml\"><h3>Annotation</h3><table class=\"hl7__eu__lab__report\"><tr><th>Conclusion and Recommendations based on this report and previous findings known to us</th></tr><tr><td>The patient shows mild hypoglycemia, elevated creatinine suggesting impaired renal function, and significant proteinuria with low urine specific gravity, indicating possible nephrotic syndrome or glomerular pathology. Presence of glucose and bilirubin in urine is abnormal and may reflect underlying metabolic or hepatic issues. No evidence of urinary tract infection. Recommend further nephrological and metabolic evaluation.</td></tr></table></div>"
            },
            "code": {
              "coding": [
                {
                  "system": "http://loinc.org",
                  "code": "48767-8",
                  "display": "Annotation comment"
                }
              ]
            },
            "title": "Annotation comment"
          }
        ],
        "status": "final",
        "subject": {
          "reference": "urn:uuid:979fe1b6-a5d2-452f-9fbf-5050129508bb",
          "display": "Marthe Gallet"
        },
        "date": "2022-01-27T20:05:43Z",
        "title": "Laboratory Report",
        "confidentiality": "N"
      }
    },
    {
      "fullUrl": "urn:uuid:394299d5-3ec0-482b-9ae2-a9102ab6b767",
      "resource": {
        "resourceType": "DiagnosticReport",
        "id": "394299d5-3ec0-482b-9ae2-a9102ab6b767",
        "meta": {
          "profile": [
            "http://hl7.eu/fhir/laboratory/StructureDefinition/DiagnosticReport-eu-lab"
          ]
        },
        "identifier": [
          {
            "assigner": {
              "display": "HL7 Europe"
            },
            "system": "urn:oid:2.16.840.1.113883.2.51.999",
            "value": "f85e6528-ed17-42c8-a08c-33b83b25e031"
          }
        ],
        "extension": [
          {
            "url": "http://hl7.org/fhir/5.0/StructureDefinition/extension-DiagnosticReport.composition",
            "valueReference": {
              "reference": "urn:uuid:91304474-6583-49be-a9c7-5dfbfee7ee78"
            }
          }
        ],
        "category": [
          {
            "coding": [
              {
                "code": "26436-6",
                "system": "http://loinc.org",
                "display": "Laboratory studies (set)"
              }
            ]
          }
        ],
        "specimen": [
          {
            "reference": "urn:uuid:a6e8fb0f-ddac-4b1c-85ff-240ed1210d1d"
          },
          {
            "reference": "urn:uuid:3a4040a4-1ea6-4568-a448-b9ebf01e8f18"
          }
        ],
        "result": [
          {
            "reference": "urn:uuid:236463a0-a45d-491a-a9d7-c04b747895d9"
          },
          {
            "reference": "urn:uuid:4f75aa14-b38b-40c6-a8d7-66e43ebf41fb"
          },
          {
            "reference": "urn:uuid:70f12380-3f87-4984-8be8-468dda09abf5"
          },
          {
            "reference": "urn:uuid:9bdf0036-31ae-4d32-8e7e-239a9215fa7f"
          },
          {
            "reference": "urn:uuid:180ab1b6-3a3c-4546-98a2-e964ff09c088"
          },
          {
            "reference": "urn:uuid:cf04eb84-be56-42ca-a906-1e485ab21233"
          },
          {
            "reference": "urn:uuid:8f345bb9-506e-4e21-ad63-903b36b34388"
          },
          {
            "reference": "urn:uuid:b3254b3d-f8c0-43a3-8a84-72992d77055b"
          },
          {
            "reference": "urn:uuid:2f4d7faa-85f7-4681-bd2d-7df73a097862"
          },
          {
            "reference": "urn:uuid:3fcfb173-330e-4356-bf60-a7bfd0474ac0"
          },
          {
            "reference": "urn:uuid:59409844-1191-4ae8-b1d9-f5d73b75e646"
          },
          {
            "reference": "urn:uuid:95ca00ba-f18a-402a-8a41-be7988da3e02"
          },
          {
            "reference": "urn:uuid:20054789-76af-4921-8411-27b4e6107496"
          },
          {
            "reference": "urn:uuid:f420c33e-73c0-4553-894f-014672e54af8"
          },
          {
            "reference": "urn:uuid:89197bc5-ae0b-48b1-b80b-ed2ad7c73a16"
          },
          {
            "reference": "urn:uuid:efb24bc7-684c-48de-a037-927743eea56c"
          },
          {
            "reference": "urn:uuid:4bc2204e-217a-4945-bfd3-b05d18b03dcf"
          },
          {
            "reference": "urn:uuid:281d4ff0-96ef-482c-845d-b64ad150606f"
          },
          {
            "reference": "urn:uuid:35a9a68d-384a-405a-8d37-fe2b5cf7dc85"
          },
          {
            "reference": "urn:uuid:d2c53a17-99e7-4d27-9b86-11e57980345c"
          },
          {
            "reference": "urn:uuid:6dd8c27c-3bdb-4c94-a7ac-1535418755a9"
          },
          {
            "reference": "urn:uuid:265cf3b6-80f7-457d-a1d5-f7149850c28b"
          },
          {
            "reference": "urn:uuid:877ea1f7-68d6-4a23-8d73-9675ec19fb55"
          },
          {
            "reference": "urn:uuid:3f579349-bd06-4f29-b9dd-d5c41175e528"
          },
          {
            "reference": "urn:uuid:1c2065d4-ef92-4643-9f54-98fa12ae490f"
          }
        ],
        "status": "registered",
        "code": {
          "coding": [
            {
              "code": "11502-2",
              "system": "http://loinc.org",
              "display": "Laboratory report"
            }
          ]
        },
        "subject": {
          "reference": "urn:uuid:979fe1b6-a5d2-452f-9fbf-5050129508bb",
          "display": "Marthe Gallet"
        }
      }
    },
    {
      "fullUrl": "urn:uuid:979fe1b6-a5d2-452f-9fbf-5050129508bb",
      "resource": {
        "resourceType": "Patient",
        "id": "979fe1b6-a5d2-452f-9fbf-5050129508bb",
        "meta": {
          "security": [
            {
              "system": "http://terminology.hl7.org/CodeSystem/v3-ActReason",
              "code": "HTEST"
            },
            {
              "system": "http://terminology.hl7.org/CodeSystem/v3-ActReason",
              "code": "TRAIN"
            }
          ],
          "tag": [
            {
              "system": "https://synderai.net/fhir/CodeSystem/tags",
              "code": "synthetic",
              "display": "SYNDERAI Synthetic data"
            }
          ],
          "profile": [
            "http://hl7.eu/fhir/base/StructureDefinition/patient-eu-core"
          ]
        },
        "identifier": [
          {
            "type": {
              "coding": [
                {
                  "code": "PT",
                  "system": "http://terminology.hl7.org/CodeSystem/v2-0203"
                }
              ]
            },
            "system": "http://ec.europa.eu/identifier/eci",
            "value": "9444-947487-6"
          },
          {
            "type": {
              "coding": [
                {
                  "code": "MR",
                  "system": "http://terminology.hl7.org/CodeSystem/v2-0203"
                }
              ]
            },
            "system": "http://local.setting.eu/identifier",
            "value": "854228d5-a476-2d9c-a1d7-c3202375a617"
          }
        ],
        "name": [
          {
            "family": "Gallet"
          },
          {
            "given": [
              "Marthe"
            ]
          },
          {
            "text": "Marthe Gallet"
          }
        ],
        "address": [
          {
            "line": [
              "3, rue Emmanuel Goncalves"
            ],
            "use": "home",
            "type": "physical",
            "postalCode": "49490",
            "city": "Briand",
            "country": "France"
          }
        ],
        "telecom": [
          {
            "system": "phone",
            "value": "+33 1 70 99 82 74"
          }
        ],
        "extension": [
          {
            "url": "http://hl7.org/fhir/StructureDefinition/patient-nationality",
            "valueCodeableConcept": {
              "coding": [
                {
                  "code": "FR",
                  "system": "http://hl7.org/fhir/ValueSet/country"
                }
              ]
            }
          }
        ],
        "text": {
          "status": "generated",
          "div": "<div xmlns=\"http://www.w3.org/1999/xhtml\"><table class=\"hl7__ips\"><tr><td>Marthe Gallet</td><td>female</td><td>29-Oct-1950</td></tr></table></div>"
        },
        "gender": "female",
        "birthDate": "1950-10-29"
      }
    },
    {
      "fullUrl": "urn:uuid:7d6973ad-40a6-4946-b4aa-a865d8d1dcd2",
      "resource": {
        "resourceType": "ServiceRequest",
        "id": "7d6973ad-40a6-4946-b4aa-a865d8d1dcd2",
        "meta": {
          "profile": [
            "http://hl7.eu/fhir/laboratory/StructureDefinition/ServiceRequest-eu-lab"
          ]
        },
        "identifier": [
          {
            "system": "http://example.org",
            "value": "a3fbe936-6e4f-433a-8d1c-8d5ae8663b1b"
          }
        ],
        "specimen": [
          {
            "reference": "urn:uuid:a6e8fb0f-ddac-4b1c-85ff-240ed1210d1d"
          },
          {
            "reference": "urn:uuid:3a4040a4-1ea6-4568-a448-b9ebf01e8f18"
          }
        ],
        "reasonCode": [
          {
            "coding": [
              {
                "code": "431856006",
                "system": "http://snomed.info/sct",
                "display": "Chronic kidney disease stage 2"
              }
            ]
          },
          {
            "coding": [
              {
                "code": "90781000119102",
                "system": "http://snomed.info/sct",
                "display": "Microalbuminuria due to type 2 diabetes mellitus"
              }
            ]
          },
          {
            "coding": [
              {
                "code": "127013003",
                "system": "http://snomed.info/sct",
                "display": "Disorder of kidney due to diabetes mellitus"
              }
            ]
          },
          {
            "coding": [
              {
                "code": "431855005",
                "system": "http://snomed.info/sct",
                "display": "Chronic kidney disease stage 1"
              }
            ]
          },
          {
            "coding": [
              {
                "code": "55822004",
                "system": "http://snomed.info/sct",
                "display": "Hyperlipidemia"
              }
            ]
          },
          {
            "coding": [
              {
                "code": "59621000",
                "system": "http://snomed.info/sct",
                "display": "Essential hypertension"
              }
            ]
          }
        ],
        "status": "active",
        "intent": "order",
        "code": {
          "coding": [
            {
              "code": "108252007",
              "system": "http://snomed.info/sct",
              "display": "Laboratory procedure"
            }
          ]
        },
        "subject": {
          "reference": "urn:uuid:979fe1b6-a5d2-452f-9fbf-5050129508bb",
          "display": "Marthe Gallet"
        },
        "requester": {
          "reference": "urn:uuid:e57dbad7-5216-4e4c-82d9-5c3cb4274eb2"
        }
      }
    },
    {
      "fullUrl": "urn:uuid:e57dbad7-5216-4e4c-82d9-5c3cb4274eb2",
      "resource": {
        "resourceType": "PractitionerRole",
        "id": "e57dbad7-5216-4e4c-82d9-5c3cb4274eb2",
        "meta": {
          "profile": [
            "http://hl7.eu/fhir/base/StructureDefinition/practitionerRole-eu"
          ]
        },
        "text": {
          "status": "generated",
          "div": "<div xmlns=\"http://www.w3.org/1999/xhtml\">Provider Role Id: e57dbad7-5216-4e4c-82d9-5c3cb4274eb2</div>"
        },
        "organization": {
          "reference": "urn:uuid:d2b38e83-5b8b-464e-b84f-a77a1ed52582"
        }
      }
    },
    {
      "fullUrl": "urn:uuid:d2b38e83-5b8b-464e-b84f-a77a1ed52582",
      "resource": {
        "resourceType": "Organization",
        "id": "d2b38e83-5b8b-464e-b84f-a77a1ed52582",
        "meta": {
          "profile": [
            "http://hl7.eu/fhir/base/StructureDefinition/organization-eu"
          ]
        },
        "identifier": [
          {
            "assigner": {
              "display": "HL7 Europe"
            },
            "system": "urn:oid:2.16.840.1.113883.2.51.999",
            "value": "3d555d4e-2137-47b6-b498-69b9c98ba0aa"
          }
        ],
        "address": [
          {
            "line": [
              "Rue Larrey nan"
            ],
            "city": "Angers",
            "postalCode": "49100",
            "country": "France"
          }
        ],
        "text": {
          "status": "generated",
          "div": "<div xmlns=\"http://www.w3.org/1999/xhtml\">Provider Organization: CHU d&#039;Angers</div>"
        },
        "name": "CHU d&#039;Angers"
      }
    },
    {
      "fullUrl": "urn:uuid:a6e8fb0f-ddac-4b1c-85ff-240ed1210d1d",
      "resource": {
        "resourceType": "Specimen",
        "id": "a6e8fb0f-ddac-4b1c-85ff-240ed1210d1d",
        "meta": {
          "profile": [
            "http://hl7.eu/fhir/laboratory/StructureDefinition/Specimen-eu-lab"
          ]
        },
        "collection": {
          "collectedDateTime": "2022-01-27"
        },
        "text": {
          "status": "generated",
          "div": "<div xmlns=\"http://www.w3.org/1999/xhtml\"><table class=\"hl7__eu__lab__report\"><tr><th>Specimen</th><th>Collection Date</th></tr><tr><td>Acellular blood (serum or plasma) specimen</td><td><span class=\"nb\">27-Jan-2022</span></td></tr></table></div>"
        },
        "type": {
          "coding": [
            {
              "code": "122592007",
              "system": "http://snomed.info/sct",
              "display": "Acellular blood (serum or plasma) specimen"
            }
          ]
        }
      }
    },
    {
      "fullUrl": "urn:uuid:3a4040a4-1ea6-4568-a448-b9ebf01e8f18",
      "resource": {
        "resourceType": "Specimen",
        "id": "3a4040a4-1ea6-4568-a448-b9ebf01e8f18",
        "meta": {
          "profile": [
            "http://hl7.eu/fhir/laboratory/StructureDefinition/Specimen-eu-lab"
          ]
        },
        "collection": {
          "collectedDateTime": "2022-01-27"
        },
        "text": {
          "status": "generated",
          "div": "<div xmlns=\"http://www.w3.org/1999/xhtml\"><table class=\"hl7__eu__lab__report\"><tr><th>Specimen</th><th>Collection Date</th></tr><tr><td>Urine specimen</td><td><span class=\"nb\">27-Jan-2022</span></td></tr></table></div>"
        },
        "type": {
          "coding": [
            {
              "code": "122575003",
              "system": "http://snomed.info/sct",
              "display": "Urine specimen"
            }
          ]
        }
      }
    },
    {
      "fullUrl": "urn:uuid:236463a0-a45d-491a-a9d7-c04b747895d9",
      "resource": {
        "resourceType": "Observation",
        "id": "236463a0-a45d-491a-a9d7-c04b747895d9",
        "meta": {
          "profile": [
            "http://hl7.eu/fhir/laboratory/StructureDefinition/Observation-resultslab-eu-lab"
          ]
        },
        "performer": [
          {
            "display": "The Central European Lab"
          }
        ],
        "category": [
          {
            "coding": [
              {
                "system": "http://terminology.hl7.org/CodeSystem/observation-category",
                "code": "laboratory"
              }
            ]
          }
        ],
        "code": {
          "coding": [
            {
              "code": "2345-7",
              "system": "http://loinc.org",
              "display": "Glucose [Mass/volume] in Serum or Plasma"
            }
          ],
          "text": "Glucose [Mass/volume] in Serum or Plasma"
        },
        "valueQuantity": {
          "system": "http://unitsofmeasure.org",
          "value": 68,
          "unit": "mg/dL",
          "code": "mg/dL"
        },
        "referenceRange": [
          {
            "low": {
              "value": 70,
              "code": "mg/dL",
              "system": "http://unitsofmeasure.org"
            }
          },
          {
            "high": {
              "value": 140,
              "code": "mg/dL",
              "system": "http://unitsofmeasure.org"
            }
          }
        ],
        "interpretation": [
          {
            "coding": [
              {
                "code": "L",
                "system": "http://terminology.hl7.org/CodeSystem/v3-ObservationInterpretation",
                "display": "Low"
              }
            ]
          }
        ],
        "text": {
          "status": "generated",
          "div": "<div xmlns=\"http://www.w3.org/1999/xhtml\"><table class=\"hl7__eu__lab__report\"><tr><th>Test</th><th>27-Jan-2022</th><th>Reference&#xA0;Range</th><th>Unit</th></tr><tr><td>Glucose [Mass/volume] in Serum or Plasma</td><td>68.0</td><td>70 - 140</td><td>L</td><td>mg/dL</td></tr></table></div>"
        },
        "status": "final",
        "subject": {
          "reference": "urn:uuid:979fe1b6-a5d2-452f-9fbf-5050129508bb",
          "display": "Marthe Gallet"
        },
        "effectiveDateTime": "2022-01-27T19:05:43Z",
        "specimen": {
          "reference": "urn:uuid:a6e8fb0f-ddac-4b1c-85ff-240ed1210d1d"
        }
      }
    },
    {
      "fullUrl": "urn:uuid:4f75aa14-b38b-40c6-a8d7-66e43ebf41fb",
      "resource": {
        "resourceType": "Observation",
        "id": "4f75aa14-b38b-40c6-a8d7-66e43ebf41fb",
        "meta": {
          "profile": [
            "http://hl7.eu/fhir/laboratory/StructureDefinition/Observation-resultslab-eu-lab"
          ]
        },
        "performer": [
          {
            "display": "The Central European Lab"
          }
        ],
        "category": [
          {
            "coding": [
              {
                "system": "http://terminology.hl7.org/CodeSystem/observation-category",
                "code": "laboratory"
              }
            ]
          }
        ],
        "code": {
          "coding": [
            {
              "code": "3094-0",
              "system": "http://loinc.org",
              "display": "Urea nitrogen [Mass/volume] in Serum or Plasma"
            }
          ],
          "text": "Urea nitrogen [Mass/volume] in Serum or Plasma"
        },
        "valueQuantity": {
          "system": "http://unitsofmeasure.org",
          "value": 15.6,
          "unit": "mg/dL",
          "code": "mg/dL"
        },
        "referenceRange": [
          {
            "low": {
              "value": 7,
              "code": "mg/dL",
              "system": "http://unitsofmeasure.org"
            }
          },
          {
            "high": {
              "value": 50,
              "code": "mg/dL",
              "system": "http://unitsofmeasure.org"
            }
          }
        ],
        "text": {
          "status": "generated",
          "div": "<div xmlns=\"http://www.w3.org/1999/xhtml\"><table class=\"hl7__eu__lab__report\"><tr><th>Test</th><th>27-Jan-2022</th><th>Reference&#xA0;Range</th><th>Unit</th></tr><tr><td>Urea nitrogen [Mass/volume] in Serum or Plasma</td><td>15.6</td><td>7 - 50</td><td></td><td>mg/dL</td></tr></table></div>"
        },
        "status": "final",
        "subject": {
          "reference": "urn:uuid:979fe1b6-a5d2-452f-9fbf-5050129508bb",
          "display": "Marthe Gallet"
        },
        "effectiveDateTime": "2022-01-27T19:05:43Z",
        "specimen": {
          "reference": "urn:uuid:a6e8fb0f-ddac-4b1c-85ff-240ed1210d1d"
        }
      }
    },
    {
      "fullUrl": "urn:uuid:70f12380-3f87-4984-8be8-468dda09abf5",
      "resource": {
        "resourceType": "Observation",
        "id": "70f12380-3f87-4984-8be8-468dda09abf5",
        "meta": {
          "profile": [
            "http://hl7.eu/fhir/laboratory/StructureDefinition/Observation-resultslab-eu-lab"
          ]
        },
        "performer": [
          {
            "display": "The Central European Lab"
          }
        ],
        "category": [
          {
            "coding": [
              {
                "system": "http://terminology.hl7.org/CodeSystem/observation-category",
                "code": "laboratory"
              }
            ]
          }
        ],
        "code": {
          "coding": [
            {
              "code": "2160-0",
              "system": "http://loinc.org",
              "display": "Creatinine [Mass/volume] in Serum or Plasma"
            }
          ],
          "text": "Creatinine [Mass/volume] in Serum or Plasma"
        },
        "valueQuantity": {
          "system": "http://unitsofmeasure.org",
          "value": 1.9,
          "unit": "mg/dL",
          "code": "mg/dL"
        },
        "referenceRange": [
          {
            "low": {
              "value": 0.6,
              "code": "mg/dL",
              "system": "http://unitsofmeasure.org"
            }
          },
          {
            "high": {
              "value": 1.1,
              "code": "mg/dL",
              "system": "http://unitsofmeasure.org"
            }
          }
        ],
        "interpretation": [
          {
            "coding": [
              {
                "code": "H",
                "system": "http://terminology.hl7.org/CodeSystem/v3-ObservationInterpretation",
                "display": "High"
              }
            ]
          }
        ],
        "text": {
          "status": "generated",
          "div": "<div xmlns=\"http://www.w3.org/1999/xhtml\"><table class=\"hl7__eu__lab__report\"><tr><th>Test</th><th>27-Jan-2022</th><th>Reference&#xA0;Range</th><th>Unit</th></tr><tr><td>Creatinine [Mass/volume] in Serum or Plasma</td><td>1.9</td><td>0.6 - 1.1</td><td>H</td><td>mg/dL</td></tr></table></div>"
        },
        "status": "final",
        "subject": {
          "reference": "urn:uuid:979fe1b6-a5d2-452f-9fbf-5050129508bb",
          "display": "Marthe Gallet"
        },
        "effectiveDateTime": "2022-01-27T19:05:43Z",
        "specimen": {
          "reference": "urn:uuid:a6e8fb0f-ddac-4b1c-85ff-240ed1210d1d"
        }
      }
    },
    {
      "fullUrl": "urn:uuid:9bdf0036-31ae-4d32-8e7e-239a9215fa7f",
      "resource": {
        "resourceType": "Observation",
        "id": "9bdf0036-31ae-4d32-8e7e-239a9215fa7f",
        "meta": {
          "profile": [
            "http://hl7.eu/fhir/laboratory/StructureDefinition/Observation-resultslab-eu-lab"
          ]
        },
        "performer": [
          {
            "display": "The Central European Lab"
          }
        ],
        "category": [
          {
            "coding": [
              {
                "system": "http://terminology.hl7.org/CodeSystem/observation-category",
                "code": "laboratory"
              }
            ]
          }
        ],
        "code": {
          "coding": [
            {
              "code": "17861-6",
              "system": "http://loinc.org",
              "display": "Calcium [Mass/volume] in Serum or Plasma"
            }
          ],
          "text": "Calcium [Mass/volume] in Serum or Plasma"
        },
        "valueQuantity": {
          "system": "http://unitsofmeasure.org",
          "value": 9.5,
          "unit": "mg/dL",
          "code": "mg/dL"
        },
        "referenceRange": [
          {
            "low": {
              "value": 8.5,
              "code": "mg/dL",
              "system": "http://unitsofmeasure.org"
            }
          },
          {
            "high": {
              "value": 10.5,
              "code": "mg/dL",
              "system": "http://unitsofmeasure.org"
            }
          }
        ],
        "text": {
          "status": "generated",
          "div": "<div xmlns=\"http://www.w3.org/1999/xhtml\"><table class=\"hl7__eu__lab__report\"><tr><th>Test</th><th>27-Jan-2022</th><th>Reference&#xA0;Range</th><th>Unit</th></tr><tr><td>Calcium [Mass/volume] in Serum or Plasma</td><td>9.5</td><td>8.5 - 10.5</td><td></td><td>mg/dL</td></tr></table></div>"
        },
        "status": "final",
        "subject": {
          "reference": "urn:uuid:979fe1b6-a5d2-452f-9fbf-5050129508bb",
          "display": "Marthe Gallet"
        },
        "effectiveDateTime": "2022-01-27T19:05:43Z",
        "specimen": {
          "reference": "urn:uuid:a6e8fb0f-ddac-4b1c-85ff-240ed1210d1d"
        }
      }
    },
    {
      "fullUrl": "urn:uuid:180ab1b6-3a3c-4546-98a2-e964ff09c088",
      "resource": {
        "resourceType": "Observation",
        "id": "180ab1b6-3a3c-4546-98a2-e964ff09c088",
        "meta": {
          "profile": [
            "http://hl7.eu/fhir/laboratory/StructureDefinition/Observation-resultslab-eu-lab"
          ]
        },
        "performer": [
          {
            "display": "The Central European Lab"
          }
        ],
        "category": [
          {
            "coding": [
              {
                "system": "http://terminology.hl7.org/CodeSystem/observation-category",
                "code": "laboratory"
              }
            ]
          }
        ],
        "code": {
          "coding": [
            {
              "code": "2951-2",
              "system": "http://loinc.org",
              "display": "Sodium [Moles/volume] in Serum or Plasma"
            }
          ],
          "text": "Sodium [Moles/volume] in Serum or Plasma"
        },
        "valueQuantity": {
          "system": "http://unitsofmeasure.org",
          "value": 136.4,
          "unit": "mmol/L",
          "code": "mmol/L"
        },
        "referenceRange": [
          {
            "low": {
              "value": 135,
              "code": "mmol/L",
              "system": "http://unitsofmeasure.org"
            }
          },
          {
            "high": {
              "value": 145,
              "code": "mmol/L",
              "system": "http://unitsofmeasure.org"
            }
          }
        ],
        "text": {
          "status": "generated",
          "div": "<div xmlns=\"http://www.w3.org/1999/xhtml\"><table class=\"hl7__eu__lab__report\"><tr><th>Test</th><th>27-Jan-2022</th><th>Reference&#xA0;Range</th><th>Unit</th></tr><tr><td>Sodium [Moles/volume] in Serum or Plasma</td><td>136.4</td><td>135 - 145</td><td></td><td>mmol/L</td></tr></table></div>"
        },
        "status": "final",
        "subject": {
          "reference": "urn:uuid:979fe1b6-a5d2-452f-9fbf-5050129508bb",
          "display": "Marthe Gallet"
        },
        "effectiveDateTime": "2022-01-27T19:05:43Z",
        "specimen": {
          "reference": "urn:uuid:a6e8fb0f-ddac-4b1c-85ff-240ed1210d1d"
        }
      }
    },
    {
      "fullUrl": "urn:uuid:cf04eb84-be56-42ca-a906-1e485ab21233",
      "resource": {
        "resourceType": "Observation",
        "id": "cf04eb84-be56-42ca-a906-1e485ab21233",
        "meta": {
          "profile": [
            "http://hl7.eu/fhir/laboratory/StructureDefinition/Observation-resultslab-eu-lab"
          ]
        },
        "performer": [
          {
            "display": "The Central European Lab"
          }
        ],
        "category": [
          {
            "coding": [
              {
                "system": "http://terminology.hl7.org/CodeSystem/observation-category",
                "code": "laboratory"
              }
            ]
          }
        ],
        "code": {
          "coding": [
            {
              "code": "2823-3",
              "system": "http://loinc.org",
              "display": "Potassium [Moles/volume] in Serum or Plasma"
            }
          ],
          "text": "Potassium [Moles/volume] in Serum or Plasma"
        },
        "valueQuantity": {
          "system": "http://unitsofmeasure.org",
          "value": 4.5,
          "unit": "mmol/L",
          "code": "mmol/L"
        },
        "referenceRange": [
          {
            "low": {
              "value": 3.5,
              "code": "mmol/L",
              "system": "http://unitsofmeasure.org"
            }
          },
          {
            "high": {
              "value": 5.1,
              "code": "mmol/L",
              "system": "http://unitsofmeasure.org"
            }
          }
        ],
        "text": {
          "status": "generated",
          "div": "<div xmlns=\"http://www.w3.org/1999/xhtml\"><table class=\"hl7__eu__lab__report\"><tr><th>Test</th><th>27-Jan-2022</th><th>Reference&#xA0;Range</th><th>Unit</th></tr><tr><td>Potassium [Moles/volume] in Serum or Plasma</td><td>4.5</td><td>3.5 - 5.1</td><td></td><td>mmol/L</td></tr></table></div>"
        },
        "status": "final",
        "subject": {
          "reference": "urn:uuid:979fe1b6-a5d2-452f-9fbf-5050129508bb",
          "display": "Marthe Gallet"
        },
        "effectiveDateTime": "2022-01-27T19:05:43Z",
        "specimen": {
          "reference": "urn:uuid:a6e8fb0f-ddac-4b1c-85ff-240ed1210d1d"
        }
      }
    },
    {
      "fullUrl": "urn:uuid:8f345bb9-506e-4e21-ad63-903b36b34388",
      "resource": {
        "resourceType": "Observation",
        "id": "8f345bb9-506e-4e21-ad63-903b36b34388",
        "meta": {
          "profile": [
            "http://hl7.eu/fhir/laboratory/StructureDefinition/Observation-resultslab-eu-lab"
          ]
        },
        "performer": [
          {
            "display": "The Central European Lab"
          }
        ],
        "category": [
          {
            "coding": [
              {
                "system": "http://terminology.hl7.org/CodeSystem/observation-category",
                "code": "laboratory"
              }
            ]
          }
        ],
        "code": {
          "coding": [
            {
              "code": "2075-0",
              "system": "http://loinc.org",
              "display": "Chloride [Moles/volume] in Serum or Plasma"
            }
          ],
          "text": "Chloride [Moles/volume] in Serum or Plasma"
        },
        "valueQuantity": {
          "system": "http://unitsofmeasure.org",
          "value": 106.5,
          "unit": "mmol/L",
          "code": "mmol/L"
        },
        "referenceRange": [
          {
            "low": {
              "value": 98,
              "code": "mmol/L",
              "system": "http://unitsofmeasure.org"
            }
          },
          {
            "high": {
              "value": 108,
              "code": "mmol/L",
              "system": "http://unitsofmeasure.org"
            }
          }
        ],
        "text": {
          "status": "generated",
          "div": "<div xmlns=\"http://www.w3.org/1999/xhtml\"><table class=\"hl7__eu__lab__report\"><tr><th>Test</th><th>27-Jan-2022</th><th>Reference&#xA0;Range</th><th>Unit</th></tr><tr><td>Chloride [Moles/volume] in Serum or Plasma</td><td>106.5</td><td>98 - 108</td><td></td><td>mmol/L</td></tr></table></div>"
        },
        "status": "final",
        "subject": {
          "reference": "urn:uuid:979fe1b6-a5d2-452f-9fbf-5050129508bb",
          "display": "Marthe Gallet"
        },
        "effectiveDateTime": "2022-01-27T19:05:43Z",
        "specimen": {
          "reference": "urn:uuid:a6e8fb0f-ddac-4b1c-85ff-240ed1210d1d"
        }
      }
    },
    {
      "fullUrl": "urn:uuid:b3254b3d-f8c0-43a3-8a84-72992d77055b",
      "resource": {
        "resourceType": "Observation",
        "id": "b3254b3d-f8c0-43a3-8a84-72992d77055b",
        "meta": {
          "profile": [
            "http://hl7.eu/fhir/laboratory/StructureDefinition/Observation-resultslab-eu-lab"
          ]
        },
        "performer": [
          {
            "display": "The Central European Lab"
          }
        ],
        "category": [
          {
            "coding": [
              {
                "system": "http://terminology.hl7.org/CodeSystem/observation-category",
                "code": "laboratory"
              }
            ]
          }
        ],
        "code": {
          "coding": [
            {
              "code": "2028-9",
              "system": "http://loinc.org",
              "display": "Carbon dioxide, total [Moles/volume] in Serum or Plasma"
            }
          ],
          "text": "Carbon dioxide, total [Moles/volume] in Serum or Plasma"
        },
        "valueQuantity": {
          "system": "http://unitsofmeasure.org",
          "value": 27.8,
          "unit": "mmol/L",
          "code": "mmol/L"
        },
        "referenceRange": [
          {
            "low": {
              "value": 22,
              "code": "mmol/L",
              "system": "http://unitsofmeasure.org"
            }
          },
          {
            "high": {
              "value": 32,
              "code": "mmol/L",
              "system": "http://unitsofmeasure.org"
            }
          }
        ],
        "text": {
          "status": "generated",
          "div": "<div xmlns=\"http://www.w3.org/1999/xhtml\"><table class=\"hl7__eu__lab__report\"><tr><th>Test</th><th>27-Jan-2022</th><th>Reference&#xA0;Range</th><th>Unit</th></tr><tr><td>Carbon dioxide, total [Moles/volume] in Serum or Plasma</td><td>27.8</td><td>22 - 32</td><td></td><td>mmol/L</td></tr></table></div>"
        },
        "status": "final",
        "subject": {
          "reference": "urn:uuid:979fe1b6-a5d2-452f-9fbf-5050129508bb",
          "display": "Marthe Gallet"
        },
        "effectiveDateTime": "2022-01-27T19:05:43Z",
        "specimen": {
          "reference": "urn:uuid:a6e8fb0f-ddac-4b1c-85ff-240ed1210d1d"
        }
      }
    },
    {
      "fullUrl": "urn:uuid:2f4d7faa-85f7-4681-bd2d-7df73a097862",
      "resource": {
        "resourceType": "Observation",
        "id": "2f4d7faa-85f7-4681-bd2d-7df73a097862",
        "meta": {
          "profile": [
            "http://hl7.eu/fhir/laboratory/StructureDefinition/Observation-resultslab-eu-lab"
          ]
        },
        "performer": [
          {
            "display": "The Central European Lab"
          }
        ],
        "category": [
          {
            "coding": [
              {
                "system": "http://terminology.hl7.org/CodeSystem/observation-category",
                "code": "laboratory"
              }
            ]
          }
        ],
        "code": {
          "coding": [
            {
              "code": "5767-9",
              "system": "http://loinc.org",
              "display": "Appearance of Urine"
            }
          ],
          "text": "Appearance of Urine"
        },
        "text": {
          "status": "generated",
          "div": "<div xmlns=\"http://www.w3.org/1999/xhtml\"><table class=\"hl7__eu__lab__report\"><tr><th>Test</th><th>27-Jan-2022</th><th>Reference&#xA0;Range</th><th>Unit</th></tr><tr><td>Appearance of Urine</td></tr></table></div>"
        },
        "status": "final",
        "subject": {
          "reference": "urn:uuid:979fe1b6-a5d2-452f-9fbf-5050129508bb",
          "display": "Marthe Gallet"
        },
        "effectiveDateTime": "2022-01-27T19:05:43Z",
        "specimen": {
          "reference": "urn:uuid:3a4040a4-1ea6-4568-a448-b9ebf01e8f18"
        }
      }
    },
    {
      "fullUrl": "urn:uuid:3fcfb173-330e-4356-bf60-a7bfd0474ac0",
      "resource": {
        "resourceType": "Observation",
        "id": "3fcfb173-330e-4356-bf60-a7bfd0474ac0",
        "meta": {
          "profile": [
            "http://hl7.eu/fhir/laboratory/StructureDefinition/Observation-resultslab-eu-lab"
          ]
        },
        "performer": [
          {
            "display": "The Central European Lab"
          }
        ],
        "category": [
          {
            "coding": [
              {
                "system": "http://terminology.hl7.org/CodeSystem/observation-category",
                "code": "laboratory"
              }
            ]
          }
        ],
        "code": {
          "coding": [
            {
              "code": "34533-0",
              "system": "http://loinc.org",
              "display": "Odor of Urine"
            }
          ],
          "text": "Odor of Urine"
        },
        "text": {
          "status": "generated",
          "div": "<div xmlns=\"http://www.w3.org/1999/xhtml\"><table class=\"hl7__eu__lab__report\"><tr><th>Test</th><th>27-Jan-2022</th><th>Reference&#xA0;Range</th><th>Unit</th></tr><tr><td>Odor of Urine</td></tr></table></div>"
        },
        "status": "final",
        "subject": {
          "reference": "urn:uuid:979fe1b6-a5d2-452f-9fbf-5050129508bb",
          "display": "Marthe Gallet"
        },
        "effectiveDateTime": "2022-01-27T19:05:43Z",
        "specimen": {
          "reference": "urn:uuid:3a4040a4-1ea6-4568-a448-b9ebf01e8f18"
        }
      }
    },
    {
      "fullUrl": "urn:uuid:59409844-1191-4ae8-b1d9-f5d73b75e646",
      "resource": {
        "resourceType": "Observation",
        "id": "59409844-1191-4ae8-b1d9-f5d73b75e646",
        "meta": {
          "profile": [
            "http://hl7.eu/fhir/laboratory/StructureDefinition/Observation-resultslab-eu-lab"
          ]
        },
        "performer": [
          {
            "display": "The Central European Lab"
          }
        ],
        "category": [
          {
            "coding": [
              {
                "system": "http://terminology.hl7.org/CodeSystem/observation-category",
                "code": "laboratory"
              }
            ]
          }
        ],
        "code": {
          "coding": [
            {
              "code": "32167-9",
              "system": "http://loinc.org",
              "display": "Clarity of Urine"
            }
          ],
          "text": "Clarity of Urine"
        },
        "text": {
          "status": "generated",
          "div": "<div xmlns=\"http://www.w3.org/1999/xhtml\"><table class=\"hl7__eu__lab__report\"><tr><th>Test</th><th>27-Jan-2022</th><th>Reference&#xA0;Range</th><th>Unit</th></tr><tr><td>Clarity of Urine</td></tr></table></div>"
        },
        "status": "final",
        "subject": {
          "reference": "urn:uuid:979fe1b6-a5d2-452f-9fbf-5050129508bb",
          "display": "Marthe Gallet"
        },
        "effectiveDateTime": "2022-01-27T19:05:43Z",
        "specimen": {
          "reference": "urn:uuid:3a4040a4-1ea6-4568-a448-b9ebf01e8f18"
        }
      }
    },
    {
      "fullUrl": "urn:uuid:95ca00ba-f18a-402a-8a41-be7988da3e02",
      "resource": {
        "resourceType": "Observation",
        "id": "95ca00ba-f18a-402a-8a41-be7988da3e02",
        "meta": {
          "profile": [
            "http://hl7.eu/fhir/laboratory/StructureDefinition/Observation-resultslab-eu-lab"
          ]
        },
        "performer": [
          {
            "display": "The Central European Lab"
          }
        ],
        "category": [
          {
            "coding": [
              {
                "system": "http://terminology.hl7.org/CodeSystem/observation-category",
                "code": "laboratory"
              }
            ]
          }
        ],
        "code": {
          "coding": [
            {
              "code": "5778-6",
              "system": "http://loinc.org",
              "display": "Color of Urine"
            }
          ],
          "text": "Color of Urine"
        },
        "text": {
          "status": "generated",
          "div": "<div xmlns=\"http://www.w3.org/1999/xhtml\"><table class=\"hl7__eu__lab__report\"><tr><th>Test</th><th>27-Jan-2022</th><th>Reference&#xA0;Range</th><th>Unit</th></tr><tr><td>Color of Urine</td></tr></table></div>"
        },
        "status": "final",
        "subject": {
          "reference": "urn:uuid:979fe1b6-a5d2-452f-9fbf-5050129508bb",
          "display": "Marthe Gallet"
        },
        "effectiveDateTime": "2022-01-27T19:05:43Z",
        "specimen": {
          "reference": "urn:uuid:3a4040a4-1ea6-4568-a448-b9ebf01e8f18"
        }
      }
    },
    {
      "fullUrl": "urn:uuid:20054789-76af-4921-8411-27b4e6107496",
      "resource": {
        "resourceType": "Observation",
        "id": "20054789-76af-4921-8411-27b4e6107496",
        "meta": {
          "profile": [
            "http://hl7.eu/fhir/laboratory/StructureDefinition/Observation-resultslab-eu-lab"
          ]
        },
        "performer": [
          {
            "display": "The Central European Lab"
          }
        ],
        "category": [
          {
            "coding": [
              {
                "system": "http://terminology.hl7.org/CodeSystem/observation-category",
                "code": "laboratory"
              }
            ]
          }
        ],
        "code": {
          "coding": [
            {
              "code": "5792-7",
              "system": "http://loinc.org",
              "display": "Glucose [Mass/volume] in Urine by Test strip"
            }
          ],
          "text": "Glucose [Mass/volume] in Urine by Test strip"
        },
        "valueQuantity": {
          "system": "http://unitsofmeasure.org",
          "value": 2.5,
          "unit": "mg/dL",
          "code": "mg/dL"
        },
        "referenceRange": [
          {
            "low": {
              "value": 0.8,
              "code": "mg/dL",
              "system": "http://unitsofmeasure.org"
            }
          },
          {
            "high": {
              "value": 0,
              "code": "mg/dL",
              "system": "http://unitsofmeasure.org"
            }
          }
        ],
        "interpretation": [
          {
            "coding": [
              {
                "code": "H",
                "system": "http://terminology.hl7.org/CodeSystem/v3-ObservationInterpretation",
                "display": "High"
              }
            ]
          }
        ],
        "text": {
          "status": "generated",
          "div": "<div xmlns=\"http://www.w3.org/1999/xhtml\"><table class=\"hl7__eu__lab__report\"><tr><th>Test</th><th>27-Jan-2022</th><th>Reference&#xA0;Range</th><th>Unit</th></tr><tr><td>Glucose [Mass/volume] in Urine by Test strip</td><td>2.5</td><td>0.8 - 0</td><td>H</td><td>mg/dL</td></tr></table></div>"
        },
        "status": "final",
        "subject": {
          "reference": "urn:uuid:979fe1b6-a5d2-452f-9fbf-5050129508bb",
          "display": "Marthe Gallet"
        },
        "effectiveDateTime": "2022-01-27T19:05:43Z",
        "specimen": {
          "reference": "urn:uuid:3a4040a4-1ea6-4568-a448-b9ebf01e8f18"
        }
      }
    },
    {
      "fullUrl": "urn:uuid:f420c33e-73c0-4553-894f-014672e54af8",
      "resource": {
        "resourceType": "Observation",
        "id": "f420c33e-73c0-4553-894f-014672e54af8",
        "meta": {
          "profile": [
            "http://hl7.eu/fhir/laboratory/StructureDefinition/Observation-resultslab-eu-lab"
          ]
        },
        "performer": [
          {
            "display": "The Central European Lab"
          }
        ],
        "category": [
          {
            "coding": [
              {
                "system": "http://terminology.hl7.org/CodeSystem/observation-category",
                "code": "laboratory"
              }
            ]
          }
        ],
        "code": {
          "coding": [
            {
              "code": "25428-4",
              "system": "http://loinc.org",
              "display": "Glucose [Presence] in Urine by Test strip"
            }
          ],
          "text": "Glucose [Presence] in Urine by Test strip"
        },
        "text": {
          "status": "generated",
          "div": "<div xmlns=\"http://www.w3.org/1999/xhtml\"><table class=\"hl7__eu__lab__report\"><tr><th>Test</th><th>27-Jan-2022</th><th>Reference&#xA0;Range</th><th>Unit</th></tr><tr><td>Glucose [Presence] in Urine by Test strip</td></tr></table></div>"
        },
        "status": "final",
        "subject": {
          "reference": "urn:uuid:979fe1b6-a5d2-452f-9fbf-5050129508bb",
          "display": "Marthe Gallet"
        },
        "effectiveDateTime": "2022-01-27T19:05:43Z",
        "specimen": {
          "reference": "urn:uuid:3a4040a4-1ea6-4568-a448-b9ebf01e8f18"
        }
      }
    },
    {
      "fullUrl": "urn:uuid:89197bc5-ae0b-48b1-b80b-ed2ad7c73a16",
      "resource": {
        "resourceType": "Observation",
        "id": "89197bc5-ae0b-48b1-b80b-ed2ad7c73a16",
        "meta": {
          "profile": [
            "http://hl7.eu/fhir/laboratory/StructureDefinition/Observation-resultslab-eu-lab"
          ]
        },
        "performer": [
          {
            "display": "The Central European Lab"
          }
        ],
        "category": [
          {
            "coding": [
              {
                "system": "http://terminology.hl7.org/CodeSystem/observation-category",
                "code": "laboratory"
              }
            ]
          }
        ],
        "code": {
          "coding": [
            {
              "code": "20505-4",
              "system": "http://loinc.org",
              "display": "Bilirubin.total [Mass/volume] in Urine by Test strip"
            }
          ],
          "text": "Bilirubin.total [Mass/volume] in Urine by Test strip"
        },
        "valueQuantity": {
          "system": "http://unitsofmeasure.org",
          "value": 1.1,
          "unit": "mg/dL",
          "code": "mg/dL"
        },
        "referenceRange": [
          {
            "low": {
              "value": 0,
              "code": "mg/dL",
              "system": "http://unitsofmeasure.org"
            }
          },
          {
            "high": {
              "value": 1,
              "code": "mg/dL",
              "system": "http://unitsofmeasure.org"
            }
          }
        ],
        "interpretation": [
          {
            "coding": [
              {
                "code": "H",
                "system": "http://terminology.hl7.org/CodeSystem/v3-ObservationInterpretation",
                "display": "High"
              }
            ]
          }
        ],
        "text": {
          "status": "generated",
          "div": "<div xmlns=\"http://www.w3.org/1999/xhtml\"><table class=\"hl7__eu__lab__report\"><tr><th>Test</th><th>27-Jan-2022</th><th>Reference&#xA0;Range</th><th>Unit</th></tr><tr><td>Bilirubin.total [Mass/volume] in Urine by Test strip</td><td>1.1</td><td>0 - 1</td><td>H</td><td>mg/dL</td></tr></table></div>"
        },
        "status": "final",
        "subject": {
          "reference": "urn:uuid:979fe1b6-a5d2-452f-9fbf-5050129508bb",
          "display": "Marthe Gallet"
        },
        "effectiveDateTime": "2022-01-27T19:05:43Z",
        "specimen": {
          "reference": "urn:uuid:3a4040a4-1ea6-4568-a448-b9ebf01e8f18"
        }
      }
    },
    {
      "fullUrl": "urn:uuid:efb24bc7-684c-48de-a037-927743eea56c",
      "resource": {
        "resourceType": "Observation",
        "id": "efb24bc7-684c-48de-a037-927743eea56c",
        "meta": {
          "profile": [
            "http://hl7.eu/fhir/laboratory/StructureDefinition/Observation-resultslab-eu-lab"
          ]
        },
        "performer": [
          {
            "display": "The Central European Lab"
          }
        ],
        "category": [
          {
            "coding": [
              {
                "system": "http://terminology.hl7.org/CodeSystem/observation-category",
                "code": "laboratory"
              }
            ]
          }
        ],
        "code": {
          "coding": [
            {
              "code": "5770-3",
              "system": "http://loinc.org",
              "display": "Bilirubin.total [Presence] in Urine by Test strip"
            }
          ],
          "text": "Bilirubin.total [Presence] in Urine by Test strip"
        },
        "text": {
          "status": "generated",
          "div": "<div xmlns=\"http://www.w3.org/1999/xhtml\"><table class=\"hl7__eu__lab__report\"><tr><th>Test</th><th>27-Jan-2022</th><th>Reference&#xA0;Range</th><th>Unit</th></tr><tr><td>Bilirubin.total [Presence] in Urine by Test strip</td></tr></table></div>"
        },
        "status": "final",
        "subject": {
          "reference": "urn:uuid:979fe1b6-a5d2-452f-9fbf-5050129508bb",
          "display": "Marthe Gallet"
        },
        "effectiveDateTime": "2022-01-27T19:05:43Z",
        "specimen": {
          "reference": "urn:uuid:3a4040a4-1ea6-4568-a448-b9ebf01e8f18"
        }
      }
    },
    {
      "fullUrl": "urn:uuid:4bc2204e-217a-4945-bfd3-b05d18b03dcf",
      "resource": {
        "resourceType": "Observation",
        "id": "4bc2204e-217a-4945-bfd3-b05d18b03dcf",
        "meta": {
          "profile": [
            "http://hl7.eu/fhir/laboratory/StructureDefinition/Observation-resultslab-eu-lab"
          ]
        },
        "performer": [
          {
            "display": "The Central European Lab"
          }
        ],
        "category": [
          {
            "coding": [
              {
                "system": "http://terminology.hl7.org/CodeSystem/observation-category",
                "code": "laboratory"
              }
            ]
          }
        ],
        "code": {
          "coding": [
            {
              "code": "5797-6",
              "system": "http://loinc.org",
              "display": "Ketones [Mass/volume] in Urine by Test strip"
            }
          ],
          "text": "Ketones [Mass/volume] in Urine by Test strip"
        },
        "valueQuantity": {
          "system": "http://unitsofmeasure.org",
          "value": 13.9,
          "unit": "mg/dL",
          "code": "mg/dL"
        },
        "referenceRange": [
          {
            "low": {
              "value": 0,
              "code": "mg/dL",
              "system": "http://unitsofmeasure.org"
            }
          },
          {
            "high": {
              "value": 20,
              "code": "mg/dL",
              "system": "http://unitsofmeasure.org"
            }
          }
        ],
        "text": {
          "status": "generated",
          "div": "<div xmlns=\"http://www.w3.org/1999/xhtml\"><table class=\"hl7__eu__lab__report\"><tr><th>Test</th><th>27-Jan-2022</th><th>Reference&#xA0;Range</th><th>Unit</th></tr><tr><td>Ketones [Mass/volume] in Urine by Test strip</td><td>13.9</td><td>0 - 20</td><td></td><td>mg/dL</td></tr></table></div>"
        },
        "status": "final",
        "subject": {
          "reference": "urn:uuid:979fe1b6-a5d2-452f-9fbf-5050129508bb",
          "display": "Marthe Gallet"
        },
        "effectiveDateTime": "2022-01-27T19:05:43Z",
        "specimen": {
          "reference": "urn:uuid:3a4040a4-1ea6-4568-a448-b9ebf01e8f18"
        }
      }
    },
    {
      "fullUrl": "urn:uuid:281d4ff0-96ef-482c-845d-b64ad150606f",
      "resource": {
        "resourceType": "Observation",
        "id": "281d4ff0-96ef-482c-845d-b64ad150606f",
        "meta": {
          "profile": [
            "http://hl7.eu/fhir/laboratory/StructureDefinition/Observation-resultslab-eu-lab"
          ]
        },
        "performer": [
          {
            "display": "The Central European Lab"
          }
        ],
        "category": [
          {
            "coding": [
              {
                "system": "http://terminology.hl7.org/CodeSystem/observation-category",
                "code": "laboratory"
              }
            ]
          }
        ],
        "code": {
          "coding": [
            {
              "code": "2514-8",
              "system": "http://loinc.org",
              "display": "Ketones [Presence] in Urine by Test strip"
            }
          ],
          "text": "Ketones [Presence] in Urine by Test strip"
        },
        "text": {
          "status": "generated",
          "div": "<div xmlns=\"http://www.w3.org/1999/xhtml\"><table class=\"hl7__eu__lab__report\"><tr><th>Test</th><th>27-Jan-2022</th><th>Reference&#xA0;Range</th><th>Unit</th></tr><tr><td>Ketones [Presence] in Urine by Test strip</td></tr></table></div>"
        },
        "status": "final",
        "subject": {
          "reference": "urn:uuid:979fe1b6-a5d2-452f-9fbf-5050129508bb",
          "display": "Marthe Gallet"
        },
        "effectiveDateTime": "2022-01-27T19:05:43Z",
        "specimen": {
          "reference": "urn:uuid:3a4040a4-1ea6-4568-a448-b9ebf01e8f18"
        }
      }
    },
    {
      "fullUrl": "urn:uuid:35a9a68d-384a-405a-8d37-fe2b5cf7dc85",
      "resource": {
        "resourceType": "Observation",
        "id": "35a9a68d-384a-405a-8d37-fe2b5cf7dc85",
        "meta": {
          "profile": [
            "http://hl7.eu/fhir/laboratory/StructureDefinition/Observation-resultslab-eu-lab"
          ]
        },
        "performer": [
          {
            "display": "The Central European Lab"
          }
        ],
        "category": [
          {
            "coding": [
              {
                "system": "http://terminology.hl7.org/CodeSystem/observation-category",
                "code": "laboratory"
              }
            ]
          }
        ],
        "code": {
          "coding": [
            {
              "code": "5811-5",
              "system": "http://loinc.org",
              "display": "Specific gravity of Urine by Test strip"
            }
          ],
          "text": "Specific gravity of Urine by Test strip"
        },
        "valueQuantity": {
          "system": "http://unitsofmeasure.org",
          "value": 1,
          "unit": "{nominal}",
          "code": "{nominal}"
        },
        "referenceRange": [
          {
            "low": {
              "value": 1.01,
              "code": "g/mL",
              "system": "http://unitsofmeasure.org"
            }
          },
          {
            "high": {
              "value": 1.03,
              "code": "g/mL",
              "system": "http://unitsofmeasure.org"
            }
          }
        ],
        "interpretation": [
          {
            "coding": [
              {
                "code": "L",
                "system": "http://terminology.hl7.org/CodeSystem/v3-ObservationInterpretation",
                "display": "Low"
              }
            ]
          }
        ],
        "text": {
          "status": "generated",
          "div": "<div xmlns=\"http://www.w3.org/1999/xhtml\"><table class=\"hl7__eu__lab__report\"><tr><th>Test</th><th>27-Jan-2022</th><th>Reference&#xA0;Range</th><th>Unit</th></tr><tr><td>Specific gravity of Urine by Test strip</td><td>1.0</td><td>1.01 - 1.03</td><td>L</td><td>{nominal}</td></tr></table></div>"
        },
        "status": "final",
        "subject": {
          "reference": "urn:uuid:979fe1b6-a5d2-452f-9fbf-5050129508bb",
          "display": "Marthe Gallet"
        },
        "effectiveDateTime": "2022-01-27T19:05:43Z",
        "specimen": {
          "reference": "urn:uuid:3a4040a4-1ea6-4568-a448-b9ebf01e8f18"
        }
      }
    },
    {
      "fullUrl": "urn:uuid:d2c53a17-99e7-4d27-9b86-11e57980345c",
      "resource": {
        "resourceType": "Observation",
        "id": "d2c53a17-99e7-4d27-9b86-11e57980345c",
        "meta": {
          "profile": [
            "http://hl7.eu/fhir/laboratory/StructureDefinition/Observation-resultslab-eu-lab"
          ]
        },
        "performer": [
          {
            "display": "The Central European Lab"
          }
        ],
        "category": [
          {
            "coding": [
              {
                "system": "http://terminology.hl7.org/CodeSystem/observation-category",
                "code": "laboratory"
              }
            ]
          }
        ],
        "code": {
          "coding": [
            {
              "code": "5803-2",
              "system": "http://loinc.org",
              "display": "pH of Urine by Test strip"
            }
          ],
          "text": "pH of Urine by Test strip"
        },
        "valueQuantity": {
          "system": "http://unitsofmeasure.org",
          "value": 6.8,
          "unit": "pH",
          "code": "pH"
        },
        "referenceRange": [
          {
            "low": {
              "value": 4.6,
              "code": "pH",
              "system": "http://unitsofmeasure.org"
            }
          },
          {
            "high": {
              "value": 7,
              "code": "pH",
              "system": "http://unitsofmeasure.org"
            }
          }
        ],
        "text": {
          "status": "generated",
          "div": "<div xmlns=\"http://www.w3.org/1999/xhtml\"><table class=\"hl7__eu__lab__report\"><tr><th>Test</th><th>27-Jan-2022</th><th>Reference&#xA0;Range</th><th>Unit</th></tr><tr><td>pH of Urine by Test strip</td><td>6.8</td><td>4.6 - 7</td><td></td><td>pH</td></tr></table></div>"
        },
        "status": "final",
        "subject": {
          "reference": "urn:uuid:979fe1b6-a5d2-452f-9fbf-5050129508bb",
          "display": "Marthe Gallet"
        },
        "effectiveDateTime": "2022-01-27T19:05:43Z",
        "specimen": {
          "reference": "urn:uuid:3a4040a4-1ea6-4568-a448-b9ebf01e8f18"
        }
      }
    },
    {
      "fullUrl": "urn:uuid:6dd8c27c-3bdb-4c94-a7ac-1535418755a9",
      "resource": {
        "resourceType": "Observation",
        "id": "6dd8c27c-3bdb-4c94-a7ac-1535418755a9",
        "meta": {
          "profile": [
            "http://hl7.eu/fhir/laboratory/StructureDefinition/Observation-resultslab-eu-lab"
          ]
        },
        "performer": [
          {
            "display": "The Central European Lab"
          }
        ],
        "category": [
          {
            "coding": [
              {
                "system": "http://terminology.hl7.org/CodeSystem/observation-category",
                "code": "laboratory"
              }
            ]
          }
        ],
        "code": {
          "coding": [
            {
              "code": "5804-0",
              "system": "http://loinc.org",
              "display": "Protein [Mass/volume] in Urine by Test strip"
            }
          ],
          "text": "Protein [Mass/volume] in Urine by Test strip"
        },
        "valueQuantity": {
          "system": "http://unitsofmeasure.org",
          "value": 337.8,
          "unit": "mg/dL",
          "code": "mg/dL"
        },
        "referenceRange": [
          {
            "low": {
              "value": 0,
              "code": "mg/dL",
              "system": "http://unitsofmeasure.org"
            }
          },
          {
            "high": {
              "value": 15,
              "code": "mg/dL",
              "system": "http://unitsofmeasure.org"
            }
          }
        ],
        "interpretation": [
          {
            "coding": [
              {
                "code": "H",
                "system": "http://terminology.hl7.org/CodeSystem/v3-ObservationInterpretation",
                "display": "High"
              }
            ]
          }
        ],
        "text": {
          "status": "generated",
          "div": "<div xmlns=\"http://www.w3.org/1999/xhtml\"><table class=\"hl7__eu__lab__report\"><tr><th>Test</th><th>27-Jan-2022</th><th>Reference&#xA0;Range</th><th>Unit</th></tr><tr><td>Protein [Mass/volume] in Urine by Test strip</td><td>337.8</td><td>0 - 15</td><td>H</td><td>mg/dL</td></tr></table></div>"
        },
        "status": "final",
        "subject": {
          "reference": "urn:uuid:979fe1b6-a5d2-452f-9fbf-5050129508bb",
          "display": "Marthe Gallet"
        },
        "effectiveDateTime": "2022-01-27T19:05:43Z",
        "specimen": {
          "reference": "urn:uuid:3a4040a4-1ea6-4568-a448-b9ebf01e8f18"
        }
      }
    },
    {
      "fullUrl": "urn:uuid:265cf3b6-80f7-457d-a1d5-f7149850c28b",
      "resource": {
        "resourceType": "Observation",
        "id": "265cf3b6-80f7-457d-a1d5-f7149850c28b",
        "meta": {
          "profile": [
            "http://hl7.eu/fhir/laboratory/StructureDefinition/Observation-resultslab-eu-lab"
          ]
        },
        "performer": [
          {
            "display": "The Central European Lab"
          }
        ],
        "category": [
          {
            "coding": [
              {
                "system": "http://terminology.hl7.org/CodeSystem/observation-category",
                "code": "laboratory"
              }
            ]
          }
        ],
        "code": {
          "coding": [
            {
              "code": "20454-5",
              "system": "http://loinc.org",
              "display": "Protein [Presence] in Urine by Test strip"
            }
          ],
          "text": "Protein [Presence] in Urine by Test strip"
        },
        "text": {
          "status": "generated",
          "div": "<div xmlns=\"http://www.w3.org/1999/xhtml\"><table class=\"hl7__eu__lab__report\"><tr><th>Test</th><th>27-Jan-2022</th><th>Reference&#xA0;Range</th><th>Unit</th></tr><tr><td>Protein [Presence] in Urine by Test strip</td></tr></table></div>"
        },
        "status": "final",
        "subject": {
          "reference": "urn:uuid:979fe1b6-a5d2-452f-9fbf-5050129508bb",
          "display": "Marthe Gallet"
        },
        "effectiveDateTime": "2022-01-27T19:05:43Z",
        "specimen": {
          "reference": "urn:uuid:3a4040a4-1ea6-4568-a448-b9ebf01e8f18"
        }
      }
    },
    {
      "fullUrl": "urn:uuid:877ea1f7-68d6-4a23-8d73-9675ec19fb55",
      "resource": {
        "resourceType": "Observation",
        "id": "877ea1f7-68d6-4a23-8d73-9675ec19fb55",
        "meta": {
          "profile": [
            "http://hl7.eu/fhir/laboratory/StructureDefinition/Observation-resultslab-eu-lab"
          ]
        },
        "performer": [
          {
            "display": "The Central European Lab"
          }
        ],
        "category": [
          {
            "coding": [
              {
                "system": "http://terminology.hl7.org/CodeSystem/observation-category",
                "code": "laboratory"
              }
            ]
          }
        ],
        "code": {
          "coding": [
            {
              "code": "5802-4",
              "system": "http://loinc.org",
              "display": "Nitrite [Presence] in Urine by Test strip"
            }
          ],
          "text": "Nitrite [Presence] in Urine by Test strip"
        },
        "text": {
          "status": "generated",
          "div": "<div xmlns=\"http://www.w3.org/1999/xhtml\"><table class=\"hl7__eu__lab__report\"><tr><th>Test</th><th>27-Jan-2022</th><th>Reference&#xA0;Range</th><th>Unit</th></tr><tr><td>Nitrite [Presence] in Urine by Test strip</td></tr></table></div>"
        },
        "status": "final",
        "subject": {
          "reference": "urn:uuid:979fe1b6-a5d2-452f-9fbf-5050129508bb",
          "display": "Marthe Gallet"
        },
        "effectiveDateTime": "2022-01-27T19:05:43Z",
        "specimen": {
          "reference": "urn:uuid:3a4040a4-1ea6-4568-a448-b9ebf01e8f18"
        }
      }
    },
    {
      "fullUrl": "urn:uuid:3f579349-bd06-4f29-b9dd-d5c41175e528",
      "resource": {
        "resourceType": "Observation",
        "id": "3f579349-bd06-4f29-b9dd-d5c41175e528",
        "meta": {
          "profile": [
            "http://hl7.eu/fhir/laboratory/StructureDefinition/Observation-resultslab-eu-lab"
          ]
        },
        "performer": [
          {
            "display": "The Central European Lab"
          }
        ],
        "category": [
          {
            "coding": [
              {
                "system": "http://terminology.hl7.org/CodeSystem/observation-category",
                "code": "laboratory"
              }
            ]
          }
        ],
        "code": {
          "coding": [
            {
              "code": "5794-3",
              "system": "http://loinc.org",
              "display": "Hemoglobin [Presence] in Urine by Test strip"
            }
          ],
          "text": "Hemoglobin [Presence] in Urine by Test strip"
        },
        "text": {
          "status": "generated",
          "div": "<div xmlns=\"http://www.w3.org/1999/xhtml\"><table class=\"hl7__eu__lab__report\"><tr><th>Test</th><th>27-Jan-2022</th><th>Reference&#xA0;Range</th><th>Unit</th></tr><tr><td>Hemoglobin [Presence] in Urine by Test strip</td></tr></table></div>"
        },
        "status": "final",
        "subject": {
          "reference": "urn:uuid:979fe1b6-a5d2-452f-9fbf-5050129508bb",
          "display": "Marthe Gallet"
        },
        "effectiveDateTime": "2022-01-27T19:05:43Z",
        "specimen": {
          "reference": "urn:uuid:3a4040a4-1ea6-4568-a448-b9ebf01e8f18"
        }
      }
    },
    {
      "fullUrl": "urn:uuid:1c2065d4-ef92-4643-9f54-98fa12ae490f",
      "resource": {
        "resourceType": "Observation",
        "id": "1c2065d4-ef92-4643-9f54-98fa12ae490f",
        "meta": {
          "profile": [
            "http://hl7.eu/fhir/laboratory/StructureDefinition/Observation-resultslab-eu-lab"
          ]
        },
        "performer": [
          {
            "display": "The Central European Lab"
          }
        ],
        "category": [
          {
            "coding": [
              {
                "system": "http://terminology.hl7.org/CodeSystem/observation-category",
                "code": "laboratory"
              }
            ]
          }
        ],
        "code": {
          "coding": [
            {
              "code": "5799-2",
              "system": "http://loinc.org",
              "display": "Leukocyte esterase [Presence] in Urine by Test strip"
            }
          ],
          "text": "Leukocyte esterase [Presence] in Urine by Test strip"
        },
        "text": {
          "status": "generated",
          "div": "<div xmlns=\"http://www.w3.org/1999/xhtml\"><table class=\"hl7__eu__lab__report\"><tr><th>Test</th><th>27-Jan-2022</th><th>Reference&#xA0;Range</th><th>Unit</th></tr><tr><td>Leukocyte esterase [Presence] in Urine by Test strip</td></tr></table></div>"
        },
        "status": "final",
        "subject": {
          "reference": "urn:uuid:979fe1b6-a5d2-452f-9fbf-5050129508bb",
          "display": "Marthe Gallet"
        },
        "effectiveDateTime": "2022-01-27T19:05:43Z",
        "specimen": {
          "reference": "urn:uuid:3a4040a4-1ea6-4568-a448-b9ebf01e8f18"
        }
      }
    },
    {
      "fullUrl": "urn:uuid:603ab0c6-fe41-431a-8dfa-d631ba3cbe6e",
      "resource": {
        "resourceType": "Device",
        "id": "603ab0c6-fe41-431a-8dfa-d631ba3cbe6e",
        "deviceName": [
          {
            "name": "SYNDERAI Synthetic Generator",
            "type": "manufacturer-name"
          }
        ],
        "version": [
          {
            "value": "5.0"
          }
        ],
        "text": {
          "status": "generated",
          "div": "<div xmlns=\"http://www.w3.org/1999/xhtml\">SYNDERAI Synthetic Generator v5.0</div>"
        },
        "status": "active\"",
        "distinctIdentifier": "synderai-generator-50",
        "manufacturer": "SYNDERAI Project"
      }
    },
    {
      "fullUrl": "urn:uuid:c9b50dc3-28ce-4b64-b010-0017c4411d47",
      "resource": {
        "resourceType": "Provenance",
        "id": "c9b50dc3-28ce-4b64-b010-0017c4411d47",
        "target": [
          {
            "reference": "Patient/979fe1b6-a5d2-452f-9fbf-5050129508bb"
          },
          {
            "reference": "Bundle/d75efa13-6062-4dd6-adb8-bf665413bd20"
          },
          {
            "reference": "Composition/bf72a77b-99cb-4815-8c4a-366c31666281"
          },
          {
            "reference": "PractitionerRole/42482c2c-e222-41e6-9677-cec5de1bbd26"
          },
          {
            "reference": "Practitioner/98c0e355-9652-4274-8982-c199e32d2c38"
          },
          {
            "reference": "PractitionerRole/e57dbad7-5216-4e4c-82d9-5c3cb4274eb2"
          },
          {
            "reference": "Organization/d2b38e83-5b8b-464e-b84f-a77a1ed52582"
          }
        ],
        "activity": {
          "text": "Synthetic Example Data Generation"
        },
        "policy": [
          "https://synderai.net/synderai-synthetic-data-policy"
        ],
        "agent": [
          {
            "type": {
              "text": "author"
            },
            "who": {
              "reference": "Device/603ab0c6-fe41-431a-8dfa-d631ba3cbe6e"
            }
          }
        ],
        "reason": [
          {
            "text": "Interoperability Testing and Training (non-clinical use)"
          }
        ],
        "text": {
          "status": "generated",
          "div": "<div xmlns=\"http://www.w3.org/1999/xhtml\">Provenance for SYNDERAI Synthetic Example Data Resource</div>"
        },
        "recorded": "2022-01-27T20:05:43Z"
      }
    },
    {
      "fullUrl": "urn:uuid:42482c2c-e222-41e6-9677-cec5de1bbd26",
      "resource": {
        "resourceType": "PractitionerRole",
        "id": "42482c2c-e222-41e6-9677-cec5de1bbd26",
        "meta": {
          "profile": [
            "http://hl7.eu/fhir/base/StructureDefinition/practitionerRole-eu"
          ]
        },
        "text": {
          "status": "generated",
          "div": "<div xmlns=\"http://www.w3.org/1999/xhtml\">Laboratory Role Id: 42482c2c-e222-41e6-9677-cec5de1bbd26</div>"
        },
        "practitioner": {
          "reference": "urn:uuid:98c0e355-9652-4274-8982-c199e32d2c38"
        }
      }
    },
    {
      "fullUrl": "urn:uuid:98c0e355-9652-4274-8982-c199e32d2c38",
      "resource": {
        "resourceType": "Practitioner",
        "id": "98c0e355-9652-4274-8982-c199e32d2c38",
        "meta": {
          "profile": [
            "http://hl7.eu/fhir/base/StructureDefinition/practitioner-eu"
          ]
        },
        "identifier": [
          {
            "assigner": {
              "display": "HL7 Europe"
            },
            "system": "urn:oid:2.16.840.1.113883.2.51.999",
            "value": "1514b605-8b9e-4a0d-ac6f-9f7f76ae05f3"
          }
        ],
        "name": [
          {
            "prefix": [
              "dr"
            ],
            "given": [
              "Ex"
            ],
            "family": "Ample"
          }
        ],
        "address": [
          {
            "line": [
              "Laboratoire Central Européenne",
              "Boulevard du Jardin Botanique 32"
            ],
            "postalCode": "1000",
            "city": "Brussels",
            "country": "Belgium"
          }
        ],
        "text": {
          "status": "generated",
          "div": "<div xmlns=\"http://www.w3.org/1999/xhtml\">Laboratory: Laboratoire Central Européenne, 1000 Brussels, Belgium</div>"
        }
      }
    }
  ],
  "type": "document",
  "timestamp": "2022-01-27T20:05:43Z"
}
