<Bundle xmlns="http://hl7.org/fhir">
   <id value="7fe4a81e-5362-4bb6-9a9e-156d2b8de920"/>
   <meta>
      <profile value="http://hl7.eu/fhir/laboratory/StructureDefinition/Bundle-eu-lab"/>
   </meta>
   <identifier>
      <system value="urn:oid:2.16.840.1.113883.2.51.999"/>
      <value value="ab9cc200-9e5f-4c38-b377-37efa5be9530"/>
      <assigner>
         <display value="HL7 Europe"/>
      </assigner>
   </identifier>
   <type value="document"/>
   <timestamp value="2023-01-13T13:20:31Z"/>
   <entry>
      <fullUrl value="urn:uuid:4f42d707-859d-4f85-bdf6-b8a66ecb6fa8"/>
      <resource>
         <Composition>
            <id value="4f42d707-859d-4f85-bdf6-b8a66ecb6fa8"/>
            <meta>
               <profile value="http://hl7.eu/fhir/laboratory/StructureDefinition/Composition-eu-lab"/>
            </meta>
            <identifier>
               <system value="urn:oid:2.16.840.1.113883.2.51.999"/>
               <value value="a29e79df-ffbe-444e-bd96-929c5e83fa1b"/>
               <assigner>
                  <display value="HL7 Europe"/>
               </assigner>
            </identifier>
            <status value="final"/>
            <type>
               <coding>
                  <system value="http://loinc.org"/>
                  <code value="11502-2"/>
                  <display value="Laboratory report"/>
               </coding>
               <text value="Laboratory Report"/>
            </type>
            <category>
               <coding>
                  <system value="http://loinc.org"/>
                  <code value="26436-6"/>
                  <display value="Laboratory studies (set)"/>
               </coding>
            </category>
            <subject>
               <reference value="urn:uuid:36b5d170-aa3a-40b0-a773-de6538bd2070"/>
               <display value="Bethany Begum"/>
            </subject>
            <date value="2023-01-13T13:20:31Z"/>
            <author>
               <reference value="urn:uuid:e74011a2-ca53-432b-a659-50de1f2c6cb6"/>
            </author>
            <title value="Laboratory Report"/>
            <confidentiality value="N"/>
            <section>
               <title value="Laboratory Report"/>
               <code>
                  <coding>
                     <system value="http://loinc.org"/>
                     <code value="26436-6"/>
                     <display value="Laboratory studies (set)"/>
                  </coding>
                  <text value="Laboratory studies"/>
               </code>
               <section>
                  <title value="Chemistry"/>
                  <code>
                     <coding>
                        <system value="http://loinc.org"/>
                        <code value="$18719-5"/>
                        <display value="Chemistry studies (set)"/>
                     </coding>
                     <text value="Chemistry"/>
                  </code>
                  <text>
                     <status value="generated"/>
                     <div xmlns="http://www.w3.org/1999/xhtml">
                        <h3>Chemistry</h3>
                        <table class="hl7__eu__lab__report">
                           <thead>
                              <tr>
                                 <th>Test</th>
                                 <th>13-JAN-2023</th>
                                 <th>Reference Range</th>
                                 <th>Unit</th>
                              </tr>
                           </thead>
                           <tbody>
                              <tr>
                                 <td>Hemoglobin.gastrointestinal.lower [Presence] in Stool by Immunoassay --1st specimen</td>
                                 <td>22.6</td>
                                 <td>0 - 200</td>
                                 <td>ng/mL</td>
                              </tr>
                           </tbody>
                        </table>
                     </div>
                  </text>
                  <entry>
                     <reference value="urn:uuid:c8cb8f54-828e-45be-a243-88fa98d454fb"/>
                  </entry>
               </section>
               <section>
                  <title value="Cancer pathology panel"/>
                  <code>
                     <coding>
                        <system value="http://loinc.org"/>
                        <code value="$LP207911-1"/>
                        <display value="Cancer pathology panel"/>
                     </coding>
                     <text value="Cancer pathology panel"/>
                  </code>
                  <text>
                     <status value="generated"/>
                     <div xmlns="http://www.w3.org/1999/xhtml">
                        <h3>Cancer pathology panel</h3>
                        <table class="hl7__eu__lab__report">
                           <thead>
                              <tr>
                                 <th>Test</th>
                                 <th>13-JAN-2023</th>
                                 <th>Reference Range</th>
                                 <th>Unit</th>
                              </tr>
                           </thead>
                           <tbody>
                              <tr>
                                 <td>Polyp size greatest dimension</td>
                                 <td>5.3</td>
                                 <td>0 - 10</td>
                                 <td>mm</td>
                              </tr>
                           </tbody>
                        </table>
                     </div>
                  </text>
                  <entry>
                     <reference value="urn:uuid:6984e88a-f4cc-4303-b21b-0527aa69e110"/>
                  </entry>
               </section>
            </section>
            <section>
               <title value="Annotation comment"/>
               <code>
                  <coding>
                     <system value="http://loinc.org"/>
                     <code value="48767-8"/>
                     <display value="Annotation comment"/>
                  </coding>
               </code>
               <text>
                  <status value="generated"/>
                  <div xmlns="http://www.w3.org/1999/xhtml">
                     <h3>Annotation</h3>
                     <table class="hl7__eu__lab__report">
                        <tr>
                           <th>Conclusion and Recommendations based on this report and previous findings known to us</th>
                        </tr>
                        <tr>
                           <td>Both the polyp size (5.3 mm) and fecal hemoglobin (22.6 ng/mL) are within normal limits. No laboratory evidence of gastrointestinal bleeding or abnormal polyp size is present at this time. Recommend routine follow-up as clinically indicated.</td>
                        </tr>
                     </table>
                  </div>
               </text>
            </section>
         </Composition>
      </resource>
   </entry>
   <entry>
      <fullUrl value="urn:uuid:3169ce16-7ff6-44fc-a05d-047a42d688b2"/>
      <resource>
         <DiagnosticReport>
            <id value="3169ce16-7ff6-44fc-a05d-047a42d688b2"/>
            <meta>
               <profile value="http://hl7.eu/fhir/laboratory/StructureDefinition/DiagnosticReport-eu-lab"/>
            </meta>
            <extension url="http://hl7.org/fhir/5.0/StructureDefinition/extension-DiagnosticReport.composition">
               <valueReference>
                  <reference value="urn:uuid:a29e79df-ffbe-444e-bd96-929c5e83fa1b"/>
               </valueReference>
            </extension>
            <identifier>
               <system value="urn:oid:2.16.840.1.113883.2.51.999"/>
               <value value="169bfe6f-647d-449a-be9b-bf37767a4d41"/>
               <assigner>
                  <display value="HL7 Europe"/>
               </assigner>
            </identifier>
            <status value="registered"/>
            <category>
               <coding>
                  <system value="http://loinc.org"/>
                  <code value="26436-6"/>
                  <display value="Laboratory studies (set)"/>
               </coding>
            </category>
            <code>
               <coding>
                  <system value="http://loinc.org"/>
                  <code value="11502-2"/>
                  <display value="Laboratory report"/>
               </coding>
            </code>
            <subject>
               <reference value="urn:uuid:36b5d170-aa3a-40b0-a773-de6538bd2070"/>
               <display value="Bethany Begum"/>
            </subject>
            <specimen>
               <reference value="urn:uuid:be252535-b3b2-432d-98c9-2895dc3fc619"/>
            </specimen>
            <specimen>
               <reference value="urn:uuid:651e519d-d764-4d22-885f-f492c7c49437"/>
            </specimen>
            <result>
               <reference value="urn:uuid:6984e88a-f4cc-4303-b21b-0527aa69e110"/>
            </result>
            <result>
               <reference value="urn:uuid:c8cb8f54-828e-45be-a243-88fa98d454fb"/>
            </result>
         </DiagnosticReport>
      </resource>
   </entry>
   <entry>
      <fullUrl value="urn:uuid:36b5d170-aa3a-40b0-a773-de6538bd2070"/>
      <resource>
         <Patient>
            <id value="36b5d170-aa3a-40b0-a773-de6538bd2070"/>
            <meta>
               <profile value="http://hl7.eu/fhir/base/StructureDefinition/patient-eu-core"/>
               <security>
                  <system value="http://terminology.hl7.org/CodeSystem/v3-ActReason"/>
                  <code value="HTEST"/>
               </security>
               <security>
                  <system value="http://terminology.hl7.org/CodeSystem/v3-ActReason"/>
                  <code value="TRAIN"/>
               </security>
               <tag>
                  <system value="https://synderai.net/fhir/CodeSystem/tags"/>
                  <code value="synthetic"/>
                  <display value="SYNDERAI Synthetic data"/>
               </tag>
            </meta>
            <text>
               <status value="generated"/>
               <div xmlns="http://www.w3.org/1999/xhtml">
                  <table class="hl7__ips">
                     <tr>
                        <td>Bethany Begum</td>
                        <td>female</td>
                        <td>19-Jan-1976</td>
                     </tr>
                  </table>
               </div>
            </text>
            <extension url="http://hl7.org/fhir/StructureDefinition/patient-nationality">
               <valueCodeableConcept>
                  <coding>
                     <system value="http://hl7.org/fhir/ValueSet/country"/>
                     <code value="GB"/>
                  </coding>
               </valueCodeableConcept>
            </extension>
            <identifier>
               <type>
                  <coding>
                     <system value="http://terminology.hl7.org/CodeSystem/v2-0203"/>
                     <code value="PT"/>
                  </coding>
               </type>
               <system value="http://ec.europa.eu/identifier/eci"/>
               <value value="2365-936148-1"/>
            </identifier>
            <identifier>
               <type>
                  <coding>
                     <system value="http://terminology.hl7.org/CodeSystem/v2-0203"/>
                     <code value="MR"/>
                  </coding>
               </type>
               <system value="http://local.setting.eu/identifier"/>
               <value value="853b213b-8bf3-d90f-2018-79d547156fd7"/>
            </identifier>
            <name>
               <family value="Begum"/>
            </name>
            <name>
               <given value="Bethany"/>
            </name>
            <name>
               <text value="Bethany Begum"/>
            </name>
            <telecom>
               <system value="phone"/>
               <value value="(029) 2018200"/>
            </telecom>
            <gender value="female"/>
            <birthDate value="1976-01-19"/>
            <address>
               <use value="home"/>
               <type value="physical"/>
               <line value="Studio 22e"/>
               <line value="Joe unions"/>
               <city value="Manchester"/>
               <postalCode value="M1"/>
               <country value="United Kingdom"/>
            </address>
         </Patient>
      </resource>
   </entry>
   <entry>
      <fullUrl value="urn:uuid:69da34bd-cb94-4f2d-abd1-387ce26192e9"/>
      <resource>
         <ServiceRequest>
            <id value="69da34bd-cb94-4f2d-abd1-387ce26192e9"/>
            <meta>
               <profile value="http://hl7.eu/fhir/laboratory/StructureDefinition/ServiceRequest-eu-lab"/>
            </meta>
            <identifier>
               <system value="http://example.org"/>
               <value value="973f27bf-8611-4986-add9-2d0e9df7b5a4"/>
            </identifier>
            <status value="active"/>
            <intent value="order"/>
            <code>
               <coding>
                  <system value="http://snomed.info/sct"/>
                  <code value="108252007"/>
                  <display value="Laboratory procedure"/>
               </coding>
            </code>
            <subject>
               <reference value="urn:uuid:36b5d170-aa3a-40b0-a773-de6538bd2070"/>
               <display value="Bethany Begum"/>
            </subject>
            <requester>
               <reference value="urn:uuid:ed83dbac-ae69-48c7-856c-feca4fe0fd6f"/>
            </requester>
            <reasonCode>
               <coding>
                  <system value="http://snomed.info/sct"/>
                  <code value="55822004"/>
                  <display value="Hyperlipidemia"/>
               </coding>
            </reasonCode>
            <reasonCode>
               <coding>
                  <system value="http://snomed.info/sct"/>
                  <code value="15777000"/>
                  <display value="Prediabetes"/>
               </coding>
            </reasonCode>
            <reasonCode>
               <coding>
                  <system value="http://snomed.info/sct"/>
                  <code value="40055000"/>
                  <display value="Chronic sinusitis"/>
               </coding>
            </reasonCode>
            <specimen>
               <reference value="urn:uuid:be252535-b3b2-432d-98c9-2895dc3fc619"/>
            </specimen>
            <specimen>
               <reference value="urn:uuid:651e519d-d764-4d22-885f-f492c7c49437"/>
            </specimen>
         </ServiceRequest>
      </resource>
   </entry>
   <entry>
      <fullUrl value="urn:uuid:ed83dbac-ae69-48c7-856c-feca4fe0fd6f"/>
      <resource>
         <PractitionerRole>
            <id value="ed83dbac-ae69-48c7-856c-feca4fe0fd6f"/>
            <meta>
               <profile value="http://hl7.eu/fhir/base/StructureDefinition/practitionerRole-eu"/>
            </meta>
            <text>
               <status value="generated"/>
               <div xmlns="http://www.w3.org/1999/xhtml">Provider Role Id: ed83dbac-ae69-48c7-856c-feca4fe0fd6f</div>
            </text>
            <organization>
               <reference value="urn:uuid:b5f8995a-e434-4351-8a8c-b60e88037e14"/>
            </organization>
         </PractitionerRole>
      </resource>
   </entry>
   <entry>
      <fullUrl value="urn:uuid:b5f8995a-e434-4351-8a8c-b60e88037e14"/>
      <resource>
         <Organization>
            <id value="b5f8995a-e434-4351-8a8c-b60e88037e14"/>
            <meta>
               <profile value="http://hl7.eu/fhir/base/StructureDefinition/organization-eu"/>
            </meta>
            <text>
               <status value="generated"/>
               <div xmlns="http://www.w3.org/1999/xhtml">Provider Organization: Cornbrook Medical Practice</div>
            </text>
            <identifier>
               <system value="urn:oid:2.16.840.1.113883.2.51.999"/>
               <value value="8f2a1cf0-0a38-4a83-8f3d-84eaa70a6e11"/>
               <assigner>
                  <display value="HL7 Europe"/>
               </assigner>
            </identifier>
            <name value="Cornbrook Medical Practice"/>
            <address>
               <line value="City Road 204"/>
               <city value="Manchester"/>
               <postalCode value="M3 3"/>
               <country value="United Kingdom"/>
            </address>
         </Organization>
      </resource>
   </entry>
   <entry>
      <fullUrl value="urn:uuid:be252535-b3b2-432d-98c9-2895dc3fc619"/>
      <resource>
         <Specimen>
            <id value="be252535-b3b2-432d-98c9-2895dc3fc619"/>
            <meta>
               <profile value="http://hl7.eu/fhir/laboratory/StructureDefinition/Specimen-eu-lab"/>
            </meta>
            <text>
               <status value="generated"/>
               <div xmlns="http://www.w3.org/1999/xhtml">
                  <table class="hl7__eu__lab__report">
                     <tr>
                        <th>Specimen</th>
                        <th>Collection Date</th>
                     </tr>
                     <tr>
                        <td>Specimen (specimen)</td>
                        <td>
                           <span class="nb">13-Jan-2023</span>
                        </td>
                     </tr>
                  </table>
               </div>
            </text>
            <type>
               <coding>
                  <system value="http://snomed.info/sct"/>
                  <code value="123038009"/>
                  <display value="Specimen (specimen)"/>
               </coding>
            </type>
            <collection>
               <collectedDateTime value="2023-01-13"/>
            </collection>
         </Specimen>
      </resource>
   </entry>
   <entry>
      <fullUrl value="urn:uuid:651e519d-d764-4d22-885f-f492c7c49437"/>
      <resource>
         <Specimen>
            <id value="651e519d-d764-4d22-885f-f492c7c49437"/>
            <meta>
               <profile value="http://hl7.eu/fhir/laboratory/StructureDefinition/Specimen-eu-lab"/>
            </meta>
            <text>
               <status value="generated"/>
               <div xmlns="http://www.w3.org/1999/xhtml">
                  <table class="hl7__eu__lab__report">
                     <tr>
                        <th>Specimen</th>
                        <th>Collection Date</th>
                     </tr>
                     <tr>
                        <td>Feces specimen</td>
                        <td>
                           <span class="nb">13-Jan-2023</span>
                        </td>
                     </tr>
                  </table>
               </div>
            </text>
            <type>
               <coding>
                  <system value="http://snomed.info/sct"/>
                  <code value="119339001"/>
                  <display value="Feces specimen"/>
               </coding>
            </type>
            <collection>
               <collectedDateTime value="2023-01-13"/>
            </collection>
         </Specimen>
      </resource>
   </entry>
   <entry>
      <fullUrl value="urn:uuid:6984e88a-f4cc-4303-b21b-0527aa69e110"/>
      <resource>
         <Observation>
            <id value="6984e88a-f4cc-4303-b21b-0527aa69e110"/>
            <meta>
               <profile value="http://hl7.eu/fhir/laboratory/StructureDefinition/Observation-resultslab-eu-lab"/>
            </meta>
            <text>
               <status value="generated"/>
               <div xmlns="http://www.w3.org/1999/xhtml">
                  <table class="hl7__eu__lab__report">
                     <tr>
                        <th>Test</th>
                        <th>13-Jan-2023</th>
                        <th>Reference Range</th>
                        <th>Unit</th>
                     </tr>
                     <tr>
                        <td>Polyp size greatest dimension</td>
                        <td>5.3</td>
                        <td>0 - 10</td>
                        <td/>
                        <td>mm</td>
                     </tr>
                  </table>
               </div>
            </text>
            <status value="final"/>
            <category>
               <coding>
                  <system value="http://terminology.hl7.org/CodeSystem/observation-category"/>
                  <code value="laboratory"/>
               </coding>
            </category>
            <code>
               <coding>
                  <system value="http://loinc.org"/>
                  <code value="33756-8"/>
                  <display value="Polyp size greatest dimension"/>
               </coding>
               <text value="Polyp size greatest dimension"/>
            </code>
            <subject>
               <reference value="urn:uuid:36b5d170-aa3a-40b0-a773-de6538bd2070"/>
               <display value="Bethany Begum"/>
            </subject>
            <effectiveDateTime value="2023-01-13T12:20:31Z"/>
            <performer>
               <display value="The Central European Lab"/>
            </performer>
            <valueQuantity>
               <value value="5.3"/>
               <unit value="mm"/>
               <system value="http://unitsofmeasure.org"/>
               <code value="mm"/>
            </valueQuantity>
            <specimen>
               <reference value="urn:uuid:be252535-b3b2-432d-98c9-2895dc3fc619"/>
            </specimen>
            <referenceRange>
               <low>
                  <value value="0"/>
                  <system value="http://unitsofmeasure.org"/>
                  <code value="mm"/>
               </low>
            </referenceRange>
            <referenceRange>
               <high>
                  <value value="10"/>
                  <system value="http://unitsofmeasure.org"/>
                  <code value="mm"/>
               </high>
            </referenceRange>
         </Observation>
      </resource>
   </entry>
   <entry>
      <fullUrl value="urn:uuid:c8cb8f54-828e-45be-a243-88fa98d454fb"/>
      <resource>
         <Observation>
            <id value="c8cb8f54-828e-45be-a243-88fa98d454fb"/>
            <meta>
               <profile value="http://hl7.eu/fhir/laboratory/StructureDefinition/Observation-resultslab-eu-lab"/>
            </meta>
            <text>
               <status value="generated"/>
               <div xmlns="http://www.w3.org/1999/xhtml">
                  <table class="hl7__eu__lab__report">
                     <tr>
                        <th>Test</th>
                        <th>13-Jan-2023</th>
                        <th>Reference Range</th>
                        <th>Unit</th>
                     </tr>
                     <tr>
                        <td>Hemoglobin.gastrointestinal.lower [Presence] in Stool by Immunoassay --1st specimen</td>
                        <td>22.6</td>
                        <td>0 - 200</td>
                        <td/>
                        <td>ng/mL</td>
                     </tr>
                  </table>
               </div>
            </text>
            <status value="final"/>
            <category>
               <coding>
                  <system value="http://terminology.hl7.org/CodeSystem/observation-category"/>
                  <code value="laboratory"/>
               </coding>
            </category>
            <code>
               <coding>
                  <system value="http://loinc.org"/>
                  <code value="57905-2"/>
                  <display value="Hemoglobin.gastrointestinal.lower [Presence] in Stool by Immunoassay --1st specimen"/>
               </coding>
               <text value="Hemoglobin.gastrointestinal.lower [Presence] in Stool by Immunoassay --1st specimen"/>
            </code>
            <subject>
               <reference value="urn:uuid:36b5d170-aa3a-40b0-a773-de6538bd2070"/>
               <display value="Bethany Begum"/>
            </subject>
            <effectiveDateTime value="2023-01-13T12:20:31Z"/>
            <performer>
               <display value="The Central European Lab"/>
            </performer>
            <valueQuantity>
               <value value="22.6"/>
               <unit value="ng/mL"/>
               <system value="http://unitsofmeasure.org"/>
               <code value="ng/mL"/>
            </valueQuantity>
            <specimen>
               <reference value="urn:uuid:651e519d-d764-4d22-885f-f492c7c49437"/>
            </specimen>
            <referenceRange>
               <low>
                  <value value="0"/>
                  <system value="http://unitsofmeasure.org"/>
                  <code value="ng/mL"/>
               </low>
            </referenceRange>
            <referenceRange>
               <high>
                  <value value="200"/>
                  <system value="http://unitsofmeasure.org"/>
                  <code value="ng/mL"/>
               </high>
            </referenceRange>
         </Observation>
      </resource>
   </entry>
   <entry>
      <fullUrl value="urn:uuid:f4069e89-c340-4d31-a7ac-f75223deb7b0"/>
      <resource>
         <Device>
            <id value="f4069e89-c340-4d31-a7ac-f75223deb7b0"/>
            <text>
               <status value="generated"/>
               <div xmlns="http://www.w3.org/1999/xhtml">SYNDERAI Synthetic Generator v5.0</div>
            </text>
            <status value="active&#34;"/>
            <distinctIdentifier value="synderai-generator-50"/>
            <manufacturer value="SYNDERAI Project"/>
            <deviceName>
               <name value="SYNDERAI Synthetic Generator"/>
               <type value="manufacturer-name"/>
            </deviceName>
            <version>
               <value value="5.0"/>
            </version>
         </Device>
      </resource>
   </entry>
   <entry>
      <fullUrl value="urn:uuid:0398ba89-d084-4ebf-9ef2-a08ebab77171"/>
      <resource>
         <Provenance>
            <id value="0398ba89-d084-4ebf-9ef2-a08ebab77171"/>
            <text>
               <status value="generated"/>
               <div xmlns="http://www.w3.org/1999/xhtml">Provenance for SYNDERAI Synthetic Example Data Resource</div>
            </text>
            <target>
               <reference value="Patient/36b5d170-aa3a-40b0-a773-de6538bd2070"/>
            </target>
            <target>
               <reference value="Bundle/7fe4a81e-5362-4bb6-9a9e-156d2b8de920"/>
            </target>
            <target>
               <reference value="Composition/4f42d707-859d-4f85-bdf6-b8a66ecb6fa8"/>
            </target>
            <target>
               <reference value="PractitionerRole/e74011a2-ca53-432b-a659-50de1f2c6cb6"/>
            </target>
            <target>
               <reference value="Practitioner/1958c63d-0a6c-486b-a603-7653d01add21"/>
            </target>
            <target>
               <reference value="PractitionerRole/ed83dbac-ae69-48c7-856c-feca4fe0fd6f"/>
            </target>
            <target>
               <reference value="Organization/b5f8995a-e434-4351-8a8c-b60e88037e14"/>
            </target>
            <recorded value="2023-01-13T13:20:31Z"/>
            <policy value="https://synderai.net/synderai-synthetic-data-policy"/>
            <reason>
               <text value="Interoperability Testing and Training (non-clinical use)"/>
            </reason>
            <activity>
               <text value="Synthetic Example Data Generation"/>
            </activity>
            <agent>
               <type>
                  <text value="author"/>
               </type>
               <who>
                  <reference value="Device/f4069e89-c340-4d31-a7ac-f75223deb7b0"/>
               </who>
            </agent>
         </Provenance>
      </resource>
   </entry>
   <entry>
      <fullUrl value="urn:uuid:e74011a2-ca53-432b-a659-50de1f2c6cb6"/>
      <resource>
         <PractitionerRole>
            <id value="e74011a2-ca53-432b-a659-50de1f2c6cb6"/>
            <meta>
               <profile value="http://hl7.eu/fhir/base/StructureDefinition/practitionerRole-eu"/>
            </meta>
            <text>
               <status value="generated"/>
               <div xmlns="http://www.w3.org/1999/xhtml">Laboratory Role Id: e74011a2-ca53-432b-a659-50de1f2c6cb6</div>
            </text>
            <practitioner>
               <reference value="urn:uuid:1958c63d-0a6c-486b-a603-7653d01add21"/>
            </practitioner>
         </PractitionerRole>
      </resource>
   </entry>
   <entry>
      <fullUrl value="urn:uuid:1958c63d-0a6c-486b-a603-7653d01add21"/>
      <resource>
         <Practitioner>
            <id value="1958c63d-0a6c-486b-a603-7653d01add21"/>
            <meta>
               <profile value="http://hl7.eu/fhir/base/StructureDefinition/practitioner-eu"/>
            </meta>
            <text>
               <status value="generated"/>
               <div xmlns="http://www.w3.org/1999/xhtml">Laboratory: Laboratoire Central Européenne, 1000 Brussels, Belgium</div>
            </text>
            <identifier>
               <system value="urn:oid:2.16.840.1.113883.2.51.999"/>
               <value value="5d8d34cd-8dc8-4516-a9e1-5d8ce7582ccc"/>
               <assigner>
                  <display value="HL7 Europe"/>
               </assigner>
            </identifier>
            <name>
               <family value="Ample"/>
               <given value="Ex"/>
               <prefix value="dr"/>
            </name>
            <address>
               <line value="Laboratoire Central Européenne"/>
               <line value="Boulevard du Jardin Botanique 32"/>
               <city value="Brussels"/>
               <postalCode value="1000"/>
               <country value="Belgium"/>
            </address>
         </Practitioner>
      </resource>
   </entry>
</Bundle>