{
  "resourceType": "Bundle",
  "id": "2a92a6b2-788e-4ac2-8819-216055db8c94",
  "meta": {
    "profile": [
      "http://hl7.eu/fhir/laboratory/StructureDefinition/Bundle-eu-lab"
    ]
  },
  "identifier": {
    "assigner": {
      "display": "HL7 Europe"
    },
    "system": "urn:oid:2.16.840.1.113883.2.51.999",
    "value": "435cf442-6784-4fc3-a4c7-0294dc58727c"
  },
  "entry": [
    {
      "fullUrl": "urn:uuid:465fd880-1441-4671-8b5e-2bf70baeb1f0",
      "resource": {
        "resourceType": "Composition",
        "id": "465fd880-1441-4671-8b5e-2bf70baeb1f0",
        "meta": {
          "profile": [
            "http://hl7.eu/fhir/laboratory/StructureDefinition/Composition-eu-lab"
          ]
        },
        "identifier": {
          "assigner": {
            "display": "HL7 Europe"
          },
          "system": "urn:oid:2.16.840.1.113883.2.51.999",
          "value": "0896e42e-c6d2-4b48-bb5f-84f74f4c9794"
        },
        "author": [
          {
            "reference": "urn:uuid:3c0820aa-36a1-4993-ab75-a27677668bc8"
          }
        ],
        "category": [
          {
            "coding": [
              {
                "code": "26436-6",
                "system": "http://loinc.org",
                "display": "Laboratory studies (set)"
              }
            ]
          }
        ],
        "type": {
          "coding": [
            {
              "code": "11502-2",
              "system": "http://loinc.org",
              "display": "Laboratory report"
            }
          ],
          "text": "Laboratory Report"
        },
        "section": [
          {
            "code": {
              "coding": [
                {
                  "code": "26436-6",
                  "system": "http://loinc.org",
                  "display": "Laboratory studies (set)"
                }
              ],
              "text": "Laboratory studies"
            },
            "section": [
              {
                "code": {
                  "coding": [
                    {
                      "code": "$18719-5",
                      "system": "http://loinc.org",
                      "display": "Chemistry studies (set)"
                    }
                  ],
                  "text": "Chemistry"
                },
                "entry": [
                  {
                    "reference": "urn:uuid:1010524e-0995-4d5f-9d81-10988c3a1187"
                  },
                  {
                    "reference": "urn:uuid:3e9a59bd-1925-47d1-97be-6f92f7ff3731"
                  },
                  {
                    "reference": "urn:uuid:97be07b7-fc82-4166-bbe3-83e02958eb9c"
                  },
                  {
                    "reference": "urn:uuid:f86e9f67-ab6a-4e90-8342-08165583e6ac"
                  },
                  {
                    "reference": "urn:uuid:39230482-8a2c-46fd-96f7-ee65c4c8761d"
                  },
                  {
                    "reference": "urn:uuid:86137db3-07cc-4285-9d16-0da2e847e2e1"
                  },
                  {
                    "reference": "urn:uuid:3bc79782-0d36-48fc-b8ff-d05b0deff287"
                  },
                  {
                    "reference": "urn:uuid:0e43e0e7-eb10-4957-a554-0bd94884ab5b"
                  },
                  {
                    "reference": "urn:uuid:0682dbed-6926-46c6-bd3f-902a5b79584b"
                  },
                  {
                    "reference": "urn:uuid:5f9a3e42-4bf3-48dc-917d-bafd3c30df1a"
                  },
                  {
                    "reference": "urn:uuid:8c5e9507-cc50-437e-bd51-dfd5cbcd2ad8"
                  },
                  {
                    "reference": "urn:uuid:e1b4147e-2197-404a-a5a6-dd99f44ea2af"
                  },
                  {
                    "reference": "urn:uuid:b75e72c6-0ae8-4232-94d9-2edb37cc707d"
                  },
                  {
                    "reference": "urn:uuid:769c0b90-b8b0-4b96-87a9-80e28e497a7d"
                  },
                  {
                    "reference": "urn:uuid:17bfc648-0b95-4dc4-931d-3eb675f12e7e"
                  },
                  {
                    "reference": "urn:uuid:eb5283ab-ad8b-4b26-84ec-c90b6f5e5e8d"
                  },
                  {
                    "reference": "urn:uuid:e0c2ca0f-ac1e-450f-961c-cb9a092b9300"
                  },
                  {
                    "reference": "urn:uuid:9e62b0fd-3d58-4ffe-b59c-94c15ab56c3b"
                  },
                  {
                    "reference": "urn:uuid:e0a2009e-081d-453a-af66-1abf7081f432"
                  }
                ],
                "text": {
                  "status": "generated",
                  "div": "<div xmlns=\"http://www.w3.org/1999/xhtml\"><h3>Chemistry</h3><table class=\"hl7__eu__lab__report\"><thead><tr><th>Test</th><th>02-NOV-2019</th><th>Reference&#xA0;Range</th><th>Unit</th></tr></thead><tbody><tr><td>Glucose [Mass/volume] in Blood</td><td>84.8</td><td>70 - 140</td><td>mg/dL</td></tr><tr><td>Urea nitrogen [Mass/volume] in Blood</td><td>9.3</td><td>7 - 25</td><td>mg/dL</td></tr><tr><td>Creatinine [Mass/volume] in Blood</td><td><strong>3.2 H</strong></td><td>0.6 - 1.1</td><td>mg/dL</td></tr><tr><td>Calcium [Mass/volume] in Blood</td><td>9.8</td><td>8.6 - 10.4</td><td>mg/dL</td></tr><tr><td>Sodium [Moles/volume] in Blood</td><td>143.7</td><td>135 - 145</td><td>mmol/L</td></tr><tr><td>Potassium [Moles/volume] in Blood</td><td>5.1</td><td>3.5 - 5.3</td><td>mmol/L</td></tr><tr><td>Chloride [Moles/volume] in Blood</td><td>105.8</td><td>98 - 108</td><td>mmol/L</td></tr><tr><td>Carbon dioxide, total [Moles/volume] in Blood</td><td>27.5</td><td>22 - 32</td><td>mmol/L</td></tr><tr><td>Protein [Mass/volume] in Serum or Plasma</td><td><strong>6.3 L</strong></td><td>6.6 - 8.3</td><td>g/dL</td></tr><tr><td>Albumin [Mass/volume] in Serum or Plasma</td><td>3.8</td><td>3.5 - 5.5</td><td>g/dL</td></tr><tr><td>Globulin [Mass/volume] in Serum by calculation</td><td>2.9</td><td>2.2 - 3.7</td><td>g/L</td></tr><tr><td>Bilirubin.total [Mass/volume] in Serum or Plasma</td><td>0.9</td><td>0.3 - 1.2</td><td>mg/dL</td></tr><tr><td>Alkaline phosphatase [Enzymatic activity/volume] in Serum or Plasma</td><td><strong>25.3 L</strong></td><td>40 - 130</td><td>U/L</td></tr><tr><td>Alanine aminotransferase [Enzymatic activity/volume] in Serum or Plasma</td><td>37.4</td><td>7 - 55</td><td>U/L</td></tr><tr><td>Aspartate aminotransferase [Enzymatic activity/volume] in Serum or Plasma</td><td>33.2</td><td>10 - 40</td><td>U/L</td></tr><tr><td>Cholesterol [Mass/volume] in Serum or Plasma</td><td>160.2</td><td>125 - 200</td><td>mg/dL</td></tr><tr><td>Triglyceride [Mass/volume] in Serum or Plasma</td><td>114.5</td><td>10 - 175</td><td>mg/dL</td></tr><tr><td>Cholesterol in LDL [Mass/volume] in Serum or Plasma by Direct assay</td><td>122.2</td><td>0 - 130</td><td>mg/dL</td></tr><tr><td>Cholesterol in HDL [Mass/volume] in Serum or Plasma</td><td><strong>34.1 L</strong></td><td>50 - 100</td><td>mg/dL</td></tr></tbody></table></div>"
                },
                "title": "Chemistry"
              }
            ],
            "title": "Laboratory Report"
          },
          {
            "text": {
              "status": "generated",
              "div": "<div xmlns=\"http://www.w3.org/1999/xhtml\"><h3>Annotation</h3><table class=\"hl7__eu__lab__report\"><tr><th>Conclusion and Recommendations based on this report and previous findings known to us</th></tr><tr><td>The patient shows significantly elevated creatinine, suggesting impaired renal function, and low total protein and HDL cholesterol, which may indicate malnutrition or chronic illness. Alkaline phosphatase is low, but this is less clinically significant. Other parameters are within normal limits. Renal function and nutritional status should be further evaluated in the clinical context.</td></tr></table></div>"
            },
            "code": {
              "coding": [
                {
                  "system": "http://loinc.org",
                  "code": "48767-8",
                  "display": "Annotation comment"
                }
              ]
            },
            "title": "Annotation comment"
          }
        ],
        "status": "final",
        "subject": {
          "reference": "urn:uuid:1c898c29-ee0c-4589-a643-96011375d4ac",
          "display": "Ludmila Vávrová"
        },
        "date": "2019-11-02T04:51:38Z",
        "title": "Laboratory Report",
        "confidentiality": "N"
      }
    },
    {
      "fullUrl": "urn:uuid:b37ce30f-2e0d-4fcd-87f6-49ab0a59916b",
      "resource": {
        "resourceType": "DiagnosticReport",
        "id": "b37ce30f-2e0d-4fcd-87f6-49ab0a59916b",
        "meta": {
          "profile": [
            "http://hl7.eu/fhir/laboratory/StructureDefinition/DiagnosticReport-eu-lab"
          ]
        },
        "identifier": [
          {
            "assigner": {
              "display": "HL7 Europe"
            },
            "system": "urn:oid:2.16.840.1.113883.2.51.999",
            "value": "9b56b7ac-71cd-4bc2-9b28-c3c73e9c19e9"
          }
        ],
        "extension": [
          {
            "url": "http://hl7.org/fhir/5.0/StructureDefinition/extension-DiagnosticReport.composition",
            "valueReference": {
              "reference": "urn:uuid:0896e42e-c6d2-4b48-bb5f-84f74f4c9794"
            }
          }
        ],
        "category": [
          {
            "coding": [
              {
                "code": "26436-6",
                "system": "http://loinc.org",
                "display": "Laboratory studies (set)"
              }
            ]
          }
        ],
        "specimen": [
          {
            "reference": "urn:uuid:6a729e5d-c8c8-49af-89ab-2d9f5a923d67"
          },
          {
            "reference": "urn:uuid:1e7d0e29-92bd-4180-a568-072099b436d2"
          },
          {
            "reference": "urn:uuid:232d73bd-6b64-4f3f-ac5c-e15dfdfe30aa"
          }
        ],
        "result": [
          {
            "reference": "urn:uuid:1010524e-0995-4d5f-9d81-10988c3a1187"
          },
          {
            "reference": "urn:uuid:3e9a59bd-1925-47d1-97be-6f92f7ff3731"
          },
          {
            "reference": "urn:uuid:97be07b7-fc82-4166-bbe3-83e02958eb9c"
          },
          {
            "reference": "urn:uuid:f86e9f67-ab6a-4e90-8342-08165583e6ac"
          },
          {
            "reference": "urn:uuid:39230482-8a2c-46fd-96f7-ee65c4c8761d"
          },
          {
            "reference": "urn:uuid:86137db3-07cc-4285-9d16-0da2e847e2e1"
          },
          {
            "reference": "urn:uuid:3bc79782-0d36-48fc-b8ff-d05b0deff287"
          },
          {
            "reference": "urn:uuid:0e43e0e7-eb10-4957-a554-0bd94884ab5b"
          },
          {
            "reference": "urn:uuid:0682dbed-6926-46c6-bd3f-902a5b79584b"
          },
          {
            "reference": "urn:uuid:5f9a3e42-4bf3-48dc-917d-bafd3c30df1a"
          },
          {
            "reference": "urn:uuid:8c5e9507-cc50-437e-bd51-dfd5cbcd2ad8"
          },
          {
            "reference": "urn:uuid:e1b4147e-2197-404a-a5a6-dd99f44ea2af"
          },
          {
            "reference": "urn:uuid:b75e72c6-0ae8-4232-94d9-2edb37cc707d"
          },
          {
            "reference": "urn:uuid:769c0b90-b8b0-4b96-87a9-80e28e497a7d"
          },
          {
            "reference": "urn:uuid:17bfc648-0b95-4dc4-931d-3eb675f12e7e"
          },
          {
            "reference": "urn:uuid:eb5283ab-ad8b-4b26-84ec-c90b6f5e5e8d"
          },
          {
            "reference": "urn:uuid:e0c2ca0f-ac1e-450f-961c-cb9a092b9300"
          },
          {
            "reference": "urn:uuid:9e62b0fd-3d58-4ffe-b59c-94c15ab56c3b"
          },
          {
            "reference": "urn:uuid:e0a2009e-081d-453a-af66-1abf7081f432"
          }
        ],
        "status": "registered",
        "code": {
          "coding": [
            {
              "code": "11502-2",
              "system": "http://loinc.org",
              "display": "Laboratory report"
            }
          ]
        },
        "subject": {
          "reference": "urn:uuid:1c898c29-ee0c-4589-a643-96011375d4ac",
          "display": "Ludmila Vávrová"
        }
      }
    },
    {
      "fullUrl": "urn:uuid:1c898c29-ee0c-4589-a643-96011375d4ac",
      "resource": {
        "resourceType": "Patient",
        "id": "1c898c29-ee0c-4589-a643-96011375d4ac",
        "meta": {
          "security": [
            {
              "system": "http://terminology.hl7.org/CodeSystem/v3-ActReason",
              "code": "HTEST"
            },
            {
              "system": "http://terminology.hl7.org/CodeSystem/v3-ActReason",
              "code": "TRAIN"
            }
          ],
          "tag": [
            {
              "system": "https://synderai.net/fhir/CodeSystem/tags",
              "code": "synthetic",
              "display": "SYNDERAI Synthetic data"
            }
          ],
          "profile": [
            "http://hl7.eu/fhir/base/StructureDefinition/patient-eu-core"
          ]
        },
        "identifier": [
          {
            "type": {
              "coding": [
                {
                  "code": "PT",
                  "system": "http://terminology.hl7.org/CodeSystem/v2-0203"
                }
              ]
            },
            "system": "http://ec.europa.eu/identifier/eci",
            "value": "1992-540676-1"
          },
          {
            "type": {
              "coding": [
                {
                  "code": "MR",
                  "system": "http://terminology.hl7.org/CodeSystem/v2-0203"
                }
              ]
            },
            "system": "http://local.setting.eu/identifier",
            "value": "7c533aae-6e7f-89aa-dfdc-8ff900a5990b"
          }
        ],
        "name": [
          {
            "family": "Vávrová"
          },
          {
            "given": [
              "Ludmila"
            ]
          },
          {
            "text": "Ludmila Vávrová"
          }
        ],
        "address": [
          {
            "line": [
              "Šárovo Kolo 116"
            ],
            "use": "home",
            "type": "physical",
            "postalCode": "29471",
            "city": "Bakov nad Jizerou",
            "country": "Czechia"
          }
        ],
        "telecom": [
          {
            "system": "phone",
            "value": "00420 607 610 889"
          }
        ],
        "extension": [
          {
            "url": "http://hl7.org/fhir/StructureDefinition/patient-nationality",
            "valueCodeableConcept": {
              "coding": [
                {
                  "code": "CZ",
                  "system": "http://hl7.org/fhir/ValueSet/country"
                }
              ]
            }
          }
        ],
        "text": {
          "status": "generated",
          "div": "<div xmlns=\"http://www.w3.org/1999/xhtml\"><table class=\"hl7__ips\"><tr><td>Ludmila Vávrová</td><td>female</td><td>08-Aug-1940</td></tr></table></div>"
        },
        "gender": "female",
        "birthDate": "1940-08-08"
      }
    },
    {
      "fullUrl": "urn:uuid:2569826c-a33d-475f-8e08-55c9c3b0f37b",
      "resource": {
        "resourceType": "ServiceRequest",
        "id": "2569826c-a33d-475f-8e08-55c9c3b0f37b",
        "meta": {
          "profile": [
            "http://hl7.eu/fhir/laboratory/StructureDefinition/ServiceRequest-eu-lab"
          ]
        },
        "identifier": [
          {
            "system": "http://example.org",
            "value": "1defed15-0c08-491b-abbe-d9a7125f5c17"
          }
        ],
        "specimen": [
          {
            "reference": "urn:uuid:6a729e5d-c8c8-49af-89ab-2d9f5a923d67"
          },
          {
            "reference": "urn:uuid:1e7d0e29-92bd-4180-a568-072099b436d2"
          },
          {
            "reference": "urn:uuid:232d73bd-6b64-4f3f-ac5c-e15dfdfe30aa"
          }
        ],
        "reasonCode": [
          {
            "coding": [
              {
                "code": "414545008",
                "system": "http://snomed.info/sct",
                "display": "Ischemic heart disease"
              }
            ]
          },
          {
            "coding": [
              {
                "code": "64859006",
                "system": "http://snomed.info/sct",
                "display": "Osteoporosis"
              }
            ]
          },
          {
            "coding": [
              {
                "code": "6525002",
                "system": "http://snomed.info/sct",
                "display": "Dependent drug abuse"
              }
            ]
          },
          {
            "coding": [
              {
                "code": "55822004",
                "system": "http://snomed.info/sct",
                "display": "Hyperlipidemia"
              }
            ]
          },
          {
            "coding": [
              {
                "code": "124171000119105",
                "system": "http://snomed.info/sct",
                "display": "Chronic intractable migraine without aura"
              }
            ]
          },
          {
            "coding": [
              {
                "code": "196416002",
                "system": "http://snomed.info/sct",
                "display": "Impacted molars"
              }
            ]
          },
          {
            "coding": [
              {
                "code": "239872002",
                "system": "http://snomed.info/sct",
                "display": "Osteoarthritis of hip"
              }
            ]
          },
          {
            "coding": [
              {
                "code": "40055000",
                "system": "http://snomed.info/sct",
                "display": "Chronic sinusitis"
              }
            ]
          }
        ],
        "status": "active",
        "intent": "order",
        "code": {
          "coding": [
            {
              "code": "108252007",
              "system": "http://snomed.info/sct",
              "display": "Laboratory procedure"
            }
          ]
        },
        "subject": {
          "reference": "urn:uuid:1c898c29-ee0c-4589-a643-96011375d4ac",
          "display": "Ludmila Vávrová"
        },
        "requester": {
          "reference": "urn:uuid:1461576d-d701-4aa4-805d-e8a98fbed02e"
        }
      }
    },
    {
      "fullUrl": "urn:uuid:1461576d-d701-4aa4-805d-e8a98fbed02e",
      "resource": {
        "resourceType": "PractitionerRole",
        "id": "1461576d-d701-4aa4-805d-e8a98fbed02e",
        "meta": {
          "profile": [
            "http://hl7.eu/fhir/base/StructureDefinition/practitionerRole-eu"
          ]
        },
        "text": {
          "status": "generated",
          "div": "<div xmlns=\"http://www.w3.org/1999/xhtml\">Provider Role Id: 1461576d-d701-4aa4-805d-e8a98fbed02e</div>"
        },
        "organization": {
          "reference": "urn:uuid:158dcbec-abfb-4dd0-9531-383968aeeeba"
        }
      }
    },
    {
      "fullUrl": "urn:uuid:158dcbec-abfb-4dd0-9531-383968aeeeba",
      "resource": {
        "resourceType": "Organization",
        "id": "158dcbec-abfb-4dd0-9531-383968aeeeba",
        "meta": {
          "profile": [
            "http://hl7.eu/fhir/base/StructureDefinition/organization-eu"
          ]
        },
        "identifier": [
          {
            "assigner": {
              "display": "HL7 Europe"
            },
            "system": "urn:oid:2.16.840.1.113883.2.51.999",
            "value": "6615f5fe-2c18-4389-a429-f83cc65f696d"
          }
        ],
        "address": [
          {
            "city": "Kosmonosy",
            "postalCode": "293 06",
            "country": "Czechia"
          }
        ],
        "text": {
          "status": "generated",
          "div": "<div xmlns=\"http://www.w3.org/1999/xhtml\">Provider Organization: Psychiatrická nemocnice Kosmonosy</div>"
        },
        "name": "Psychiatrická nemocnice Kosmonosy"
      }
    },
    {
      "fullUrl": "urn:uuid:6a729e5d-c8c8-49af-89ab-2d9f5a923d67",
      "resource": {
        "resourceType": "Specimen",
        "id": "6a729e5d-c8c8-49af-89ab-2d9f5a923d67",
        "meta": {
          "profile": [
            "http://hl7.eu/fhir/laboratory/StructureDefinition/Specimen-eu-lab"
          ]
        },
        "collection": {
          "collectedDateTime": "2019-11-02"
        },
        "text": {
          "status": "generated",
          "div": "<div xmlns=\"http://www.w3.org/1999/xhtml\"><table class=\"hl7__eu__lab__report\"><tr><th>Specimen</th><th>Collection Date</th></tr><tr><td>Whole blood specimen (specimen)</td><td><span class=\"nb\">02-Nov-2019</span></td></tr></table></div>"
        },
        "type": {
          "coding": [
            {
              "code": "258580003",
              "system": "http://snomed.info/sct",
              "display": "Whole blood specimen (specimen)"
            }
          ]
        }
      }
    },
    {
      "fullUrl": "urn:uuid:1e7d0e29-92bd-4180-a568-072099b436d2",
      "resource": {
        "resourceType": "Specimen",
        "id": "1e7d0e29-92bd-4180-a568-072099b436d2",
        "meta": {
          "profile": [
            "http://hl7.eu/fhir/laboratory/StructureDefinition/Specimen-eu-lab"
          ]
        },
        "collection": {
          "collectedDateTime": "2019-11-02"
        },
        "text": {
          "status": "generated",
          "div": "<div xmlns=\"http://www.w3.org/1999/xhtml\"><table class=\"hl7__eu__lab__report\"><tr><th>Specimen</th><th>Collection Date</th></tr><tr><td>Acellular blood (serum or plasma) specimen</td><td><span class=\"nb\">02-Nov-2019</span></td></tr></table></div>"
        },
        "type": {
          "coding": [
            {
              "code": "122592007",
              "system": "http://snomed.info/sct",
              "display": "Acellular blood (serum or plasma) specimen"
            }
          ]
        }
      }
    },
    {
      "fullUrl": "urn:uuid:232d73bd-6b64-4f3f-ac5c-e15dfdfe30aa",
      "resource": {
        "resourceType": "Specimen",
        "id": "232d73bd-6b64-4f3f-ac5c-e15dfdfe30aa",
        "meta": {
          "profile": [
            "http://hl7.eu/fhir/laboratory/StructureDefinition/Specimen-eu-lab"
          ]
        },
        "collection": {
          "collectedDateTime": "2019-11-02"
        },
        "text": {
          "status": "generated",
          "div": "<div xmlns=\"http://www.w3.org/1999/xhtml\"><table class=\"hl7__eu__lab__report\"><tr><th>Specimen</th><th>Collection Date</th></tr><tr><td>Serum specimen</td><td><span class=\"nb\">02-Nov-2019</span></td></tr></table></div>"
        },
        "type": {
          "coding": [
            {
              "code": "119364003",
              "system": "http://snomed.info/sct",
              "display": "Serum specimen"
            }
          ]
        }
      }
    },
    {
      "fullUrl": "urn:uuid:1010524e-0995-4d5f-9d81-10988c3a1187",
      "resource": {
        "resourceType": "Observation",
        "id": "1010524e-0995-4d5f-9d81-10988c3a1187",
        "meta": {
          "profile": [
            "http://hl7.eu/fhir/laboratory/StructureDefinition/Observation-resultslab-eu-lab"
          ]
        },
        "performer": [
          {
            "display": "The Central European Lab"
          }
        ],
        "category": [
          {
            "coding": [
              {
                "system": "http://terminology.hl7.org/CodeSystem/observation-category",
                "code": "laboratory"
              }
            ]
          }
        ],
        "code": {
          "coding": [
            {
              "code": "2339-0",
              "system": "http://loinc.org",
              "display": "Glucose [Mass/volume] in Blood"
            }
          ],
          "text": "Glucose [Mass/volume] in Blood"
        },
        "valueQuantity": {
          "system": "http://unitsofmeasure.org",
          "value": 84.8,
          "unit": "mg/dL",
          "code": "mg/dL"
        },
        "referenceRange": [
          {
            "low": {
              "value": 70,
              "code": "mg/dL",
              "system": "http://unitsofmeasure.org"
            }
          },
          {
            "high": {
              "value": 140,
              "code": "mg/dL",
              "system": "http://unitsofmeasure.org"
            }
          }
        ],
        "text": {
          "status": "generated",
          "div": "<div xmlns=\"http://www.w3.org/1999/xhtml\"><table class=\"hl7__eu__lab__report\"><tr><th>Test</th><th>02-Nov-2019</th><th>Reference&#xA0;Range</th><th>Unit</th></tr><tr><td>Glucose [Mass/volume] in Blood</td><td>84.8</td><td>70 - 140</td><td></td><td>mg/dL</td></tr></table></div>"
        },
        "status": "final",
        "subject": {
          "reference": "urn:uuid:1c898c29-ee0c-4589-a643-96011375d4ac",
          "display": "Ludmila Vávrová"
        },
        "effectiveDateTime": "2019-11-02T03:51:38Z",
        "specimen": {
          "reference": "urn:uuid:6a729e5d-c8c8-49af-89ab-2d9f5a923d67"
        }
      }
    },
    {
      "fullUrl": "urn:uuid:3e9a59bd-1925-47d1-97be-6f92f7ff3731",
      "resource": {
        "resourceType": "Observation",
        "id": "3e9a59bd-1925-47d1-97be-6f92f7ff3731",
        "meta": {
          "profile": [
            "http://hl7.eu/fhir/laboratory/StructureDefinition/Observation-resultslab-eu-lab"
          ]
        },
        "performer": [
          {
            "display": "The Central European Lab"
          }
        ],
        "category": [
          {
            "coding": [
              {
                "system": "http://terminology.hl7.org/CodeSystem/observation-category",
                "code": "laboratory"
              }
            ]
          }
        ],
        "code": {
          "coding": [
            {
              "code": "6299-2",
              "system": "http://loinc.org",
              "display": "Urea nitrogen [Mass/volume] in Blood"
            }
          ],
          "text": "Urea nitrogen [Mass/volume] in Blood"
        },
        "valueQuantity": {
          "system": "http://unitsofmeasure.org",
          "value": 9.3,
          "unit": "mg/dL",
          "code": "mg/dL"
        },
        "referenceRange": [
          {
            "low": {
              "value": 7,
              "code": "mg/dL",
              "system": "http://unitsofmeasure.org"
            }
          },
          {
            "high": {
              "value": 25,
              "code": "mg/dL",
              "system": "http://unitsofmeasure.org"
            }
          }
        ],
        "text": {
          "status": "generated",
          "div": "<div xmlns=\"http://www.w3.org/1999/xhtml\"><table class=\"hl7__eu__lab__report\"><tr><th>Test</th><th>02-Nov-2019</th><th>Reference&#xA0;Range</th><th>Unit</th></tr><tr><td>Urea nitrogen [Mass/volume] in Blood</td><td>9.3</td><td>7 - 25</td><td></td><td>mg/dL</td></tr></table></div>"
        },
        "status": "final",
        "subject": {
          "reference": "urn:uuid:1c898c29-ee0c-4589-a643-96011375d4ac",
          "display": "Ludmila Vávrová"
        },
        "effectiveDateTime": "2019-11-02T03:51:38Z",
        "specimen": {
          "reference": "urn:uuid:6a729e5d-c8c8-49af-89ab-2d9f5a923d67"
        }
      }
    },
    {
      "fullUrl": "urn:uuid:97be07b7-fc82-4166-bbe3-83e02958eb9c",
      "resource": {
        "resourceType": "Observation",
        "id": "97be07b7-fc82-4166-bbe3-83e02958eb9c",
        "meta": {
          "profile": [
            "http://hl7.eu/fhir/laboratory/StructureDefinition/Observation-resultslab-eu-lab"
          ]
        },
        "performer": [
          {
            "display": "The Central European Lab"
          }
        ],
        "category": [
          {
            "coding": [
              {
                "system": "http://terminology.hl7.org/CodeSystem/observation-category",
                "code": "laboratory"
              }
            ]
          }
        ],
        "code": {
          "coding": [
            {
              "code": "38483-4",
              "system": "http://loinc.org",
              "display": "Creatinine [Mass/volume] in Blood"
            }
          ],
          "text": "Creatinine [Mass/volume] in Blood"
        },
        "valueQuantity": {
          "system": "http://unitsofmeasure.org",
          "value": 3.2,
          "unit": "mg/dL",
          "code": "mg/dL"
        },
        "referenceRange": [
          {
            "low": {
              "value": 0.6,
              "code": "mg/dL",
              "system": "http://unitsofmeasure.org"
            }
          },
          {
            "high": {
              "value": 1.1,
              "code": "mg/dL",
              "system": "http://unitsofmeasure.org"
            }
          }
        ],
        "interpretation": [
          {
            "coding": [
              {
                "code": "H",
                "system": "http://terminology.hl7.org/CodeSystem/v3-ObservationInterpretation",
                "display": "High"
              }
            ]
          }
        ],
        "text": {
          "status": "generated",
          "div": "<div xmlns=\"http://www.w3.org/1999/xhtml\"><table class=\"hl7__eu__lab__report\"><tr><th>Test</th><th>02-Nov-2019</th><th>Reference&#xA0;Range</th><th>Unit</th></tr><tr><td>Creatinine [Mass/volume] in Blood</td><td>3.2</td><td>0.6 - 1.1</td><td>H</td><td>mg/dL</td></tr></table></div>"
        },
        "status": "final",
        "subject": {
          "reference": "urn:uuid:1c898c29-ee0c-4589-a643-96011375d4ac",
          "display": "Ludmila Vávrová"
        },
        "effectiveDateTime": "2019-11-02T03:51:38Z",
        "specimen": {
          "reference": "urn:uuid:6a729e5d-c8c8-49af-89ab-2d9f5a923d67"
        }
      }
    },
    {
      "fullUrl": "urn:uuid:f86e9f67-ab6a-4e90-8342-08165583e6ac",
      "resource": {
        "resourceType": "Observation",
        "id": "f86e9f67-ab6a-4e90-8342-08165583e6ac",
        "meta": {
          "profile": [
            "http://hl7.eu/fhir/laboratory/StructureDefinition/Observation-resultslab-eu-lab"
          ]
        },
        "performer": [
          {
            "display": "The Central European Lab"
          }
        ],
        "category": [
          {
            "coding": [
              {
                "system": "http://terminology.hl7.org/CodeSystem/observation-category",
                "code": "laboratory"
              }
            ]
          }
        ],
        "code": {
          "coding": [
            {
              "code": "49765-1",
              "system": "http://loinc.org",
              "display": "Calcium [Mass/volume] in Blood"
            }
          ],
          "text": "Calcium [Mass/volume] in Blood"
        },
        "valueQuantity": {
          "system": "http://unitsofmeasure.org",
          "value": 9.8,
          "unit": "mg/dL",
          "code": "mg/dL"
        },
        "referenceRange": [
          {
            "low": {
              "value": 8.6,
              "code": "mg/dL",
              "system": "http://unitsofmeasure.org"
            }
          },
          {
            "high": {
              "value": 10.4,
              "code": "mg/dL",
              "system": "http://unitsofmeasure.org"
            }
          }
        ],
        "text": {
          "status": "generated",
          "div": "<div xmlns=\"http://www.w3.org/1999/xhtml\"><table class=\"hl7__eu__lab__report\"><tr><th>Test</th><th>02-Nov-2019</th><th>Reference&#xA0;Range</th><th>Unit</th></tr><tr><td>Calcium [Mass/volume] in Blood</td><td>9.8</td><td>8.6 - 10.4</td><td></td><td>mg/dL</td></tr></table></div>"
        },
        "status": "final",
        "subject": {
          "reference": "urn:uuid:1c898c29-ee0c-4589-a643-96011375d4ac",
          "display": "Ludmila Vávrová"
        },
        "effectiveDateTime": "2019-11-02T03:51:38Z",
        "specimen": {
          "reference": "urn:uuid:6a729e5d-c8c8-49af-89ab-2d9f5a923d67"
        }
      }
    },
    {
      "fullUrl": "urn:uuid:39230482-8a2c-46fd-96f7-ee65c4c8761d",
      "resource": {
        "resourceType": "Observation",
        "id": "39230482-8a2c-46fd-96f7-ee65c4c8761d",
        "meta": {
          "profile": [
            "http://hl7.eu/fhir/laboratory/StructureDefinition/Observation-resultslab-eu-lab"
          ]
        },
        "performer": [
          {
            "display": "The Central European Lab"
          }
        ],
        "category": [
          {
            "coding": [
              {
                "system": "http://terminology.hl7.org/CodeSystem/observation-category",
                "code": "laboratory"
              }
            ]
          }
        ],
        "code": {
          "coding": [
            {
              "code": "2947-0",
              "system": "http://loinc.org",
              "display": "Sodium [Moles/volume] in Blood"
            }
          ],
          "text": "Sodium [Moles/volume] in Blood"
        },
        "valueQuantity": {
          "system": "http://unitsofmeasure.org",
          "value": 143.7,
          "unit": "mmol/L",
          "code": "mmol/L"
        },
        "referenceRange": [
          {
            "low": {
              "value": 135,
              "code": "mmol/L",
              "system": "http://unitsofmeasure.org"
            }
          },
          {
            "high": {
              "value": 145,
              "code": "mmol/L",
              "system": "http://unitsofmeasure.org"
            }
          }
        ],
        "text": {
          "status": "generated",
          "div": "<div xmlns=\"http://www.w3.org/1999/xhtml\"><table class=\"hl7__eu__lab__report\"><tr><th>Test</th><th>02-Nov-2019</th><th>Reference&#xA0;Range</th><th>Unit</th></tr><tr><td>Sodium [Moles/volume] in Blood</td><td>143.7</td><td>135 - 145</td><td></td><td>mmol/L</td></tr></table></div>"
        },
        "status": "final",
        "subject": {
          "reference": "urn:uuid:1c898c29-ee0c-4589-a643-96011375d4ac",
          "display": "Ludmila Vávrová"
        },
        "effectiveDateTime": "2019-11-02T03:51:38Z",
        "specimen": {
          "reference": "urn:uuid:6a729e5d-c8c8-49af-89ab-2d9f5a923d67"
        }
      }
    },
    {
      "fullUrl": "urn:uuid:86137db3-07cc-4285-9d16-0da2e847e2e1",
      "resource": {
        "resourceType": "Observation",
        "id": "86137db3-07cc-4285-9d16-0da2e847e2e1",
        "meta": {
          "profile": [
            "http://hl7.eu/fhir/laboratory/StructureDefinition/Observation-resultslab-eu-lab"
          ]
        },
        "performer": [
          {
            "display": "The Central European Lab"
          }
        ],
        "category": [
          {
            "coding": [
              {
                "system": "http://terminology.hl7.org/CodeSystem/observation-category",
                "code": "laboratory"
              }
            ]
          }
        ],
        "code": {
          "coding": [
            {
              "code": "6298-4",
              "system": "http://loinc.org",
              "display": "Potassium [Moles/volume] in Blood"
            }
          ],
          "text": "Potassium [Moles/volume] in Blood"
        },
        "valueQuantity": {
          "system": "http://unitsofmeasure.org",
          "value": 5.1,
          "unit": "mmol/L",
          "code": "mmol/L"
        },
        "referenceRange": [
          {
            "low": {
              "value": 3.5,
              "code": "mmol/L",
              "system": "http://unitsofmeasure.org"
            }
          },
          {
            "high": {
              "value": 5.3,
              "code": "mmol/L",
              "system": "http://unitsofmeasure.org"
            }
          }
        ],
        "text": {
          "status": "generated",
          "div": "<div xmlns=\"http://www.w3.org/1999/xhtml\"><table class=\"hl7__eu__lab__report\"><tr><th>Test</th><th>02-Nov-2019</th><th>Reference&#xA0;Range</th><th>Unit</th></tr><tr><td>Potassium [Moles/volume] in Blood</td><td>5.1</td><td>3.5 - 5.3</td><td></td><td>mmol/L</td></tr></table></div>"
        },
        "status": "final",
        "subject": {
          "reference": "urn:uuid:1c898c29-ee0c-4589-a643-96011375d4ac",
          "display": "Ludmila Vávrová"
        },
        "effectiveDateTime": "2019-11-02T03:51:38Z",
        "specimen": {
          "reference": "urn:uuid:6a729e5d-c8c8-49af-89ab-2d9f5a923d67"
        }
      }
    },
    {
      "fullUrl": "urn:uuid:3bc79782-0d36-48fc-b8ff-d05b0deff287",
      "resource": {
        "resourceType": "Observation",
        "id": "3bc79782-0d36-48fc-b8ff-d05b0deff287",
        "meta": {
          "profile": [
            "http://hl7.eu/fhir/laboratory/StructureDefinition/Observation-resultslab-eu-lab"
          ]
        },
        "performer": [
          {
            "display": "The Central European Lab"
          }
        ],
        "category": [
          {
            "coding": [
              {
                "system": "http://terminology.hl7.org/CodeSystem/observation-category",
                "code": "laboratory"
              }
            ]
          }
        ],
        "code": {
          "coding": [
            {
              "code": "2069-3",
              "system": "http://loinc.org",
              "display": "Chloride [Moles/volume] in Blood"
            }
          ],
          "text": "Chloride [Moles/volume] in Blood"
        },
        "valueQuantity": {
          "system": "http://unitsofmeasure.org",
          "value": 105.8,
          "unit": "mmol/L",
          "code": "mmol/L"
        },
        "referenceRange": [
          {
            "low": {
              "value": 98,
              "code": "mmol/L",
              "system": "http://unitsofmeasure.org"
            }
          },
          {
            "high": {
              "value": 108,
              "code": "mmol/L",
              "system": "http://unitsofmeasure.org"
            }
          }
        ],
        "text": {
          "status": "generated",
          "div": "<div xmlns=\"http://www.w3.org/1999/xhtml\"><table class=\"hl7__eu__lab__report\"><tr><th>Test</th><th>02-Nov-2019</th><th>Reference&#xA0;Range</th><th>Unit</th></tr><tr><td>Chloride [Moles/volume] in Blood</td><td>105.8</td><td>98 - 108</td><td></td><td>mmol/L</td></tr></table></div>"
        },
        "status": "final",
        "subject": {
          "reference": "urn:uuid:1c898c29-ee0c-4589-a643-96011375d4ac",
          "display": "Ludmila Vávrová"
        },
        "effectiveDateTime": "2019-11-02T03:51:38Z",
        "specimen": {
          "reference": "urn:uuid:6a729e5d-c8c8-49af-89ab-2d9f5a923d67"
        }
      }
    },
    {
      "fullUrl": "urn:uuid:0e43e0e7-eb10-4957-a554-0bd94884ab5b",
      "resource": {
        "resourceType": "Observation",
        "id": "0e43e0e7-eb10-4957-a554-0bd94884ab5b",
        "meta": {
          "profile": [
            "http://hl7.eu/fhir/laboratory/StructureDefinition/Observation-resultslab-eu-lab"
          ]
        },
        "performer": [
          {
            "display": "The Central European Lab"
          }
        ],
        "category": [
          {
            "coding": [
              {
                "system": "http://terminology.hl7.org/CodeSystem/observation-category",
                "code": "laboratory"
              }
            ]
          }
        ],
        "code": {
          "coding": [
            {
              "code": "20565-8",
              "system": "http://loinc.org",
              "display": "Carbon dioxide, total [Moles/volume] in Blood"
            }
          ],
          "text": "Carbon dioxide, total [Moles/volume] in Blood"
        },
        "valueQuantity": {
          "system": "http://unitsofmeasure.org",
          "value": 27.5,
          "unit": "mmol/L",
          "code": "mmol/L"
        },
        "referenceRange": [
          {
            "low": {
              "value": 22,
              "code": "mmol/L",
              "system": "http://unitsofmeasure.org"
            }
          },
          {
            "high": {
              "value": 32,
              "code": "mmol/L",
              "system": "http://unitsofmeasure.org"
            }
          }
        ],
        "text": {
          "status": "generated",
          "div": "<div xmlns=\"http://www.w3.org/1999/xhtml\"><table class=\"hl7__eu__lab__report\"><tr><th>Test</th><th>02-Nov-2019</th><th>Reference&#xA0;Range</th><th>Unit</th></tr><tr><td>Carbon dioxide, total [Moles/volume] in Blood</td><td>27.5</td><td>22 - 32</td><td></td><td>mmol/L</td></tr></table></div>"
        },
        "status": "final",
        "subject": {
          "reference": "urn:uuid:1c898c29-ee0c-4589-a643-96011375d4ac",
          "display": "Ludmila Vávrová"
        },
        "effectiveDateTime": "2019-11-02T03:51:38Z",
        "specimen": {
          "reference": "urn:uuid:6a729e5d-c8c8-49af-89ab-2d9f5a923d67"
        }
      }
    },
    {
      "fullUrl": "urn:uuid:0682dbed-6926-46c6-bd3f-902a5b79584b",
      "resource": {
        "resourceType": "Observation",
        "id": "0682dbed-6926-46c6-bd3f-902a5b79584b",
        "meta": {
          "profile": [
            "http://hl7.eu/fhir/laboratory/StructureDefinition/Observation-resultslab-eu-lab"
          ]
        },
        "performer": [
          {
            "display": "The Central European Lab"
          }
        ],
        "category": [
          {
            "coding": [
              {
                "system": "http://terminology.hl7.org/CodeSystem/observation-category",
                "code": "laboratory"
              }
            ]
          }
        ],
        "code": {
          "coding": [
            {
              "code": "2885-2",
              "system": "http://loinc.org",
              "display": "Protein [Mass/volume] in Serum or Plasma"
            }
          ],
          "text": "Protein [Mass/volume] in Serum or Plasma"
        },
        "valueQuantity": {
          "system": "http://unitsofmeasure.org",
          "value": 6.3,
          "unit": "g/dL",
          "code": "g/dL"
        },
        "referenceRange": [
          {
            "low": {
              "value": 6.6,
              "code": "g/dL",
              "system": "http://unitsofmeasure.org"
            }
          },
          {
            "high": {
              "value": 8.3,
              "code": "g/dL",
              "system": "http://unitsofmeasure.org"
            }
          }
        ],
        "interpretation": [
          {
            "coding": [
              {
                "code": "L",
                "system": "http://terminology.hl7.org/CodeSystem/v3-ObservationInterpretation",
                "display": "Low"
              }
            ]
          }
        ],
        "text": {
          "status": "generated",
          "div": "<div xmlns=\"http://www.w3.org/1999/xhtml\"><table class=\"hl7__eu__lab__report\"><tr><th>Test</th><th>02-Nov-2019</th><th>Reference&#xA0;Range</th><th>Unit</th></tr><tr><td>Protein [Mass/volume] in Serum or Plasma</td><td>6.3</td><td>6.6 - 8.3</td><td>L</td><td>g/dL</td></tr></table></div>"
        },
        "status": "final",
        "subject": {
          "reference": "urn:uuid:1c898c29-ee0c-4589-a643-96011375d4ac",
          "display": "Ludmila Vávrová"
        },
        "effectiveDateTime": "2019-11-02T03:51:38Z",
        "specimen": {
          "reference": "urn:uuid:1e7d0e29-92bd-4180-a568-072099b436d2"
        }
      }
    },
    {
      "fullUrl": "urn:uuid:5f9a3e42-4bf3-48dc-917d-bafd3c30df1a",
      "resource": {
        "resourceType": "Observation",
        "id": "5f9a3e42-4bf3-48dc-917d-bafd3c30df1a",
        "meta": {
          "profile": [
            "http://hl7.eu/fhir/laboratory/StructureDefinition/Observation-resultslab-eu-lab"
          ]
        },
        "performer": [
          {
            "display": "The Central European Lab"
          }
        ],
        "category": [
          {
            "coding": [
              {
                "system": "http://terminology.hl7.org/CodeSystem/observation-category",
                "code": "laboratory"
              }
            ]
          }
        ],
        "code": {
          "coding": [
            {
              "code": "1751-7",
              "system": "http://loinc.org",
              "display": "Albumin [Mass/volume] in Serum or Plasma"
            }
          ],
          "text": "Albumin [Mass/volume] in Serum or Plasma"
        },
        "valueQuantity": {
          "system": "http://unitsofmeasure.org",
          "value": 3.8,
          "unit": "g/dL",
          "code": "g/dL"
        },
        "referenceRange": [
          {
            "low": {
              "value": 3.5,
              "code": "g/dL",
              "system": "http://unitsofmeasure.org"
            }
          },
          {
            "high": {
              "value": 5.5,
              "code": "g/dL",
              "system": "http://unitsofmeasure.org"
            }
          }
        ],
        "text": {
          "status": "generated",
          "div": "<div xmlns=\"http://www.w3.org/1999/xhtml\"><table class=\"hl7__eu__lab__report\"><tr><th>Test</th><th>02-Nov-2019</th><th>Reference&#xA0;Range</th><th>Unit</th></tr><tr><td>Albumin [Mass/volume] in Serum or Plasma</td><td>3.8</td><td>3.5 - 5.5</td><td></td><td>g/dL</td></tr></table></div>"
        },
        "status": "final",
        "subject": {
          "reference": "urn:uuid:1c898c29-ee0c-4589-a643-96011375d4ac",
          "display": "Ludmila Vávrová"
        },
        "effectiveDateTime": "2019-11-02T03:51:38Z",
        "specimen": {
          "reference": "urn:uuid:1e7d0e29-92bd-4180-a568-072099b436d2"
        }
      }
    },
    {
      "fullUrl": "urn:uuid:8c5e9507-cc50-437e-bd51-dfd5cbcd2ad8",
      "resource": {
        "resourceType": "Observation",
        "id": "8c5e9507-cc50-437e-bd51-dfd5cbcd2ad8",
        "meta": {
          "profile": [
            "http://hl7.eu/fhir/laboratory/StructureDefinition/Observation-resultslab-eu-lab"
          ]
        },
        "performer": [
          {
            "display": "The Central European Lab"
          }
        ],
        "category": [
          {
            "coding": [
              {
                "system": "http://terminology.hl7.org/CodeSystem/observation-category",
                "code": "laboratory"
              }
            ]
          }
        ],
        "code": {
          "coding": [
            {
              "code": "10834-0",
              "system": "http://loinc.org",
              "display": "Globulin [Mass/volume] in Serum by calculation"
            }
          ],
          "text": "Globulin [Mass/volume] in Serum by calculation"
        },
        "valueQuantity": {
          "system": "http://unitsofmeasure.org",
          "value": 2.9,
          "unit": "g/L",
          "code": "g/L"
        },
        "referenceRange": [
          {
            "low": {
              "value": 2.2,
              "code": "g/L",
              "system": "http://unitsofmeasure.org"
            }
          },
          {
            "high": {
              "value": 3.7,
              "code": "g/L",
              "system": "http://unitsofmeasure.org"
            }
          }
        ],
        "text": {
          "status": "generated",
          "div": "<div xmlns=\"http://www.w3.org/1999/xhtml\"><table class=\"hl7__eu__lab__report\"><tr><th>Test</th><th>02-Nov-2019</th><th>Reference&#xA0;Range</th><th>Unit</th></tr><tr><td>Globulin [Mass/volume] in Serum by calculation</td><td>2.9</td><td>2.2 - 3.7</td><td></td><td>g/L</td></tr></table></div>"
        },
        "status": "final",
        "subject": {
          "reference": "urn:uuid:1c898c29-ee0c-4589-a643-96011375d4ac",
          "display": "Ludmila Vávrová"
        },
        "effectiveDateTime": "2019-11-02T03:51:38Z",
        "specimen": {
          "reference": "urn:uuid:232d73bd-6b64-4f3f-ac5c-e15dfdfe30aa"
        }
      }
    },
    {
      "fullUrl": "urn:uuid:e1b4147e-2197-404a-a5a6-dd99f44ea2af",
      "resource": {
        "resourceType": "Observation",
        "id": "e1b4147e-2197-404a-a5a6-dd99f44ea2af",
        "meta": {
          "profile": [
            "http://hl7.eu/fhir/laboratory/StructureDefinition/Observation-resultslab-eu-lab"
          ]
        },
        "performer": [
          {
            "display": "The Central European Lab"
          }
        ],
        "category": [
          {
            "coding": [
              {
                "system": "http://terminology.hl7.org/CodeSystem/observation-category",
                "code": "laboratory"
              }
            ]
          }
        ],
        "code": {
          "coding": [
            {
              "code": "1975-2",
              "system": "http://loinc.org",
              "display": "Bilirubin.total [Mass/volume] in Serum or Plasma"
            }
          ],
          "text": "Bilirubin.total [Mass/volume] in Serum or Plasma"
        },
        "valueQuantity": {
          "system": "http://unitsofmeasure.org",
          "value": 0.9,
          "unit": "mg/dL",
          "code": "mg/dL"
        },
        "referenceRange": [
          {
            "low": {
              "value": 0.3,
              "code": "mg/dL",
              "system": "http://unitsofmeasure.org"
            }
          },
          {
            "high": {
              "value": 1.2,
              "code": "mg/dL",
              "system": "http://unitsofmeasure.org"
            }
          }
        ],
        "text": {
          "status": "generated",
          "div": "<div xmlns=\"http://www.w3.org/1999/xhtml\"><table class=\"hl7__eu__lab__report\"><tr><th>Test</th><th>02-Nov-2019</th><th>Reference&#xA0;Range</th><th>Unit</th></tr><tr><td>Bilirubin.total [Mass/volume] in Serum or Plasma</td><td>0.9</td><td>0.3 - 1.2</td><td></td><td>mg/dL</td></tr></table></div>"
        },
        "status": "final",
        "subject": {
          "reference": "urn:uuid:1c898c29-ee0c-4589-a643-96011375d4ac",
          "display": "Ludmila Vávrová"
        },
        "effectiveDateTime": "2019-11-02T03:51:38Z",
        "specimen": {
          "reference": "urn:uuid:1e7d0e29-92bd-4180-a568-072099b436d2"
        }
      }
    },
    {
      "fullUrl": "urn:uuid:b75e72c6-0ae8-4232-94d9-2edb37cc707d",
      "resource": {
        "resourceType": "Observation",
        "id": "b75e72c6-0ae8-4232-94d9-2edb37cc707d",
        "meta": {
          "profile": [
            "http://hl7.eu/fhir/laboratory/StructureDefinition/Observation-resultslab-eu-lab"
          ]
        },
        "performer": [
          {
            "display": "The Central European Lab"
          }
        ],
        "category": [
          {
            "coding": [
              {
                "system": "http://terminology.hl7.org/CodeSystem/observation-category",
                "code": "laboratory"
              }
            ]
          }
        ],
        "code": {
          "coding": [
            {
              "code": "6768-6",
              "system": "http://loinc.org",
              "display": "Alkaline phosphatase [Enzymatic activity/volume] in Serum or Plasma"
            }
          ],
          "text": "Alkaline phosphatase [Enzymatic activity/volume] in Serum or Plasma"
        },
        "valueQuantity": {
          "system": "http://unitsofmeasure.org",
          "value": 25.3,
          "unit": "U/L",
          "code": "U/L"
        },
        "referenceRange": [
          {
            "low": {
              "value": 40,
              "code": "U/L",
              "system": "http://unitsofmeasure.org"
            }
          },
          {
            "high": {
              "value": 130,
              "code": "U/L",
              "system": "http://unitsofmeasure.org"
            }
          }
        ],
        "interpretation": [
          {
            "coding": [
              {
                "code": "L",
                "system": "http://terminology.hl7.org/CodeSystem/v3-ObservationInterpretation",
                "display": "Low"
              }
            ]
          }
        ],
        "text": {
          "status": "generated",
          "div": "<div xmlns=\"http://www.w3.org/1999/xhtml\"><table class=\"hl7__eu__lab__report\"><tr><th>Test</th><th>02-Nov-2019</th><th>Reference&#xA0;Range</th><th>Unit</th></tr><tr><td>Alkaline phosphatase [Enzymatic activity/volume] in Serum or Plasma</td><td>25.3</td><td>40 - 130</td><td>L</td><td>U/L</td></tr></table></div>"
        },
        "status": "final",
        "subject": {
          "reference": "urn:uuid:1c898c29-ee0c-4589-a643-96011375d4ac",
          "display": "Ludmila Vávrová"
        },
        "effectiveDateTime": "2019-11-02T03:51:38Z",
        "specimen": {
          "reference": "urn:uuid:1e7d0e29-92bd-4180-a568-072099b436d2"
        }
      }
    },
    {
      "fullUrl": "urn:uuid:769c0b90-b8b0-4b96-87a9-80e28e497a7d",
      "resource": {
        "resourceType": "Observation",
        "id": "769c0b90-b8b0-4b96-87a9-80e28e497a7d",
        "meta": {
          "profile": [
            "http://hl7.eu/fhir/laboratory/StructureDefinition/Observation-resultslab-eu-lab"
          ]
        },
        "performer": [
          {
            "display": "The Central European Lab"
          }
        ],
        "category": [
          {
            "coding": [
              {
                "system": "http://terminology.hl7.org/CodeSystem/observation-category",
                "code": "laboratory"
              }
            ]
          }
        ],
        "code": {
          "coding": [
            {
              "code": "1742-6",
              "system": "http://loinc.org",
              "display": "Alanine aminotransferase [Enzymatic activity/volume] in Serum or Plasma"
            }
          ],
          "text": "Alanine aminotransferase [Enzymatic activity/volume] in Serum or Plasma"
        },
        "valueQuantity": {
          "system": "http://unitsofmeasure.org",
          "value": 37.4,
          "unit": "U/L",
          "code": "U/L"
        },
        "referenceRange": [
          {
            "low": {
              "value": 7,
              "code": "U/L",
              "system": "http://unitsofmeasure.org"
            }
          },
          {
            "high": {
              "value": 55,
              "code": "U/L",
              "system": "http://unitsofmeasure.org"
            }
          }
        ],
        "text": {
          "status": "generated",
          "div": "<div xmlns=\"http://www.w3.org/1999/xhtml\"><table class=\"hl7__eu__lab__report\"><tr><th>Test</th><th>02-Nov-2019</th><th>Reference&#xA0;Range</th><th>Unit</th></tr><tr><td>Alanine aminotransferase [Enzymatic activity/volume] in Serum or Plasma</td><td>37.4</td><td>7 - 55</td><td></td><td>U/L</td></tr></table></div>"
        },
        "status": "final",
        "subject": {
          "reference": "urn:uuid:1c898c29-ee0c-4589-a643-96011375d4ac",
          "display": "Ludmila Vávrová"
        },
        "effectiveDateTime": "2019-11-02T03:51:38Z",
        "specimen": {
          "reference": "urn:uuid:1e7d0e29-92bd-4180-a568-072099b436d2"
        }
      }
    },
    {
      "fullUrl": "urn:uuid:17bfc648-0b95-4dc4-931d-3eb675f12e7e",
      "resource": {
        "resourceType": "Observation",
        "id": "17bfc648-0b95-4dc4-931d-3eb675f12e7e",
        "meta": {
          "profile": [
            "http://hl7.eu/fhir/laboratory/StructureDefinition/Observation-resultslab-eu-lab"
          ]
        },
        "performer": [
          {
            "display": "The Central European Lab"
          }
        ],
        "category": [
          {
            "coding": [
              {
                "system": "http://terminology.hl7.org/CodeSystem/observation-category",
                "code": "laboratory"
              }
            ]
          }
        ],
        "code": {
          "coding": [
            {
              "code": "1920-8",
              "system": "http://loinc.org",
              "display": "Aspartate aminotransferase [Enzymatic activity/volume] in Serum or Plasma"
            }
          ],
          "text": "Aspartate aminotransferase [Enzymatic activity/volume] in Serum or Plasma"
        },
        "valueQuantity": {
          "system": "http://unitsofmeasure.org",
          "value": 33.2,
          "unit": "U/L",
          "code": "U/L"
        },
        "referenceRange": [
          {
            "low": {
              "value": 10,
              "code": "U/L",
              "system": "http://unitsofmeasure.org"
            }
          },
          {
            "high": {
              "value": 40,
              "code": "U/L",
              "system": "http://unitsofmeasure.org"
            }
          }
        ],
        "text": {
          "status": "generated",
          "div": "<div xmlns=\"http://www.w3.org/1999/xhtml\"><table class=\"hl7__eu__lab__report\"><tr><th>Test</th><th>02-Nov-2019</th><th>Reference&#xA0;Range</th><th>Unit</th></tr><tr><td>Aspartate aminotransferase [Enzymatic activity/volume] in Serum or Plasma</td><td>33.2</td><td>10 - 40</td><td></td><td>U/L</td></tr></table></div>"
        },
        "status": "final",
        "subject": {
          "reference": "urn:uuid:1c898c29-ee0c-4589-a643-96011375d4ac",
          "display": "Ludmila Vávrová"
        },
        "effectiveDateTime": "2019-11-02T03:51:38Z",
        "specimen": {
          "reference": "urn:uuid:1e7d0e29-92bd-4180-a568-072099b436d2"
        }
      }
    },
    {
      "fullUrl": "urn:uuid:eb5283ab-ad8b-4b26-84ec-c90b6f5e5e8d",
      "resource": {
        "resourceType": "Observation",
        "id": "eb5283ab-ad8b-4b26-84ec-c90b6f5e5e8d",
        "meta": {
          "profile": [
            "http://hl7.eu/fhir/laboratory/StructureDefinition/Observation-resultslab-eu-lab"
          ]
        },
        "performer": [
          {
            "display": "The Central European Lab"
          }
        ],
        "category": [
          {
            "coding": [
              {
                "system": "http://terminology.hl7.org/CodeSystem/observation-category",
                "code": "laboratory"
              }
            ]
          }
        ],
        "code": {
          "coding": [
            {
              "code": "2093-3",
              "system": "http://loinc.org",
              "display": "Cholesterol [Mass/volume] in Serum or Plasma"
            }
          ],
          "text": "Cholesterol [Mass/volume] in Serum or Plasma"
        },
        "valueQuantity": {
          "system": "http://unitsofmeasure.org",
          "value": 160.2,
          "unit": "mg/dL",
          "code": "mg/dL"
        },
        "referenceRange": [
          {
            "low": {
              "value": 125,
              "code": "mg/dL",
              "system": "http://unitsofmeasure.org"
            }
          },
          {
            "high": {
              "value": 200,
              "code": "mg/dL",
              "system": "http://unitsofmeasure.org"
            }
          }
        ],
        "text": {
          "status": "generated",
          "div": "<div xmlns=\"http://www.w3.org/1999/xhtml\"><table class=\"hl7__eu__lab__report\"><tr><th>Test</th><th>02-Nov-2019</th><th>Reference&#xA0;Range</th><th>Unit</th></tr><tr><td>Cholesterol [Mass/volume] in Serum or Plasma</td><td>160.2</td><td>125 - 200</td><td></td><td>mg/dL</td></tr></table></div>"
        },
        "status": "final",
        "subject": {
          "reference": "urn:uuid:1c898c29-ee0c-4589-a643-96011375d4ac",
          "display": "Ludmila Vávrová"
        },
        "effectiveDateTime": "2019-11-02T03:51:38Z",
        "specimen": {
          "reference": "urn:uuid:1e7d0e29-92bd-4180-a568-072099b436d2"
        }
      }
    },
    {
      "fullUrl": "urn:uuid:e0c2ca0f-ac1e-450f-961c-cb9a092b9300",
      "resource": {
        "resourceType": "Observation",
        "id": "e0c2ca0f-ac1e-450f-961c-cb9a092b9300",
        "meta": {
          "profile": [
            "http://hl7.eu/fhir/laboratory/StructureDefinition/Observation-resultslab-eu-lab"
          ]
        },
        "performer": [
          {
            "display": "The Central European Lab"
          }
        ],
        "category": [
          {
            "coding": [
              {
                "system": "http://terminology.hl7.org/CodeSystem/observation-category",
                "code": "laboratory"
              }
            ]
          }
        ],
        "code": {
          "coding": [
            {
              "code": "2571-8",
              "system": "http://loinc.org",
              "display": "Triglyceride [Mass/volume] in Serum or Plasma"
            }
          ],
          "text": "Triglyceride [Mass/volume] in Serum or Plasma"
        },
        "valueQuantity": {
          "system": "http://unitsofmeasure.org",
          "value": 114.5,
          "unit": "mg/dL",
          "code": "mg/dL"
        },
        "referenceRange": [
          {
            "low": {
              "value": 10,
              "code": "mg/dL",
              "system": "http://unitsofmeasure.org"
            }
          },
          {
            "high": {
              "value": 175,
              "code": "mg/dL",
              "system": "http://unitsofmeasure.org"
            }
          }
        ],
        "text": {
          "status": "generated",
          "div": "<div xmlns=\"http://www.w3.org/1999/xhtml\"><table class=\"hl7__eu__lab__report\"><tr><th>Test</th><th>02-Nov-2019</th><th>Reference&#xA0;Range</th><th>Unit</th></tr><tr><td>Triglyceride [Mass/volume] in Serum or Plasma</td><td>114.5</td><td>10 - 175</td><td></td><td>mg/dL</td></tr></table></div>"
        },
        "status": "final",
        "subject": {
          "reference": "urn:uuid:1c898c29-ee0c-4589-a643-96011375d4ac",
          "display": "Ludmila Vávrová"
        },
        "effectiveDateTime": "2019-11-02T03:51:38Z",
        "specimen": {
          "reference": "urn:uuid:1e7d0e29-92bd-4180-a568-072099b436d2"
        }
      }
    },
    {
      "fullUrl": "urn:uuid:9e62b0fd-3d58-4ffe-b59c-94c15ab56c3b",
      "resource": {
        "resourceType": "Observation",
        "id": "9e62b0fd-3d58-4ffe-b59c-94c15ab56c3b",
        "meta": {
          "profile": [
            "http://hl7.eu/fhir/laboratory/StructureDefinition/Observation-resultslab-eu-lab"
          ]
        },
        "performer": [
          {
            "display": "The Central European Lab"
          }
        ],
        "category": [
          {
            "coding": [
              {
                "system": "http://terminology.hl7.org/CodeSystem/observation-category",
                "code": "laboratory"
              }
            ]
          }
        ],
        "code": {
          "coding": [
            {
              "code": "18262-6",
              "system": "http://loinc.org",
              "display": "Cholesterol in LDL [Mass/volume] in Serum or Plasma by Direct assay"
            }
          ],
          "text": "Cholesterol in LDL [Mass/volume] in Serum or Plasma by Direct assay"
        },
        "valueQuantity": {
          "system": "http://unitsofmeasure.org",
          "value": 122.2,
          "unit": "mg/dL",
          "code": "mg/dL"
        },
        "referenceRange": [
          {
            "low": {
              "value": 0,
              "code": "mg/dL",
              "system": "http://unitsofmeasure.org"
            }
          },
          {
            "high": {
              "value": 130,
              "code": "mg/dL",
              "system": "http://unitsofmeasure.org"
            }
          }
        ],
        "text": {
          "status": "generated",
          "div": "<div xmlns=\"http://www.w3.org/1999/xhtml\"><table class=\"hl7__eu__lab__report\"><tr><th>Test</th><th>02-Nov-2019</th><th>Reference&#xA0;Range</th><th>Unit</th></tr><tr><td>Cholesterol in LDL [Mass/volume] in Serum or Plasma by Direct assay</td><td>122.2</td><td>0 - 130</td><td></td><td>mg/dL</td></tr></table></div>"
        },
        "status": "final",
        "subject": {
          "reference": "urn:uuid:1c898c29-ee0c-4589-a643-96011375d4ac",
          "display": "Ludmila Vávrová"
        },
        "effectiveDateTime": "2019-11-02T03:51:38Z",
        "specimen": {
          "reference": "urn:uuid:1e7d0e29-92bd-4180-a568-072099b436d2"
        }
      }
    },
    {
      "fullUrl": "urn:uuid:e0a2009e-081d-453a-af66-1abf7081f432",
      "resource": {
        "resourceType": "Observation",
        "id": "e0a2009e-081d-453a-af66-1abf7081f432",
        "meta": {
          "profile": [
            "http://hl7.eu/fhir/laboratory/StructureDefinition/Observation-resultslab-eu-lab"
          ]
        },
        "performer": [
          {
            "display": "The Central European Lab"
          }
        ],
        "category": [
          {
            "coding": [
              {
                "system": "http://terminology.hl7.org/CodeSystem/observation-category",
                "code": "laboratory"
              }
            ]
          }
        ],
        "code": {
          "coding": [
            {
              "code": "2085-9",
              "system": "http://loinc.org",
              "display": "Cholesterol in HDL [Mass/volume] in Serum or Plasma"
            }
          ],
          "text": "Cholesterol in HDL [Mass/volume] in Serum or Plasma"
        },
        "valueQuantity": {
          "system": "http://unitsofmeasure.org",
          "value": 34.1,
          "unit": "mg/dL",
          "code": "mg/dL"
        },
        "referenceRange": [
          {
            "low": {
              "value": 50,
              "code": "mg/dL",
              "system": "http://unitsofmeasure.org"
            }
          },
          {
            "high": {
              "value": 100,
              "code": "mg/dL",
              "system": "http://unitsofmeasure.org"
            }
          }
        ],
        "interpretation": [
          {
            "coding": [
              {
                "code": "L",
                "system": "http://terminology.hl7.org/CodeSystem/v3-ObservationInterpretation",
                "display": "Low"
              }
            ]
          }
        ],
        "text": {
          "status": "generated",
          "div": "<div xmlns=\"http://www.w3.org/1999/xhtml\"><table class=\"hl7__eu__lab__report\"><tr><th>Test</th><th>02-Nov-2019</th><th>Reference&#xA0;Range</th><th>Unit</th></tr><tr><td>Cholesterol in HDL [Mass/volume] in Serum or Plasma</td><td>34.1</td><td>50 - 100</td><td>L</td><td>mg/dL</td></tr></table></div>"
        },
        "status": "final",
        "subject": {
          "reference": "urn:uuid:1c898c29-ee0c-4589-a643-96011375d4ac",
          "display": "Ludmila Vávrová"
        },
        "effectiveDateTime": "2019-11-02T03:51:38Z",
        "specimen": {
          "reference": "urn:uuid:1e7d0e29-92bd-4180-a568-072099b436d2"
        }
      }
    },
    {
      "fullUrl": "urn:uuid:af0b24e9-74c4-4168-b357-c290cab593ac",
      "resource": {
        "resourceType": "Device",
        "id": "af0b24e9-74c4-4168-b357-c290cab593ac",
        "deviceName": [
          {
            "name": "SYNDERAI Synthetic Generator",
            "type": "manufacturer-name"
          }
        ],
        "version": [
          {
            "value": "5.0"
          }
        ],
        "text": {
          "status": "generated",
          "div": "<div xmlns=\"http://www.w3.org/1999/xhtml\">SYNDERAI Synthetic Generator v5.0</div>"
        },
        "status": "active\"",
        "distinctIdentifier": "synderai-generator-50",
        "manufacturer": "SYNDERAI Project"
      }
    },
    {
      "fullUrl": "urn:uuid:6db2d236-b302-4399-8c04-71ab5c6aed1e",
      "resource": {
        "resourceType": "Provenance",
        "id": "6db2d236-b302-4399-8c04-71ab5c6aed1e",
        "target": [
          {
            "reference": "Patient/1c898c29-ee0c-4589-a643-96011375d4ac"
          },
          {
            "reference": "Bundle/2a92a6b2-788e-4ac2-8819-216055db8c94"
          },
          {
            "reference": "Composition/465fd880-1441-4671-8b5e-2bf70baeb1f0"
          },
          {
            "reference": "PractitionerRole/3c0820aa-36a1-4993-ab75-a27677668bc8"
          },
          {
            "reference": "Practitioner/f617fa67-8f93-4947-8b9f-c411420825be"
          },
          {
            "reference": "PractitionerRole/1461576d-d701-4aa4-805d-e8a98fbed02e"
          },
          {
            "reference": "Organization/158dcbec-abfb-4dd0-9531-383968aeeeba"
          }
        ],
        "activity": {
          "text": "Synthetic Example Data Generation"
        },
        "policy": [
          "https://synderai.net/synderai-synthetic-data-policy"
        ],
        "agent": [
          {
            "type": {
              "text": "author"
            },
            "who": {
              "reference": "Device/af0b24e9-74c4-4168-b357-c290cab593ac"
            }
          }
        ],
        "reason": [
          {
            "text": "Interoperability Testing and Training (non-clinical use)"
          }
        ],
        "text": {
          "status": "generated",
          "div": "<div xmlns=\"http://www.w3.org/1999/xhtml\">Provenance for SYNDERAI Synthetic Example Data Resource</div>"
        },
        "recorded": "2019-11-02T04:51:38Z"
      }
    },
    {
      "fullUrl": "urn:uuid:3c0820aa-36a1-4993-ab75-a27677668bc8",
      "resource": {
        "resourceType": "PractitionerRole",
        "id": "3c0820aa-36a1-4993-ab75-a27677668bc8",
        "meta": {
          "profile": [
            "http://hl7.eu/fhir/base/StructureDefinition/practitionerRole-eu"
          ]
        },
        "text": {
          "status": "generated",
          "div": "<div xmlns=\"http://www.w3.org/1999/xhtml\">Laboratory Role Id: 3c0820aa-36a1-4993-ab75-a27677668bc8</div>"
        },
        "practitioner": {
          "reference": "urn:uuid:f617fa67-8f93-4947-8b9f-c411420825be"
        }
      }
    },
    {
      "fullUrl": "urn:uuid:f617fa67-8f93-4947-8b9f-c411420825be",
      "resource": {
        "resourceType": "Practitioner",
        "id": "f617fa67-8f93-4947-8b9f-c411420825be",
        "meta": {
          "profile": [
            "http://hl7.eu/fhir/base/StructureDefinition/practitioner-eu"
          ]
        },
        "identifier": [
          {
            "assigner": {
              "display": "HL7 Europe"
            },
            "system": "urn:oid:2.16.840.1.113883.2.51.999",
            "value": "bf36da40-941e-41be-9c8e-2a38703ccc6d"
          }
        ],
        "name": [
          {
            "prefix": [
              "dr"
            ],
            "given": [
              "Ex"
            ],
            "family": "Ample"
          }
        ],
        "address": [
          {
            "line": [
              "Laboratoire Central Européenne",
              "Boulevard du Jardin Botanique 32"
            ],
            "postalCode": "1000",
            "city": "Brussels",
            "country": "Belgium"
          }
        ],
        "text": {
          "status": "generated",
          "div": "<div xmlns=\"http://www.w3.org/1999/xhtml\">Laboratory: Laboratoire Central Européenne, 1000 Brussels, Belgium</div>"
        }
      }
    }
  ],
  "type": "document",
  "timestamp": "2019-11-02T04:51:38Z"
}
