<Bundle xmlns="http://hl7.org/fhir">
   <id value="527a4986-6767-488e-9924-37ec5ed7afb0"/>
   <meta>
      <profile value="http://hl7.eu/fhir/laboratory/StructureDefinition/Bundle-eu-lab"/>
   </meta>
   <identifier>
      <system value="urn:oid:2.16.840.1.113883.2.51.999"/>
      <value value="ae16ca5e-489e-45f7-9311-904f59e66ca6"/>
      <assigner>
         <display value="HL7 Europe"/>
      </assigner>
   </identifier>
   <type value="document"/>
   <timestamp value="2024-02-01T19:51:27Z"/>
   <entry>
      <fullUrl value="urn:uuid:4076c542-a12f-4e68-8881-dd1b04055771"/>
      <resource>
         <Composition>
            <id value="4076c542-a12f-4e68-8881-dd1b04055771"/>
            <meta>
               <profile value="http://hl7.eu/fhir/laboratory/StructureDefinition/Composition-eu-lab"/>
            </meta>
            <identifier>
               <system value="urn:oid:2.16.840.1.113883.2.51.999"/>
               <value value="9fd0351c-6ffc-41ee-b8d4-d22ab5385b9f"/>
               <assigner>
                  <display value="HL7 Europe"/>
               </assigner>
            </identifier>
            <status value="final"/>
            <type>
               <coding>
                  <system value="http://loinc.org"/>
                  <code value="11502-2"/>
                  <display value="Laboratory report"/>
               </coding>
               <text value="Laboratory Report"/>
            </type>
            <category>
               <coding>
                  <system value="http://loinc.org"/>
                  <code value="26436-6"/>
                  <display value="Laboratory studies (set)"/>
               </coding>
            </category>
            <subject>
               <reference value="urn:uuid:21672133-9967-474a-86dd-4f9e98899a68"/>
               <display value="Vincenza Porzio"/>
            </subject>
            <date value="2024-02-01T19:51:27Z"/>
            <author>
               <reference value="urn:uuid:0eaf8a53-f1bc-4b7d-957d-91ffb7cd894f"/>
            </author>
            <title value="Laboratory Report"/>
            <confidentiality value="N"/>
            <section>
               <title value="Laboratory Report"/>
               <code>
                  <coding>
                     <system value="http://loinc.org"/>
                     <code value="26436-6"/>
                     <display value="Laboratory studies (set)"/>
                  </coding>
                  <text value="Laboratory studies"/>
               </code>
               <section>
                  <title value="Chemistry"/>
                  <code>
                     <coding>
                        <system value="http://loinc.org"/>
                        <code value="$18719-5"/>
                        <display value="Chemistry studies (set)"/>
                     </coding>
                     <text value="Chemistry"/>
                  </code>
                  <text>
                     <status value="generated"/>
                     <div xmlns="http://www.w3.org/1999/xhtml">
                        <h3>Chemistry</h3>
                        <table class="hl7__eu__lab__report">
                           <thead>
                              <tr>
                                 <th>Test</th>
                                 <th>01-FEB-2024</th>
                                 <th>Reference Range</th>
                                 <th>Unit</th>
                              </tr>
                           </thead>
                           <tbody>
                              <tr>
                                 <td>Hemoglobin A1c/Hemoglobin.total in Blood</td>
                                 <td>
                                    <strong>6.1 H</strong>
                                 </td>
                                 <td>4 - 6</td>
                                 <td>%</td>
                              </tr>
                           </tbody>
                        </table>
                     </div>
                  </text>
                  <entry>
                     <reference value="urn:uuid:134c1b75-39d8-47a2-bfea-1679695987d5"/>
                  </entry>
               </section>
            </section>
            <section>
               <title value="Annotation comment"/>
               <code>
                  <coding>
                     <system value="http://loinc.org"/>
                     <code value="48767-8"/>
                     <display value="Annotation comment"/>
                  </coding>
               </code>
               <text>
                  <status value="generated"/>
                  <div xmlns="http://www.w3.org/1999/xhtml">
                     <h3>Annotation</h3>
                     <table class="hl7__eu__lab__report">
                        <tr>
                           <th>Conclusion and Recommendations based on this report and previous findings known to us</th>
                        </tr>
                        <tr>
                           <td>The patient"s HbA1c is mildly elevated at 6.1%, indicating impaired glucose regulation and possible prediabetes or early diabetes. Further clinical evaluation and monitoring of glycemic control are recommended. No other abnormalities reported.</td>
                        </tr>
                     </table>
                  </div>
               </text>
            </section>
         </Composition>
      </resource>
   </entry>
   <entry>
      <fullUrl value="urn:uuid:a2d5ffe4-88c8-4a7f-a5ef-ed6eee90f564"/>
      <resource>
         <DiagnosticReport>
            <id value="a2d5ffe4-88c8-4a7f-a5ef-ed6eee90f564"/>
            <meta>
               <profile value="http://hl7.eu/fhir/laboratory/StructureDefinition/DiagnosticReport-eu-lab"/>
            </meta>
            <extension url="http://hl7.org/fhir/5.0/StructureDefinition/extension-DiagnosticReport.composition">
               <valueReference>
                  <reference value="urn:uuid:9fd0351c-6ffc-41ee-b8d4-d22ab5385b9f"/>
               </valueReference>
            </extension>
            <identifier>
               <system value="urn:oid:2.16.840.1.113883.2.51.999"/>
               <value value="c88e8f88-c3f5-4e30-b9d6-c2cc205c12ed"/>
               <assigner>
                  <display value="HL7 Europe"/>
               </assigner>
            </identifier>
            <status value="registered"/>
            <category>
               <coding>
                  <system value="http://loinc.org"/>
                  <code value="26436-6"/>
                  <display value="Laboratory studies (set)"/>
               </coding>
            </category>
            <code>
               <coding>
                  <system value="http://loinc.org"/>
                  <code value="11502-2"/>
                  <display value="Laboratory report"/>
               </coding>
            </code>
            <subject>
               <reference value="urn:uuid:21672133-9967-474a-86dd-4f9e98899a68"/>
               <display value="Vincenza Porzio"/>
            </subject>
            <specimen>
               <reference value="urn:uuid:54b09e0f-fd0d-4ea5-98d1-2c9cedf532cd"/>
            </specimen>
            <result>
               <reference value="urn:uuid:134c1b75-39d8-47a2-bfea-1679695987d5"/>
            </result>
         </DiagnosticReport>
      </resource>
   </entry>
   <entry>
      <fullUrl value="urn:uuid:21672133-9967-474a-86dd-4f9e98899a68"/>
      <resource>
         <Patient>
            <id value="21672133-9967-474a-86dd-4f9e98899a68"/>
            <meta>
               <profile value="http://hl7.eu/fhir/base/StructureDefinition/patient-eu-core"/>
               <security>
                  <system value="http://terminology.hl7.org/CodeSystem/v3-ActReason"/>
                  <code value="HTEST"/>
               </security>
               <security>
                  <system value="http://terminology.hl7.org/CodeSystem/v3-ActReason"/>
                  <code value="TRAIN"/>
               </security>
               <tag>
                  <system value="https://synderai.net/fhir/CodeSystem/tags"/>
                  <code value="synthetic"/>
                  <display value="SYNDERAI Synthetic data"/>
               </tag>
            </meta>
            <text>
               <status value="generated"/>
               <div xmlns="http://www.w3.org/1999/xhtml">
                  <table class="hl7__ips">
                     <tr>
                        <td>Vincenza Porzio</td>
                        <td>female</td>
                        <td>13-Sep-1965</td>
                     </tr>
                  </table>
               </div>
            </text>
            <extension url="http://hl7.org/fhir/StructureDefinition/patient-nationality">
               <valueCodeableConcept>
                  <coding>
                     <system value="http://hl7.org/fhir/ValueSet/country"/>
                     <code value="IT"/>
                  </coding>
               </valueCodeableConcept>
            </extension>
            <identifier>
               <type>
                  <coding>
                     <system value="http://terminology.hl7.org/CodeSystem/v2-0203"/>
                     <code value="PT"/>
                  </coding>
               </type>
               <system value="http://ec.europa.eu/identifier/eci"/>
               <value value="9988-341158-1"/>
            </identifier>
            <identifier>
               <type>
                  <coding>
                     <system value="http://terminology.hl7.org/CodeSystem/v2-0203"/>
                     <code value="MR"/>
                  </coding>
               </type>
               <system value="http://local.setting.eu/identifier"/>
               <value value="559a1acd-87c3-5b56-0345-4eaff6c5aa0a"/>
            </identifier>
            <name>
               <family value="Porzio"/>
            </name>
            <name>
               <given value="Vincenza"/>
            </name>
            <name>
               <text value="Vincenza Porzio"/>
            </name>
            <telecom>
               <system value="phone"/>
               <value value="041007473"/>
            </telecom>
            <gender value="female"/>
            <birthDate value="1965-09-13"/>
            <address>
               <use value="home"/>
               <type value="physical"/>
               <line value="Piazza Allegra, 720"/>
               <city value="Grumolo Pedemonte"/>
               <postalCode value="36040"/>
               <country value="Italy"/>
            </address>
         </Patient>
      </resource>
   </entry>
   <entry>
      <fullUrl value="urn:uuid:177fbad0-5549-47f3-8d78-32a557d1e821"/>
      <resource>
         <ServiceRequest>
            <id value="177fbad0-5549-47f3-8d78-32a557d1e821"/>
            <meta>
               <profile value="http://hl7.eu/fhir/laboratory/StructureDefinition/ServiceRequest-eu-lab"/>
            </meta>
            <identifier>
               <system value="http://example.org"/>
               <value value="54fb776e-12b8-4586-a5ab-c0fc3663046c"/>
            </identifier>
            <status value="active"/>
            <intent value="order"/>
            <code>
               <coding>
                  <system value="http://snomed.info/sct"/>
                  <code value="108252007"/>
                  <display value="Laboratory procedure"/>
               </coding>
            </code>
            <subject>
               <reference value="urn:uuid:21672133-9967-474a-86dd-4f9e98899a68"/>
               <display value="Vincenza Porzio"/>
            </subject>
            <requester>
               <reference value="urn:uuid:74ae2051-cabe-4be1-8f07-6ef1c86c480d"/>
            </requester>
            <reasonCode>
               <coding>
                  <system value="http://snomed.info/sct"/>
                  <code value="40055000"/>
                  <display value="Chronic sinusitis"/>
               </coding>
            </reasonCode>
            <reasonCode>
               <coding>
                  <system value="http://snomed.info/sct"/>
                  <code value="15777000"/>
                  <display value="Prediabetes"/>
               </coding>
            </reasonCode>
            <reasonCode>
               <coding>
                  <system value="http://snomed.info/sct"/>
                  <code value="239873007"/>
                  <display value="Osteoarthritis of knee"/>
               </coding>
            </reasonCode>
            <reasonCode>
               <coding>
                  <system value="http://snomed.info/sct"/>
                  <code value="6525002"/>
                  <display value="Dependent drug abuse"/>
               </coding>
            </reasonCode>
            <reasonCode>
               <coding>
                  <system value="http://snomed.info/sct"/>
                  <code value="196416002"/>
                  <display value="Impacted molars"/>
               </coding>
            </reasonCode>
            <reasonCode>
               <coding>
                  <system value="http://snomed.info/sct"/>
                  <code value="124171000119105"/>
                  <display value="Chronic intractable migraine without aura"/>
               </coding>
            </reasonCode>
            <specimen>
               <reference value="urn:uuid:54b09e0f-fd0d-4ea5-98d1-2c9cedf532cd"/>
            </specimen>
         </ServiceRequest>
      </resource>
   </entry>
   <entry>
      <fullUrl value="urn:uuid:74ae2051-cabe-4be1-8f07-6ef1c86c480d"/>
      <resource>
         <PractitionerRole>
            <id value="74ae2051-cabe-4be1-8f07-6ef1c86c480d"/>
            <meta>
               <profile value="http://hl7.eu/fhir/base/StructureDefinition/practitionerRole-eu"/>
            </meta>
            <text>
               <status value="generated"/>
               <div xmlns="http://www.w3.org/1999/xhtml">Provider Role Id: 74ae2051-cabe-4be1-8f07-6ef1c86c480d</div>
            </text>
            <organization>
               <reference value="urn:uuid:5b881bd5-b9b0-4e45-ac3d-472622e7ee82"/>
            </organization>
         </PractitionerRole>
      </resource>
   </entry>
   <entry>
      <fullUrl value="urn:uuid:5b881bd5-b9b0-4e45-ac3d-472622e7ee82"/>
      <resource>
         <Organization>
            <id value="5b881bd5-b9b0-4e45-ac3d-472622e7ee82"/>
            <meta>
               <profile value="http://hl7.eu/fhir/base/StructureDefinition/organization-eu"/>
            </meta>
            <text>
               <status value="generated"/>
               <div xmlns="http://www.w3.org/1999/xhtml">Provider Organization: Villa Margherita</div>
            </text>
            <identifier>
               <system value="urn:oid:2.16.840.1.113883.2.51.999"/>
               <value value="79900341-675c-4226-8bf7-bed7011caca7"/>
               <assigner>
                  <display value="HL7 Europe"/>
               </assigner>
            </identifier>
            <name value="Villa Margherita"/>
            <address>
               <country value="Italy"/>
            </address>
         </Organization>
      </resource>
   </entry>
   <entry>
      <fullUrl value="urn:uuid:54b09e0f-fd0d-4ea5-98d1-2c9cedf532cd"/>
      <resource>
         <Specimen>
            <id value="54b09e0f-fd0d-4ea5-98d1-2c9cedf532cd"/>
            <meta>
               <profile value="http://hl7.eu/fhir/laboratory/StructureDefinition/Specimen-eu-lab"/>
            </meta>
            <text>
               <status value="generated"/>
               <div xmlns="http://www.w3.org/1999/xhtml">
                  <table class="hl7__eu__lab__report">
                     <tr>
                        <th>Specimen</th>
                        <th>Collection Date</th>
                     </tr>
                     <tr>
                        <td>Whole blood specimen (specimen)</td>
                        <td>
                           <span class="nb">01-Feb-2024</span>
                        </td>
                     </tr>
                  </table>
               </div>
            </text>
            <type>
               <coding>
                  <system value="http://snomed.info/sct"/>
                  <code value="258580003"/>
                  <display value="Whole blood specimen (specimen)"/>
               </coding>
            </type>
            <collection>
               <collectedDateTime value="2024-02-01"/>
            </collection>
         </Specimen>
      </resource>
   </entry>
   <entry>
      <fullUrl value="urn:uuid:134c1b75-39d8-47a2-bfea-1679695987d5"/>
      <resource>
         <Observation>
            <id value="134c1b75-39d8-47a2-bfea-1679695987d5"/>
            <meta>
               <profile value="http://hl7.eu/fhir/laboratory/StructureDefinition/Observation-resultslab-eu-lab"/>
            </meta>
            <text>
               <status value="generated"/>
               <div xmlns="http://www.w3.org/1999/xhtml">
                  <table class="hl7__eu__lab__report">
                     <tr>
                        <th>Test</th>
                        <th>01-Feb-2024</th>
                        <th>Reference Range</th>
                        <th>Unit</th>
                     </tr>
                     <tr>
                        <td>Hemoglobin A1c/Hemoglobin.total in Blood</td>
                        <td>6.1</td>
                        <td>4 - 6</td>
                        <td>H</td>
                        <td>%</td>
                     </tr>
                  </table>
               </div>
            </text>
            <status value="final"/>
            <category>
               <coding>
                  <system value="http://terminology.hl7.org/CodeSystem/observation-category"/>
                  <code value="laboratory"/>
               </coding>
            </category>
            <code>
               <coding>
                  <system value="http://loinc.org"/>
                  <code value="4548-4"/>
                  <display value="Hemoglobin A1c/Hemoglobin.total in Blood"/>
               </coding>
               <text value="Hemoglobin A1c/Hemoglobin.total in Blood"/>
            </code>
            <subject>
               <reference value="urn:uuid:21672133-9967-474a-86dd-4f9e98899a68"/>
               <display value="Vincenza Porzio"/>
            </subject>
            <effectiveDateTime value="2024-02-01T18:51:27Z"/>
            <performer>
               <display value="The Central European Lab"/>
            </performer>
            <valueQuantity>
               <value value="6.1"/>
               <unit value="%"/>
               <system value="http://unitsofmeasure.org"/>
               <code value="%"/>
            </valueQuantity>
            <interpretation>
               <coding>
                  <system value="http://terminology.hl7.org/CodeSystem/v3-ObservationInterpretation"/>
                  <code value="H"/>
                  <display value="High"/>
               </coding>
            </interpretation>
            <specimen>
               <reference value="urn:uuid:54b09e0f-fd0d-4ea5-98d1-2c9cedf532cd"/>
            </specimen>
            <referenceRange>
               <low>
                  <value value="4"/>
                  <system value="http://unitsofmeasure.org"/>
                  <code value="%"/>
               </low>
            </referenceRange>
            <referenceRange>
               <high>
                  <value value="6"/>
                  <system value="http://unitsofmeasure.org"/>
                  <code value="%"/>
               </high>
            </referenceRange>
         </Observation>
      </resource>
   </entry>
   <entry>
      <fullUrl value="urn:uuid:4f04671d-2289-4fdb-bebf-c57da84bae13"/>
      <resource>
         <Device>
            <id value="4f04671d-2289-4fdb-bebf-c57da84bae13"/>
            <text>
               <status value="generated"/>
               <div xmlns="http://www.w3.org/1999/xhtml">SYNDERAI Synthetic Generator v5.0</div>
            </text>
            <status value="active&#34;"/>
            <distinctIdentifier value="synderai-generator-50"/>
            <manufacturer value="SYNDERAI Project"/>
            <deviceName>
               <name value="SYNDERAI Synthetic Generator"/>
               <type value="manufacturer-name"/>
            </deviceName>
            <version>
               <value value="5.0"/>
            </version>
         </Device>
      </resource>
   </entry>
   <entry>
      <fullUrl value="urn:uuid:ecbdc8c3-264e-46dd-96cc-8f05caa2488b"/>
      <resource>
         <Provenance>
            <id value="ecbdc8c3-264e-46dd-96cc-8f05caa2488b"/>
            <text>
               <status value="generated"/>
               <div xmlns="http://www.w3.org/1999/xhtml">Provenance for SYNDERAI Synthetic Example Data Resource</div>
            </text>
            <target>
               <reference value="Patient/21672133-9967-474a-86dd-4f9e98899a68"/>
            </target>
            <target>
               <reference value="Bundle/527a4986-6767-488e-9924-37ec5ed7afb0"/>
            </target>
            <target>
               <reference value="Composition/4076c542-a12f-4e68-8881-dd1b04055771"/>
            </target>
            <target>
               <reference value="PractitionerRole/0eaf8a53-f1bc-4b7d-957d-91ffb7cd894f"/>
            </target>
            <target>
               <reference value="Practitioner/2d3b2e59-5933-437a-a6fb-d166178e9ae5"/>
            </target>
            <target>
               <reference value="PractitionerRole/74ae2051-cabe-4be1-8f07-6ef1c86c480d"/>
            </target>
            <target>
               <reference value="Organization/5b881bd5-b9b0-4e45-ac3d-472622e7ee82"/>
            </target>
            <recorded value="2024-02-01T19:51:27Z"/>
            <policy value="https://synderai.net/synderai-synthetic-data-policy"/>
            <reason>
               <text value="Interoperability Testing and Training (non-clinical use)"/>
            </reason>
            <activity>
               <text value="Synthetic Example Data Generation"/>
            </activity>
            <agent>
               <type>
                  <text value="author"/>
               </type>
               <who>
                  <reference value="Device/4f04671d-2289-4fdb-bebf-c57da84bae13"/>
               </who>
            </agent>
         </Provenance>
      </resource>
   </entry>
   <entry>
      <fullUrl value="urn:uuid:0eaf8a53-f1bc-4b7d-957d-91ffb7cd894f"/>
      <resource>
         <PractitionerRole>
            <id value="0eaf8a53-f1bc-4b7d-957d-91ffb7cd894f"/>
            <meta>
               <profile value="http://hl7.eu/fhir/base/StructureDefinition/practitionerRole-eu"/>
            </meta>
            <text>
               <status value="generated"/>
               <div xmlns="http://www.w3.org/1999/xhtml">Laboratory Role Id: 0eaf8a53-f1bc-4b7d-957d-91ffb7cd894f</div>
            </text>
            <practitioner>
               <reference value="urn:uuid:2d3b2e59-5933-437a-a6fb-d166178e9ae5"/>
            </practitioner>
         </PractitionerRole>
      </resource>
   </entry>
   <entry>
      <fullUrl value="urn:uuid:2d3b2e59-5933-437a-a6fb-d166178e9ae5"/>
      <resource>
         <Practitioner>
            <id value="2d3b2e59-5933-437a-a6fb-d166178e9ae5"/>
            <meta>
               <profile value="http://hl7.eu/fhir/base/StructureDefinition/practitioner-eu"/>
            </meta>
            <text>
               <status value="generated"/>
               <div xmlns="http://www.w3.org/1999/xhtml">Laboratory: Laboratoire Central Européenne, 1000 Brussels, Belgium</div>
            </text>
            <identifier>
               <system value="urn:oid:2.16.840.1.113883.2.51.999"/>
               <value value="68dea6ba-0cab-480a-b3db-7f1c1b674d96"/>
               <assigner>
                  <display value="HL7 Europe"/>
               </assigner>
            </identifier>
            <name>
               <family value="Ample"/>
               <given value="Ex"/>
               <prefix value="dr"/>
            </name>
            <address>
               <line value="Laboratoire Central Européenne"/>
               <line value="Boulevard du Jardin Botanique 32"/>
               <city value="Brussels"/>
               <postalCode value="1000"/>
               <country value="Belgium"/>
            </address>
         </Practitioner>
      </resource>
   </entry>
</Bundle>