{
  "resourceType": "Bundle",
  "id": "53b93d93-93ec-4fe8-9622-33b40f7ab2b0",
  "meta": {
    "profile": [
      "http://hl7.eu/fhir/laboratory/StructureDefinition/Bundle-eu-lab"
    ]
  },
  "identifier": {
    "assigner": {
      "display": "HL7 Europe"
    },
    "system": "urn:oid:2.16.840.1.113883.2.51.999",
    "value": "a9eb0929-c9c9-484f-b976-be0618cdb631"
  },
  "entry": [
    {
      "fullUrl": "urn:uuid:c8ddf14d-6c88-401b-8e2e-a568184d7978",
      "resource": {
        "resourceType": "Composition",
        "id": "c8ddf14d-6c88-401b-8e2e-a568184d7978",
        "meta": {
          "profile": [
            "http://hl7.eu/fhir/laboratory/StructureDefinition/Composition-eu-lab"
          ]
        },
        "identifier": {
          "assigner": {
            "display": "HL7 Europe"
          },
          "system": "urn:oid:2.16.840.1.113883.2.51.999",
          "value": "2f37db9c-f87f-4a62-bdde-4f46bdb6139b"
        },
        "author": [
          {
            "reference": "urn:uuid:bfbdd505-fdb5-4e6f-b913-0488eb49af10"
          }
        ],
        "category": [
          {
            "coding": [
              {
                "code": "26436-6",
                "system": "http://loinc.org",
                "display": "Laboratory studies (set)"
              }
            ]
          }
        ],
        "type": {
          "coding": [
            {
              "code": "11502-2",
              "system": "http://loinc.org",
              "display": "Laboratory report"
            }
          ],
          "text": "Laboratory Report"
        },
        "section": [
          {
            "code": {
              "coding": [
                {
                  "code": "26436-6",
                  "system": "http://loinc.org",
                  "display": "Laboratory studies (set)"
                }
              ],
              "text": "Laboratory studies"
            },
            "section": [
              {
                "code": {
                  "coding": [
                    {
                      "code": "$18719-5",
                      "system": "http://loinc.org",
                      "display": "Chemistry studies (set)"
                    }
                  ],
                  "text": "Chemistry"
                },
                "entry": [
                  {
                    "reference": "urn:uuid:c5d5f211-7985-4f32-ad47-39cfc5077b6f"
                  },
                  {
                    "reference": "urn:uuid:1126ec50-608a-48d2-b35d-523d1a6f7df2"
                  },
                  {
                    "reference": "urn:uuid:12421fa1-a6e2-42aa-adc3-3829d6404967"
                  },
                  {
                    "reference": "urn:uuid:087aef1f-43e2-4cde-882f-d216096aab5f"
                  },
                  {
                    "reference": "urn:uuid:34f32635-75b8-4fb8-9967-83d10a8539a7"
                  },
                  {
                    "reference": "urn:uuid:2c104a33-2f7a-47b9-827e-97e15e09db7a"
                  },
                  {
                    "reference": "urn:uuid:aea211ac-ed5a-42ad-bab9-ea5f3fc555bf"
                  },
                  {
                    "reference": "urn:uuid:8b530841-6568-44d1-aad9-2529cf2743c1"
                  },
                  {
                    "reference": "urn:uuid:38bfd7de-ea5a-417e-83e4-cee9a918cb4b"
                  },
                  {
                    "reference": "urn:uuid:5f93b100-1422-4636-aae1-a492b0eacfee"
                  },
                  {
                    "reference": "urn:uuid:cf21d125-613b-4ce1-b9d9-6098a1c46281"
                  },
                  {
                    "reference": "urn:uuid:52920cd0-423b-4275-ae0c-c79ad6cd30ca"
                  },
                  {
                    "reference": "urn:uuid:40c50a30-e149-4356-a5c9-5cd8f28dbaa6"
                  },
                  {
                    "reference": "urn:uuid:236e0873-e424-4bb9-9ab2-3b754e1435c8"
                  },
                  {
                    "reference": "urn:uuid:c15d2d3b-6a92-43f7-bef7-410eeaa0cacd"
                  },
                  {
                    "reference": "urn:uuid:68b6ffaa-ff30-4032-ae76-a98ae79e0cd1"
                  },
                  {
                    "reference": "urn:uuid:aa7f87ac-cc25-4fa8-b262-cedc99dda5e8"
                  },
                  {
                    "reference": "urn:uuid:82ee9a45-85d9-4408-82f0-44c9aed260a8"
                  }
                ],
                "text": {
                  "status": "generated",
                  "div": "<div xmlns=\"http://www.w3.org/1999/xhtml\"><h3>Chemistry</h3><table class=\"hl7__eu__lab__report\"><thead><tr><th>Test</th><th>04-JUN-2021</th><th>Reference&#xA0;Range</th><th>Unit</th></tr></thead><tbody><tr><td>Glucose [Mass/volume] in Serum or Plasma</td><td>83.2</td><td>70 - 140</td><td>mg/dL</td></tr><tr><td>Urea nitrogen [Mass/volume] in Serum or Plasma</td><td>12.2</td><td>7 - 20</td><td>mg/dL</td></tr><tr><td>Creatinine [Mass/volume] in Serum or Plasma</td><td><strong>2.1 H</strong></td><td>0.9 - 1.3</td><td>mg/dL</td></tr><tr><td>Calcium [Mass/volume] in Serum or Plasma</td><td>9.5</td><td>8.5 - 10.5</td><td>mg/dL</td></tr><tr><td>Sodium [Moles/volume] in Serum or Plasma</td><td>141.2</td><td>135 - 145</td><td>mmol/L</td></tr><tr><td>Potassium [Moles/volume] in Serum or Plasma</td><td>4.1</td><td>3.5 - 5.3</td><td>mmol/L</td></tr><tr><td>Chloride [Moles/volume] in Serum or Plasma</td><td><strong>108.6 H</strong></td><td>98 - 107</td><td>mmol/L</td></tr><tr><td>Carbon dioxide, total [Moles/volume] in Serum or Plasma</td><td>26.1</td><td>22 - 33</td><td>mmol/L</td></tr><tr><td>Ketones [Presence] in Urine by Test strip</td><td>Urine ketone test = ++</td><td></td><td></td></tr><tr><td>Hemoglobin A1c/Hemoglobin.total in Blood</td><td><strong>3.1 L</strong></td><td>4.3 - 6</td><td>%</td></tr><tr><td>Glucose [Mass/volume] in Blood</td><td>83.2</td><td>70 - 140</td><td>mg/dL</td></tr><tr><td>Urea nitrogen [Mass/volume] in Blood</td><td>12.2</td><td>7 - 20</td><td>mg/dL</td></tr><tr><td>Creatinine [Mass/volume] in Blood</td><td><strong>3.8 H</strong></td><td>0.9 - 1.3</td><td>mg/dL</td></tr><tr><td>Calcium [Mass/volume] in Blood</td><td>9.5</td><td>8.5 - 10.5</td><td>mg/dL</td></tr><tr><td>Sodium [Moles/volume] in Blood</td><td>141.2</td><td>135 - 145</td><td>mmol/L</td></tr><tr><td>Potassium [Moles/volume] in Blood</td><td>4.1</td><td>3.5 - 5.1</td><td>mmol/L</td></tr><tr><td>Chloride [Moles/volume] in Blood</td><td><strong>108.6 H</strong></td><td>98 - 108</td><td>mmol/L</td></tr><tr><td>Carbon dioxide, total [Moles/volume] in Blood</td><td>26.1</td><td>22 - 29</td><td>mmol/L</td></tr></tbody></table></div>"
                },
                "title": "Chemistry"
              },
              {
                "code": {
                  "coding": [
                    {
                      "code": "$18729-4",
                      "system": "http://loinc.org",
                      "display": "Urinalysis studies (set)"
                    }
                  ],
                  "text": "Urinalysis"
                },
                "entry": [
                  {
                    "reference": "urn:uuid:49a67bb4-c886-4dc3-b7e7-ac229db2fd85"
                  },
                  {
                    "reference": "urn:uuid:65d134b9-fe2a-4ed7-a75b-28aaba194241"
                  },
                  {
                    "reference": "urn:uuid:d11c737c-e496-460b-a194-140c3c6ced43"
                  },
                  {
                    "reference": "urn:uuid:e3dc9c27-9ef4-4eb2-aa26-226c80d50db0"
                  },
                  {
                    "reference": "urn:uuid:a7f7e562-b767-4e08-b891-17896f1aea1b"
                  },
                  {
                    "reference": "urn:uuid:b438308b-103c-4339-b811-2a512fe29557"
                  },
                  {
                    "reference": "urn:uuid:f8ef0bae-549a-4ad3-a78a-cb24d286b8c0"
                  },
                  {
                    "reference": "urn:uuid:0be7c960-df84-4f23-a146-e5bf1f3dea73"
                  },
                  {
                    "reference": "urn:uuid:090bbe7d-4b9b-4363-9b01-d50c2fa815da"
                  },
                  {
                    "reference": "urn:uuid:1bea569a-c0d5-45a9-841a-6aacfa64d5bc"
                  },
                  {
                    "reference": "urn:uuid:79956a0e-0124-4682-b09c-cbaeb56b1f0d"
                  },
                  {
                    "reference": "urn:uuid:e46ef4a0-d64d-4c60-9f3e-a6a3c2bb9969"
                  }
                ],
                "text": {
                  "status": "generated",
                  "div": "<div xmlns=\"http://www.w3.org/1999/xhtml\"><h3>Urinalysis</h3><table class=\"hl7__eu__lab__report\"><thead><tr><th>Test</th><th>04-JUN-2021</th><th>Reference&#xA0;Range</th><th>Unit</th></tr></thead><tbody><tr><td>Glucose [Mass/volume] in Urine by Test strip</td><td>0.8</td><td>0 - 0.8</td><td>mg/dL</td></tr><tr><td>Glucose [Presence] in Urine by Test strip</td><td>++</td><td></td><td></td></tr><tr><td>Bilirubin.total [Mass/volume] in Urine by Test strip</td><td>0.9</td><td>0 - 1.9</td><td>mg/dL</td></tr><tr><td>Bilirubin.total [Presence] in Urine by Test strip</td><td>Finding of bilirubin in urine</td><td></td><td></td></tr><tr><td>Ketones [Mass/volume] in Urine by Test strip</td><td><strong>10.3 H</strong></td><td>0 - 3</td><td>mg/dL</td></tr><tr><td>Specific gravity of Urine by Test strip</td><td><strong>1.0 L</strong></td><td>1.01 - 1.03</td><td>{nominal}</td></tr><tr><td>pH of Urine by Test strip</td><td>6.6</td><td>4.5 - 7.5</td><td>pH</td></tr><tr><td>Protein [Mass/volume] in Urine by Test strip</td><td><strong>378.9 H</strong></td><td>0 - 149</td><td>mg/dL</td></tr><tr><td>Protein [Presence] in Urine by Test strip</td><td>Urine protein test = ++</td><td></td><td></td></tr><tr><td>Nitrite [Presence] in Urine by Test strip</td><td>Urine nitrite negative</td><td></td><td></td></tr><tr><td>Hemoglobin [Presence] in Urine by Test strip</td><td>Urine blood test = negative</td><td></td><td></td></tr><tr><td>Leukocyte esterase [Presence] in Urine by Test strip</td><td>Urine leukocyte test negative</td><td></td><td></td></tr></tbody></table></div>"
                },
                "title": "Urinalysis"
              },
              {
                "code": {
                  "coding": [
                    {
                      "code": "$LP7846-1",
                      "system": "http://loinc.org",
                      "display": "Specimen information"
                    }
                  ],
                  "text": "Specimen information"
                },
                "entry": [
                  {
                    "reference": "urn:uuid:4f3cb803-5a5e-49b6-a03a-c4d1b954a680"
                  },
                  {
                    "reference": "urn:uuid:e4bb1909-e8de-4a72-b9b4-ce43f6949c6b"
                  },
                  {
                    "reference": "urn:uuid:2b9d60ba-c995-42c5-ab4e-9797c536c744"
                  },
                  {
                    "reference": "urn:uuid:3e7db5bc-22e3-4b95-a94d-eea4287dedb9"
                  }
                ],
                "text": {
                  "status": "generated",
                  "div": "<div xmlns=\"http://www.w3.org/1999/xhtml\"><h3>Specimen information</h3><table class=\"hl7__eu__lab__report\"><thead><tr><th>Test</th><th>04-JUN-2021</th><th>Specimen</th><th></th></tr></thead><tbody><tr><td>Appearance of Urine</td><td>Cloudy urine</td><td>Urine</td><td></td></tr><tr><td>Odor of Urine</td><td>Urine smell ammoniacal</td><td>Urine</td><td></td></tr><tr><td>Clarity of Urine</td><td>Translucent</td><td>Urine</td><td></td></tr><tr><td>Color of Urine</td><td>Brown color</td><td>Urine</td><td></td></tr></tbody></table></div>"
                },
                "title": "Specimen information"
              }
            ],
            "title": "Laboratory Report"
          },
          {
            "text": {
              "status": "generated",
              "div": "<div xmlns=\"http://www.w3.org/1999/xhtml\"><h3>Annotation</h3><table class=\"hl7__eu__lab__report\"><tr><th>Conclusion and Recommendations based on this report and previous findings known to us</th></tr><tr><td>The patient shows significantly elevated creatinine, proteinuria, and ketonuria, suggesting impaired renal function with possible acute or chronic kidney disease and metabolic stress. Urine is abnormal in appearance and color, with low specific gravity, indicating possible tubular dysfunction. HbA1c is low, excluding chronic hyperglycemia. No evidence of urinary tract infection. Recommend urgent nephrology evaluation and further assessment of renal function and underlying causes.</td></tr></table></div>"
            },
            "code": {
              "coding": [
                {
                  "system": "http://loinc.org",
                  "code": "48767-8",
                  "display": "Annotation comment"
                }
              ]
            },
            "title": "Annotation comment"
          }
        ],
        "status": "final",
        "subject": {
          "reference": "urn:uuid:4f094a47-e87c-4f3a-9675-7802cf5c8f76",
          "display": "Victor Lagarde"
        },
        "date": "2021-06-04T06:48:18Z",
        "title": "Laboratory Report",
        "confidentiality": "N"
      }
    },
    {
      "fullUrl": "urn:uuid:1ca90454-bfd0-4271-bd31-f2852cc5cad2",
      "resource": {
        "resourceType": "DiagnosticReport",
        "id": "1ca90454-bfd0-4271-bd31-f2852cc5cad2",
        "meta": {
          "profile": [
            "http://hl7.eu/fhir/laboratory/StructureDefinition/DiagnosticReport-eu-lab"
          ]
        },
        "identifier": [
          {
            "assigner": {
              "display": "HL7 Europe"
            },
            "system": "urn:oid:2.16.840.1.113883.2.51.999",
            "value": "aecd9792-1745-4c66-b331-06ebc10c3abf"
          }
        ],
        "extension": [
          {
            "url": "http://hl7.org/fhir/5.0/StructureDefinition/extension-DiagnosticReport.composition",
            "valueReference": {
              "reference": "urn:uuid:2f37db9c-f87f-4a62-bdde-4f46bdb6139b"
            }
          }
        ],
        "category": [
          {
            "coding": [
              {
                "code": "26436-6",
                "system": "http://loinc.org",
                "display": "Laboratory studies (set)"
              }
            ]
          }
        ],
        "specimen": [
          {
            "reference": "urn:uuid:5026772c-0dc6-4cfa-a9ae-9e88399c45c5"
          },
          {
            "reference": "urn:uuid:323c028e-78d1-49c5-8b26-a894add6298d"
          },
          {
            "reference": "urn:uuid:a56efdbe-8418-449e-9bd5-7cac95e80dd5"
          }
        ],
        "result": [
          {
            "reference": "urn:uuid:c5d5f211-7985-4f32-ad47-39cfc5077b6f"
          },
          {
            "reference": "urn:uuid:1126ec50-608a-48d2-b35d-523d1a6f7df2"
          },
          {
            "reference": "urn:uuid:12421fa1-a6e2-42aa-adc3-3829d6404967"
          },
          {
            "reference": "urn:uuid:087aef1f-43e2-4cde-882f-d216096aab5f"
          },
          {
            "reference": "urn:uuid:34f32635-75b8-4fb8-9967-83d10a8539a7"
          },
          {
            "reference": "urn:uuid:2c104a33-2f7a-47b9-827e-97e15e09db7a"
          },
          {
            "reference": "urn:uuid:aea211ac-ed5a-42ad-bab9-ea5f3fc555bf"
          },
          {
            "reference": "urn:uuid:8b530841-6568-44d1-aad9-2529cf2743c1"
          },
          {
            "reference": "urn:uuid:4f3cb803-5a5e-49b6-a03a-c4d1b954a680"
          },
          {
            "reference": "urn:uuid:e4bb1909-e8de-4a72-b9b4-ce43f6949c6b"
          },
          {
            "reference": "urn:uuid:2b9d60ba-c995-42c5-ab4e-9797c536c744"
          },
          {
            "reference": "urn:uuid:3e7db5bc-22e3-4b95-a94d-eea4287dedb9"
          },
          {
            "reference": "urn:uuid:49a67bb4-c886-4dc3-b7e7-ac229db2fd85"
          },
          {
            "reference": "urn:uuid:65d134b9-fe2a-4ed7-a75b-28aaba194241"
          },
          {
            "reference": "urn:uuid:d11c737c-e496-460b-a194-140c3c6ced43"
          },
          {
            "reference": "urn:uuid:e3dc9c27-9ef4-4eb2-aa26-226c80d50db0"
          },
          {
            "reference": "urn:uuid:a7f7e562-b767-4e08-b891-17896f1aea1b"
          },
          {
            "reference": "urn:uuid:38bfd7de-ea5a-417e-83e4-cee9a918cb4b"
          },
          {
            "reference": "urn:uuid:b438308b-103c-4339-b811-2a512fe29557"
          },
          {
            "reference": "urn:uuid:f8ef0bae-549a-4ad3-a78a-cb24d286b8c0"
          },
          {
            "reference": "urn:uuid:0be7c960-df84-4f23-a146-e5bf1f3dea73"
          },
          {
            "reference": "urn:uuid:090bbe7d-4b9b-4363-9b01-d50c2fa815da"
          },
          {
            "reference": "urn:uuid:1bea569a-c0d5-45a9-841a-6aacfa64d5bc"
          },
          {
            "reference": "urn:uuid:79956a0e-0124-4682-b09c-cbaeb56b1f0d"
          },
          {
            "reference": "urn:uuid:e46ef4a0-d64d-4c60-9f3e-a6a3c2bb9969"
          },
          {
            "reference": "urn:uuid:5f93b100-1422-4636-aae1-a492b0eacfee"
          },
          {
            "reference": "urn:uuid:cf21d125-613b-4ce1-b9d9-6098a1c46281"
          },
          {
            "reference": "urn:uuid:52920cd0-423b-4275-ae0c-c79ad6cd30ca"
          },
          {
            "reference": "urn:uuid:40c50a30-e149-4356-a5c9-5cd8f28dbaa6"
          },
          {
            "reference": "urn:uuid:236e0873-e424-4bb9-9ab2-3b754e1435c8"
          },
          {
            "reference": "urn:uuid:c15d2d3b-6a92-43f7-bef7-410eeaa0cacd"
          },
          {
            "reference": "urn:uuid:68b6ffaa-ff30-4032-ae76-a98ae79e0cd1"
          },
          {
            "reference": "urn:uuid:aa7f87ac-cc25-4fa8-b262-cedc99dda5e8"
          },
          {
            "reference": "urn:uuid:82ee9a45-85d9-4408-82f0-44c9aed260a8"
          }
        ],
        "status": "registered",
        "code": {
          "coding": [
            {
              "code": "11502-2",
              "system": "http://loinc.org",
              "display": "Laboratory report"
            }
          ]
        },
        "subject": {
          "reference": "urn:uuid:4f094a47-e87c-4f3a-9675-7802cf5c8f76",
          "display": "Victor Lagarde"
        }
      }
    },
    {
      "fullUrl": "urn:uuid:4f094a47-e87c-4f3a-9675-7802cf5c8f76",
      "resource": {
        "resourceType": "Patient",
        "id": "4f094a47-e87c-4f3a-9675-7802cf5c8f76",
        "meta": {
          "security": [
            {
              "system": "http://terminology.hl7.org/CodeSystem/v3-ActReason",
              "code": "HTEST"
            },
            {
              "system": "http://terminology.hl7.org/CodeSystem/v3-ActReason",
              "code": "TRAIN"
            }
          ],
          "tag": [
            {
              "system": "https://synderai.net/fhir/CodeSystem/tags",
              "code": "synthetic",
              "display": "SYNDERAI Synthetic data"
            }
          ],
          "profile": [
            "http://hl7.eu/fhir/base/StructureDefinition/patient-eu-core"
          ]
        },
        "identifier": [
          {
            "type": {
              "coding": [
                {
                  "code": "PT",
                  "system": "http://terminology.hl7.org/CodeSystem/v2-0203"
                }
              ]
            },
            "system": "http://ec.europa.eu/identifier/eci",
            "value": "9925-001801-9"
          },
          {
            "type": {
              "coding": [
                {
                  "code": "MR",
                  "system": "http://terminology.hl7.org/CodeSystem/v2-0203"
                }
              ]
            },
            "system": "http://local.setting.eu/identifier",
            "value": "22c2dfd0-ac57-8833-2532-848f180896a4"
          }
        ],
        "name": [
          {
            "family": "Lagarde"
          },
          {
            "given": [
              "Victor"
            ]
          },
          {
            "text": "Victor Lagarde"
          }
        ],
        "address": [
          {
            "line": [
              "avenue Robert"
            ],
            "use": "home",
            "type": "physical",
            "postalCode": "80300",
            "city": "Albert",
            "country": "France"
          }
        ],
        "telecom": [
          {
            "system": "phone",
            "value": "0177941801"
          }
        ],
        "extension": [
          {
            "url": "http://hl7.org/fhir/StructureDefinition/patient-nationality",
            "valueCodeableConcept": {
              "coding": [
                {
                  "code": "FR",
                  "system": "http://hl7.org/fhir/ValueSet/country"
                }
              ]
            }
          }
        ],
        "text": {
          "status": "generated",
          "div": "<div xmlns=\"http://www.w3.org/1999/xhtml\"><table class=\"hl7__ips\"><tr><td>Victor Lagarde</td><td>male</td><td>31-Aug-1939</td></tr></table></div>"
        },
        "gender": "male",
        "birthDate": "1939-08-31"
      }
    },
    {
      "fullUrl": "urn:uuid:f9c7c932-1ce5-465f-8103-dc0a6075231f",
      "resource": {
        "resourceType": "ServiceRequest",
        "id": "f9c7c932-1ce5-465f-8103-dc0a6075231f",
        "meta": {
          "profile": [
            "http://hl7.eu/fhir/laboratory/StructureDefinition/ServiceRequest-eu-lab"
          ]
        },
        "identifier": [
          {
            "system": "http://example.org",
            "value": "86c36246-3329-41e7-b271-5d655ffab7cc"
          }
        ],
        "specimen": [
          {
            "reference": "urn:uuid:5026772c-0dc6-4cfa-a9ae-9e88399c45c5"
          },
          {
            "reference": "urn:uuid:323c028e-78d1-49c5-8b26-a894add6298d"
          },
          {
            "reference": "urn:uuid:a56efdbe-8418-449e-9bd5-7cac95e80dd5"
          }
        ],
        "reasonCode": [
          {
            "coding": [
              {
                "code": "433144002",
                "system": "http://snomed.info/sct",
                "display": "Chronic kidney disease stage 3"
              }
            ]
          },
          {
            "coding": [
              {
                "code": "157141000119108",
                "system": "http://snomed.info/sct",
                "display": "Proteinuria due to type 2 diabetes mellitus"
              }
            ]
          },
          {
            "coding": [
              {
                "code": "431856006",
                "system": "http://snomed.info/sct",
                "display": "Chronic kidney disease stage 2"
              }
            ]
          },
          {
            "coding": [
              {
                "code": "90781000119102",
                "system": "http://snomed.info/sct",
                "display": "Microalbuminuria due to type 2 diabetes mellitus"
              }
            ]
          },
          {
            "coding": [
              {
                "code": "127013003",
                "system": "http://snomed.info/sct",
                "display": "Disorder of kidney due to diabetes mellitus"
              }
            ]
          },
          {
            "coding": [
              {
                "code": "431855005",
                "system": "http://snomed.info/sct",
                "display": "Chronic kidney disease stage 1"
              }
            ]
          },
          {
            "coding": [
              {
                "code": "55822004",
                "system": "http://snomed.info/sct",
                "display": "Hyperlipidemia"
              }
            ]
          },
          {
            "coding": [
              {
                "code": "59621000",
                "system": "http://snomed.info/sct",
                "display": "Essential hypertension"
              }
            ]
          },
          {
            "coding": [
              {
                "code": "237602007",
                "system": "http://snomed.info/sct",
                "display": "Metabolic syndrome X"
              }
            ]
          },
          {
            "coding": [
              {
                "code": "414545008",
                "system": "http://snomed.info/sct",
                "display": "Ischemic heart disease"
              }
            ]
          },
          {
            "coding": [
              {
                "code": "40055000",
                "system": "http://snomed.info/sct",
                "display": "Chronic sinusitis"
              }
            ]
          },
          {
            "coding": [
              {
                "code": "15777000",
                "system": "http://snomed.info/sct",
                "display": "Prediabetes"
              }
            ]
          },
          {
            "coding": [
              {
                "code": "271737000",
                "system": "http://snomed.info/sct",
                "display": "Anemia"
              }
            ]
          }
        ],
        "status": "active",
        "intent": "order",
        "code": {
          "coding": [
            {
              "code": "108252007",
              "system": "http://snomed.info/sct",
              "display": "Laboratory procedure"
            }
          ]
        },
        "subject": {
          "reference": "urn:uuid:4f094a47-e87c-4f3a-9675-7802cf5c8f76",
          "display": "Victor Lagarde"
        },
        "requester": {
          "reference": "urn:uuid:f414bcc0-eb6d-4511-a2cf-a4df3fecc6ef"
        }
      }
    },
    {
      "fullUrl": "urn:uuid:f414bcc0-eb6d-4511-a2cf-a4df3fecc6ef",
      "resource": {
        "resourceType": "PractitionerRole",
        "id": "f414bcc0-eb6d-4511-a2cf-a4df3fecc6ef",
        "meta": {
          "profile": [
            "http://hl7.eu/fhir/base/StructureDefinition/practitionerRole-eu"
          ]
        },
        "text": {
          "status": "generated",
          "div": "<div xmlns=\"http://www.w3.org/1999/xhtml\">Provider Role Id: f414bcc0-eb6d-4511-a2cf-a4df3fecc6ef</div>"
        },
        "organization": {
          "reference": "urn:uuid:048fc434-3498-45aa-bb8c-548acdc45c17"
        }
      }
    },
    {
      "fullUrl": "urn:uuid:048fc434-3498-45aa-bb8c-548acdc45c17",
      "resource": {
        "resourceType": "Organization",
        "id": "048fc434-3498-45aa-bb8c-548acdc45c17",
        "meta": {
          "profile": [
            "http://hl7.eu/fhir/base/StructureDefinition/organization-eu"
          ]
        },
        "identifier": [
          {
            "assigner": {
              "display": "HL7 Europe"
            },
            "system": "urn:oid:2.16.840.1.113883.2.51.999",
            "value": "6ba1e5eb-604b-431c-9fc2-d9403385f5d6"
          }
        ],
        "address": [
          {
            "city": "Auxerre",
            "postalCode": "89000",
            "country": "France"
          }
        ],
        "text": {
          "status": "generated",
          "div": "<div xmlns=\"http://www.w3.org/1999/xhtml\">Provider Organization: Thiriot Didier (Cardiologie)</div>"
        },
        "name": "Thiriot Didier (Cardiologie)"
      }
    },
    {
      "fullUrl": "urn:uuid:5026772c-0dc6-4cfa-a9ae-9e88399c45c5",
      "resource": {
        "resourceType": "Specimen",
        "id": "5026772c-0dc6-4cfa-a9ae-9e88399c45c5",
        "meta": {
          "profile": [
            "http://hl7.eu/fhir/laboratory/StructureDefinition/Specimen-eu-lab"
          ]
        },
        "collection": {
          "collectedDateTime": "2021-06-04"
        },
        "text": {
          "status": "generated",
          "div": "<div xmlns=\"http://www.w3.org/1999/xhtml\"><table class=\"hl7__eu__lab__report\"><tr><th>Specimen</th><th>Collection Date</th></tr><tr><td>Acellular blood (serum or plasma) specimen</td><td><span class=\"nb\">04-Jun-2021</span></td></tr></table></div>"
        },
        "type": {
          "coding": [
            {
              "code": "122592007",
              "system": "http://snomed.info/sct",
              "display": "Acellular blood (serum or plasma) specimen"
            }
          ]
        }
      }
    },
    {
      "fullUrl": "urn:uuid:323c028e-78d1-49c5-8b26-a894add6298d",
      "resource": {
        "resourceType": "Specimen",
        "id": "323c028e-78d1-49c5-8b26-a894add6298d",
        "meta": {
          "profile": [
            "http://hl7.eu/fhir/laboratory/StructureDefinition/Specimen-eu-lab"
          ]
        },
        "collection": {
          "collectedDateTime": "2021-06-04"
        },
        "text": {
          "status": "generated",
          "div": "<div xmlns=\"http://www.w3.org/1999/xhtml\"><table class=\"hl7__eu__lab__report\"><tr><th>Specimen</th><th>Collection Date</th></tr><tr><td>Urine specimen</td><td><span class=\"nb\">04-Jun-2021</span></td></tr></table></div>"
        },
        "type": {
          "coding": [
            {
              "code": "122575003",
              "system": "http://snomed.info/sct",
              "display": "Urine specimen"
            }
          ]
        }
      }
    },
    {
      "fullUrl": "urn:uuid:a56efdbe-8418-449e-9bd5-7cac95e80dd5",
      "resource": {
        "resourceType": "Specimen",
        "id": "a56efdbe-8418-449e-9bd5-7cac95e80dd5",
        "meta": {
          "profile": [
            "http://hl7.eu/fhir/laboratory/StructureDefinition/Specimen-eu-lab"
          ]
        },
        "collection": {
          "collectedDateTime": "2021-06-04"
        },
        "text": {
          "status": "generated",
          "div": "<div xmlns=\"http://www.w3.org/1999/xhtml\"><table class=\"hl7__eu__lab__report\"><tr><th>Specimen</th><th>Collection Date</th></tr><tr><td>Whole blood specimen (specimen)</td><td><span class=\"nb\">04-Jun-2021</span></td></tr></table></div>"
        },
        "type": {
          "coding": [
            {
              "code": "258580003",
              "system": "http://snomed.info/sct",
              "display": "Whole blood specimen (specimen)"
            }
          ]
        }
      }
    },
    {
      "fullUrl": "urn:uuid:c5d5f211-7985-4f32-ad47-39cfc5077b6f",
      "resource": {
        "resourceType": "Observation",
        "id": "c5d5f211-7985-4f32-ad47-39cfc5077b6f",
        "meta": {
          "profile": [
            "http://hl7.eu/fhir/laboratory/StructureDefinition/Observation-resultslab-eu-lab"
          ]
        },
        "performer": [
          {
            "display": "The Central European Lab"
          }
        ],
        "category": [
          {
            "coding": [
              {
                "system": "http://terminology.hl7.org/CodeSystem/observation-category",
                "code": "laboratory"
              }
            ]
          }
        ],
        "code": {
          "coding": [
            {
              "code": "2345-7",
              "system": "http://loinc.org",
              "display": "Glucose [Mass/volume] in Serum or Plasma"
            }
          ],
          "text": "Glucose [Mass/volume] in Serum or Plasma"
        },
        "valueQuantity": {
          "system": "http://unitsofmeasure.org",
          "value": 83.2,
          "unit": "mg/dL",
          "code": "mg/dL"
        },
        "referenceRange": [
          {
            "low": {
              "value": 70,
              "code": "mg/dL",
              "system": "http://unitsofmeasure.org"
            }
          },
          {
            "high": {
              "value": 140,
              "code": "mg/dL",
              "system": "http://unitsofmeasure.org"
            }
          }
        ],
        "text": {
          "status": "generated",
          "div": "<div xmlns=\"http://www.w3.org/1999/xhtml\"><table class=\"hl7__eu__lab__report\"><tr><th>Test</th><th>04-Jun-2021</th><th>Reference&#xA0;Range</th><th>Unit</th></tr><tr><td>Glucose [Mass/volume] in Serum or Plasma</td><td>83.2</td><td>70 - 140</td><td></td><td>mg/dL</td></tr></table></div>"
        },
        "status": "final",
        "subject": {
          "reference": "urn:uuid:4f094a47-e87c-4f3a-9675-7802cf5c8f76",
          "display": "Victor Lagarde"
        },
        "effectiveDateTime": "2021-06-04T04:48:18Z",
        "specimen": {
          "reference": "urn:uuid:5026772c-0dc6-4cfa-a9ae-9e88399c45c5"
        }
      }
    },
    {
      "fullUrl": "urn:uuid:1126ec50-608a-48d2-b35d-523d1a6f7df2",
      "resource": {
        "resourceType": "Observation",
        "id": "1126ec50-608a-48d2-b35d-523d1a6f7df2",
        "meta": {
          "profile": [
            "http://hl7.eu/fhir/laboratory/StructureDefinition/Observation-resultslab-eu-lab"
          ]
        },
        "performer": [
          {
            "display": "The Central European Lab"
          }
        ],
        "category": [
          {
            "coding": [
              {
                "system": "http://terminology.hl7.org/CodeSystem/observation-category",
                "code": "laboratory"
              }
            ]
          }
        ],
        "code": {
          "coding": [
            {
              "code": "3094-0",
              "system": "http://loinc.org",
              "display": "Urea nitrogen [Mass/volume] in Serum or Plasma"
            }
          ],
          "text": "Urea nitrogen [Mass/volume] in Serum or Plasma"
        },
        "valueQuantity": {
          "system": "http://unitsofmeasure.org",
          "value": 12.2,
          "unit": "mg/dL",
          "code": "mg/dL"
        },
        "referenceRange": [
          {
            "low": {
              "value": 7,
              "code": "mg/dL",
              "system": "http://unitsofmeasure.org"
            }
          },
          {
            "high": {
              "value": 20,
              "code": "mg/dL",
              "system": "http://unitsofmeasure.org"
            }
          }
        ],
        "text": {
          "status": "generated",
          "div": "<div xmlns=\"http://www.w3.org/1999/xhtml\"><table class=\"hl7__eu__lab__report\"><tr><th>Test</th><th>04-Jun-2021</th><th>Reference&#xA0;Range</th><th>Unit</th></tr><tr><td>Urea nitrogen [Mass/volume] in Serum or Plasma</td><td>12.2</td><td>7 - 20</td><td></td><td>mg/dL</td></tr></table></div>"
        },
        "status": "final",
        "subject": {
          "reference": "urn:uuid:4f094a47-e87c-4f3a-9675-7802cf5c8f76",
          "display": "Victor Lagarde"
        },
        "effectiveDateTime": "2021-06-04T04:48:18Z",
        "specimen": {
          "reference": "urn:uuid:5026772c-0dc6-4cfa-a9ae-9e88399c45c5"
        }
      }
    },
    {
      "fullUrl": "urn:uuid:12421fa1-a6e2-42aa-adc3-3829d6404967",
      "resource": {
        "resourceType": "Observation",
        "id": "12421fa1-a6e2-42aa-adc3-3829d6404967",
        "meta": {
          "profile": [
            "http://hl7.eu/fhir/laboratory/StructureDefinition/Observation-resultslab-eu-lab"
          ]
        },
        "performer": [
          {
            "display": "The Central European Lab"
          }
        ],
        "category": [
          {
            "coding": [
              {
                "system": "http://terminology.hl7.org/CodeSystem/observation-category",
                "code": "laboratory"
              }
            ]
          }
        ],
        "code": {
          "coding": [
            {
              "code": "2160-0",
              "system": "http://loinc.org",
              "display": "Creatinine [Mass/volume] in Serum or Plasma"
            }
          ],
          "text": "Creatinine [Mass/volume] in Serum or Plasma"
        },
        "valueQuantity": {
          "system": "http://unitsofmeasure.org",
          "value": 2.1,
          "unit": "mg/dL",
          "code": "mg/dL"
        },
        "referenceRange": [
          {
            "low": {
              "value": 0.9,
              "code": "mg/dL",
              "system": "http://unitsofmeasure.org"
            }
          },
          {
            "high": {
              "value": 1.3,
              "code": "mg/dL",
              "system": "http://unitsofmeasure.org"
            }
          }
        ],
        "interpretation": [
          {
            "coding": [
              {
                "code": "H",
                "system": "http://terminology.hl7.org/CodeSystem/v3-ObservationInterpretation",
                "display": "High"
              }
            ]
          }
        ],
        "text": {
          "status": "generated",
          "div": "<div xmlns=\"http://www.w3.org/1999/xhtml\"><table class=\"hl7__eu__lab__report\"><tr><th>Test</th><th>04-Jun-2021</th><th>Reference&#xA0;Range</th><th>Unit</th></tr><tr><td>Creatinine [Mass/volume] in Serum or Plasma</td><td>2.1</td><td>0.9 - 1.3</td><td>H</td><td>mg/dL</td></tr></table></div>"
        },
        "status": "final",
        "subject": {
          "reference": "urn:uuid:4f094a47-e87c-4f3a-9675-7802cf5c8f76",
          "display": "Victor Lagarde"
        },
        "effectiveDateTime": "2021-06-04T04:48:18Z",
        "specimen": {
          "reference": "urn:uuid:5026772c-0dc6-4cfa-a9ae-9e88399c45c5"
        }
      }
    },
    {
      "fullUrl": "urn:uuid:087aef1f-43e2-4cde-882f-d216096aab5f",
      "resource": {
        "resourceType": "Observation",
        "id": "087aef1f-43e2-4cde-882f-d216096aab5f",
        "meta": {
          "profile": [
            "http://hl7.eu/fhir/laboratory/StructureDefinition/Observation-resultslab-eu-lab"
          ]
        },
        "performer": [
          {
            "display": "The Central European Lab"
          }
        ],
        "category": [
          {
            "coding": [
              {
                "system": "http://terminology.hl7.org/CodeSystem/observation-category",
                "code": "laboratory"
              }
            ]
          }
        ],
        "code": {
          "coding": [
            {
              "code": "17861-6",
              "system": "http://loinc.org",
              "display": "Calcium [Mass/volume] in Serum or Plasma"
            }
          ],
          "text": "Calcium [Mass/volume] in Serum or Plasma"
        },
        "valueQuantity": {
          "system": "http://unitsofmeasure.org",
          "value": 9.5,
          "unit": "mg/dL",
          "code": "mg/dL"
        },
        "referenceRange": [
          {
            "low": {
              "value": 8.5,
              "code": "mg/dL",
              "system": "http://unitsofmeasure.org"
            }
          },
          {
            "high": {
              "value": 10.5,
              "code": "mg/dL",
              "system": "http://unitsofmeasure.org"
            }
          }
        ],
        "text": {
          "status": "generated",
          "div": "<div xmlns=\"http://www.w3.org/1999/xhtml\"><table class=\"hl7__eu__lab__report\"><tr><th>Test</th><th>04-Jun-2021</th><th>Reference&#xA0;Range</th><th>Unit</th></tr><tr><td>Calcium [Mass/volume] in Serum or Plasma</td><td>9.5</td><td>8.5 - 10.5</td><td></td><td>mg/dL</td></tr></table></div>"
        },
        "status": "final",
        "subject": {
          "reference": "urn:uuid:4f094a47-e87c-4f3a-9675-7802cf5c8f76",
          "display": "Victor Lagarde"
        },
        "effectiveDateTime": "2021-06-04T04:48:18Z",
        "specimen": {
          "reference": "urn:uuid:5026772c-0dc6-4cfa-a9ae-9e88399c45c5"
        }
      }
    },
    {
      "fullUrl": "urn:uuid:34f32635-75b8-4fb8-9967-83d10a8539a7",
      "resource": {
        "resourceType": "Observation",
        "id": "34f32635-75b8-4fb8-9967-83d10a8539a7",
        "meta": {
          "profile": [
            "http://hl7.eu/fhir/laboratory/StructureDefinition/Observation-resultslab-eu-lab"
          ]
        },
        "performer": [
          {
            "display": "The Central European Lab"
          }
        ],
        "category": [
          {
            "coding": [
              {
                "system": "http://terminology.hl7.org/CodeSystem/observation-category",
                "code": "laboratory"
              }
            ]
          }
        ],
        "code": {
          "coding": [
            {
              "code": "2951-2",
              "system": "http://loinc.org",
              "display": "Sodium [Moles/volume] in Serum or Plasma"
            }
          ],
          "text": "Sodium [Moles/volume] in Serum or Plasma"
        },
        "valueQuantity": {
          "system": "http://unitsofmeasure.org",
          "value": 141.2,
          "unit": "mmol/L",
          "code": "mmol/L"
        },
        "referenceRange": [
          {
            "low": {
              "value": 135,
              "code": "mmol/L",
              "system": "http://unitsofmeasure.org"
            }
          },
          {
            "high": {
              "value": 145,
              "code": "mmol/L",
              "system": "http://unitsofmeasure.org"
            }
          }
        ],
        "text": {
          "status": "generated",
          "div": "<div xmlns=\"http://www.w3.org/1999/xhtml\"><table class=\"hl7__eu__lab__report\"><tr><th>Test</th><th>04-Jun-2021</th><th>Reference&#xA0;Range</th><th>Unit</th></tr><tr><td>Sodium [Moles/volume] in Serum or Plasma</td><td>141.2</td><td>135 - 145</td><td></td><td>mmol/L</td></tr></table></div>"
        },
        "status": "final",
        "subject": {
          "reference": "urn:uuid:4f094a47-e87c-4f3a-9675-7802cf5c8f76",
          "display": "Victor Lagarde"
        },
        "effectiveDateTime": "2021-06-04T04:48:18Z",
        "specimen": {
          "reference": "urn:uuid:5026772c-0dc6-4cfa-a9ae-9e88399c45c5"
        }
      }
    },
    {
      "fullUrl": "urn:uuid:2c104a33-2f7a-47b9-827e-97e15e09db7a",
      "resource": {
        "resourceType": "Observation",
        "id": "2c104a33-2f7a-47b9-827e-97e15e09db7a",
        "meta": {
          "profile": [
            "http://hl7.eu/fhir/laboratory/StructureDefinition/Observation-resultslab-eu-lab"
          ]
        },
        "performer": [
          {
            "display": "The Central European Lab"
          }
        ],
        "category": [
          {
            "coding": [
              {
                "system": "http://terminology.hl7.org/CodeSystem/observation-category",
                "code": "laboratory"
              }
            ]
          }
        ],
        "code": {
          "coding": [
            {
              "code": "2823-3",
              "system": "http://loinc.org",
              "display": "Potassium [Moles/volume] in Serum or Plasma"
            }
          ],
          "text": "Potassium [Moles/volume] in Serum or Plasma"
        },
        "valueQuantity": {
          "system": "http://unitsofmeasure.org",
          "value": 4.1,
          "unit": "mmol/L",
          "code": "mmol/L"
        },
        "referenceRange": [
          {
            "low": {
              "value": 3.5,
              "code": "mmol/L",
              "system": "http://unitsofmeasure.org"
            }
          },
          {
            "high": {
              "value": 5.3,
              "code": "mmol/L",
              "system": "http://unitsofmeasure.org"
            }
          }
        ],
        "text": {
          "status": "generated",
          "div": "<div xmlns=\"http://www.w3.org/1999/xhtml\"><table class=\"hl7__eu__lab__report\"><tr><th>Test</th><th>04-Jun-2021</th><th>Reference&#xA0;Range</th><th>Unit</th></tr><tr><td>Potassium [Moles/volume] in Serum or Plasma</td><td>4.1</td><td>3.5 - 5.3</td><td></td><td>mmol/L</td></tr></table></div>"
        },
        "status": "final",
        "subject": {
          "reference": "urn:uuid:4f094a47-e87c-4f3a-9675-7802cf5c8f76",
          "display": "Victor Lagarde"
        },
        "effectiveDateTime": "2021-06-04T04:48:18Z",
        "specimen": {
          "reference": "urn:uuid:5026772c-0dc6-4cfa-a9ae-9e88399c45c5"
        }
      }
    },
    {
      "fullUrl": "urn:uuid:aea211ac-ed5a-42ad-bab9-ea5f3fc555bf",
      "resource": {
        "resourceType": "Observation",
        "id": "aea211ac-ed5a-42ad-bab9-ea5f3fc555bf",
        "meta": {
          "profile": [
            "http://hl7.eu/fhir/laboratory/StructureDefinition/Observation-resultslab-eu-lab"
          ]
        },
        "performer": [
          {
            "display": "The Central European Lab"
          }
        ],
        "category": [
          {
            "coding": [
              {
                "system": "http://terminology.hl7.org/CodeSystem/observation-category",
                "code": "laboratory"
              }
            ]
          }
        ],
        "code": {
          "coding": [
            {
              "code": "2075-0",
              "system": "http://loinc.org",
              "display": "Chloride [Moles/volume] in Serum or Plasma"
            }
          ],
          "text": "Chloride [Moles/volume] in Serum or Plasma"
        },
        "valueQuantity": {
          "system": "http://unitsofmeasure.org",
          "value": 108.6,
          "unit": "mmol/L",
          "code": "mmol/L"
        },
        "referenceRange": [
          {
            "low": {
              "value": 98,
              "code": "mmol/L",
              "system": "http://unitsofmeasure.org"
            }
          },
          {
            "high": {
              "value": 107,
              "code": "mmol/L",
              "system": "http://unitsofmeasure.org"
            }
          }
        ],
        "interpretation": [
          {
            "coding": [
              {
                "code": "H",
                "system": "http://terminology.hl7.org/CodeSystem/v3-ObservationInterpretation",
                "display": "High"
              }
            ]
          }
        ],
        "text": {
          "status": "generated",
          "div": "<div xmlns=\"http://www.w3.org/1999/xhtml\"><table class=\"hl7__eu__lab__report\"><tr><th>Test</th><th>04-Jun-2021</th><th>Reference&#xA0;Range</th><th>Unit</th></tr><tr><td>Chloride [Moles/volume] in Serum or Plasma</td><td>108.6</td><td>98 - 107</td><td>H</td><td>mmol/L</td></tr></table></div>"
        },
        "status": "final",
        "subject": {
          "reference": "urn:uuid:4f094a47-e87c-4f3a-9675-7802cf5c8f76",
          "display": "Victor Lagarde"
        },
        "effectiveDateTime": "2021-06-04T04:48:18Z",
        "specimen": {
          "reference": "urn:uuid:5026772c-0dc6-4cfa-a9ae-9e88399c45c5"
        }
      }
    },
    {
      "fullUrl": "urn:uuid:8b530841-6568-44d1-aad9-2529cf2743c1",
      "resource": {
        "resourceType": "Observation",
        "id": "8b530841-6568-44d1-aad9-2529cf2743c1",
        "meta": {
          "profile": [
            "http://hl7.eu/fhir/laboratory/StructureDefinition/Observation-resultslab-eu-lab"
          ]
        },
        "performer": [
          {
            "display": "The Central European Lab"
          }
        ],
        "category": [
          {
            "coding": [
              {
                "system": "http://terminology.hl7.org/CodeSystem/observation-category",
                "code": "laboratory"
              }
            ]
          }
        ],
        "code": {
          "coding": [
            {
              "code": "2028-9",
              "system": "http://loinc.org",
              "display": "Carbon dioxide, total [Moles/volume] in Serum or Plasma"
            }
          ],
          "text": "Carbon dioxide, total [Moles/volume] in Serum or Plasma"
        },
        "valueQuantity": {
          "system": "http://unitsofmeasure.org",
          "value": 26.1,
          "unit": "mmol/L",
          "code": "mmol/L"
        },
        "referenceRange": [
          {
            "low": {
              "value": 22,
              "code": "mmol/L",
              "system": "http://unitsofmeasure.org"
            }
          },
          {
            "high": {
              "value": 33,
              "code": "mmol/L",
              "system": "http://unitsofmeasure.org"
            }
          }
        ],
        "text": {
          "status": "generated",
          "div": "<div xmlns=\"http://www.w3.org/1999/xhtml\"><table class=\"hl7__eu__lab__report\"><tr><th>Test</th><th>04-Jun-2021</th><th>Reference&#xA0;Range</th><th>Unit</th></tr><tr><td>Carbon dioxide, total [Moles/volume] in Serum or Plasma</td><td>26.1</td><td>22 - 33</td><td></td><td>mmol/L</td></tr></table></div>"
        },
        "status": "final",
        "subject": {
          "reference": "urn:uuid:4f094a47-e87c-4f3a-9675-7802cf5c8f76",
          "display": "Victor Lagarde"
        },
        "effectiveDateTime": "2021-06-04T04:48:18Z",
        "specimen": {
          "reference": "urn:uuid:5026772c-0dc6-4cfa-a9ae-9e88399c45c5"
        }
      }
    },
    {
      "fullUrl": "urn:uuid:4f3cb803-5a5e-49b6-a03a-c4d1b954a680",
      "resource": {
        "resourceType": "Observation",
        "id": "4f3cb803-5a5e-49b6-a03a-c4d1b954a680",
        "meta": {
          "profile": [
            "http://hl7.eu/fhir/laboratory/StructureDefinition/Observation-resultslab-eu-lab"
          ]
        },
        "performer": [
          {
            "display": "The Central European Lab"
          }
        ],
        "category": [
          {
            "coding": [
              {
                "system": "http://terminology.hl7.org/CodeSystem/observation-category",
                "code": "laboratory"
              }
            ]
          }
        ],
        "code": {
          "coding": [
            {
              "code": "5767-9",
              "system": "http://loinc.org",
              "display": "Appearance of Urine"
            }
          ],
          "text": "Appearance of Urine"
        },
        "text": {
          "status": "generated",
          "div": "<div xmlns=\"http://www.w3.org/1999/xhtml\"><table class=\"hl7__eu__lab__report\"><tr><th>Test</th><th>04-Jun-2021</th><th>Reference&#xA0;Range</th><th>Unit</th></tr><tr><td>Appearance of Urine</td></tr></table></div>"
        },
        "status": "final",
        "subject": {
          "reference": "urn:uuid:4f094a47-e87c-4f3a-9675-7802cf5c8f76",
          "display": "Victor Lagarde"
        },
        "effectiveDateTime": "2021-06-04T04:48:18Z",
        "specimen": {
          "reference": "urn:uuid:323c028e-78d1-49c5-8b26-a894add6298d"
        }
      }
    },
    {
      "fullUrl": "urn:uuid:e4bb1909-e8de-4a72-b9b4-ce43f6949c6b",
      "resource": {
        "resourceType": "Observation",
        "id": "e4bb1909-e8de-4a72-b9b4-ce43f6949c6b",
        "meta": {
          "profile": [
            "http://hl7.eu/fhir/laboratory/StructureDefinition/Observation-resultslab-eu-lab"
          ]
        },
        "performer": [
          {
            "display": "The Central European Lab"
          }
        ],
        "category": [
          {
            "coding": [
              {
                "system": "http://terminology.hl7.org/CodeSystem/observation-category",
                "code": "laboratory"
              }
            ]
          }
        ],
        "code": {
          "coding": [
            {
              "code": "34533-0",
              "system": "http://loinc.org",
              "display": "Odor of Urine"
            }
          ],
          "text": "Odor of Urine"
        },
        "text": {
          "status": "generated",
          "div": "<div xmlns=\"http://www.w3.org/1999/xhtml\"><table class=\"hl7__eu__lab__report\"><tr><th>Test</th><th>04-Jun-2021</th><th>Reference&#xA0;Range</th><th>Unit</th></tr><tr><td>Odor of Urine</td></tr></table></div>"
        },
        "status": "final",
        "subject": {
          "reference": "urn:uuid:4f094a47-e87c-4f3a-9675-7802cf5c8f76",
          "display": "Victor Lagarde"
        },
        "effectiveDateTime": "2021-06-04T04:48:18Z",
        "specimen": {
          "reference": "urn:uuid:323c028e-78d1-49c5-8b26-a894add6298d"
        }
      }
    },
    {
      "fullUrl": "urn:uuid:2b9d60ba-c995-42c5-ab4e-9797c536c744",
      "resource": {
        "resourceType": "Observation",
        "id": "2b9d60ba-c995-42c5-ab4e-9797c536c744",
        "meta": {
          "profile": [
            "http://hl7.eu/fhir/laboratory/StructureDefinition/Observation-resultslab-eu-lab"
          ]
        },
        "performer": [
          {
            "display": "The Central European Lab"
          }
        ],
        "category": [
          {
            "coding": [
              {
                "system": "http://terminology.hl7.org/CodeSystem/observation-category",
                "code": "laboratory"
              }
            ]
          }
        ],
        "code": {
          "coding": [
            {
              "code": "32167-9",
              "system": "http://loinc.org",
              "display": "Clarity of Urine"
            }
          ],
          "text": "Clarity of Urine"
        },
        "text": {
          "status": "generated",
          "div": "<div xmlns=\"http://www.w3.org/1999/xhtml\"><table class=\"hl7__eu__lab__report\"><tr><th>Test</th><th>04-Jun-2021</th><th>Reference&#xA0;Range</th><th>Unit</th></tr><tr><td>Clarity of Urine</td></tr></table></div>"
        },
        "status": "final",
        "subject": {
          "reference": "urn:uuid:4f094a47-e87c-4f3a-9675-7802cf5c8f76",
          "display": "Victor Lagarde"
        },
        "effectiveDateTime": "2021-06-04T04:48:18Z",
        "specimen": {
          "reference": "urn:uuid:323c028e-78d1-49c5-8b26-a894add6298d"
        }
      }
    },
    {
      "fullUrl": "urn:uuid:3e7db5bc-22e3-4b95-a94d-eea4287dedb9",
      "resource": {
        "resourceType": "Observation",
        "id": "3e7db5bc-22e3-4b95-a94d-eea4287dedb9",
        "meta": {
          "profile": [
            "http://hl7.eu/fhir/laboratory/StructureDefinition/Observation-resultslab-eu-lab"
          ]
        },
        "performer": [
          {
            "display": "The Central European Lab"
          }
        ],
        "category": [
          {
            "coding": [
              {
                "system": "http://terminology.hl7.org/CodeSystem/observation-category",
                "code": "laboratory"
              }
            ]
          }
        ],
        "code": {
          "coding": [
            {
              "code": "5778-6",
              "system": "http://loinc.org",
              "display": "Color of Urine"
            }
          ],
          "text": "Color of Urine"
        },
        "text": {
          "status": "generated",
          "div": "<div xmlns=\"http://www.w3.org/1999/xhtml\"><table class=\"hl7__eu__lab__report\"><tr><th>Test</th><th>04-Jun-2021</th><th>Reference&#xA0;Range</th><th>Unit</th></tr><tr><td>Color of Urine</td></tr></table></div>"
        },
        "status": "final",
        "subject": {
          "reference": "urn:uuid:4f094a47-e87c-4f3a-9675-7802cf5c8f76",
          "display": "Victor Lagarde"
        },
        "effectiveDateTime": "2021-06-04T04:48:18Z",
        "specimen": {
          "reference": "urn:uuid:323c028e-78d1-49c5-8b26-a894add6298d"
        }
      }
    },
    {
      "fullUrl": "urn:uuid:49a67bb4-c886-4dc3-b7e7-ac229db2fd85",
      "resource": {
        "resourceType": "Observation",
        "id": "49a67bb4-c886-4dc3-b7e7-ac229db2fd85",
        "meta": {
          "profile": [
            "http://hl7.eu/fhir/laboratory/StructureDefinition/Observation-resultslab-eu-lab"
          ]
        },
        "performer": [
          {
            "display": "The Central European Lab"
          }
        ],
        "category": [
          {
            "coding": [
              {
                "system": "http://terminology.hl7.org/CodeSystem/observation-category",
                "code": "laboratory"
              }
            ]
          }
        ],
        "code": {
          "coding": [
            {
              "code": "5792-7",
              "system": "http://loinc.org",
              "display": "Glucose [Mass/volume] in Urine by Test strip"
            }
          ],
          "text": "Glucose [Mass/volume] in Urine by Test strip"
        },
        "valueQuantity": {
          "system": "http://unitsofmeasure.org",
          "value": 0.8,
          "unit": "mg/dL",
          "code": "mg/dL"
        },
        "referenceRange": [
          {
            "low": {
              "value": 0,
              "code": "mg/dL",
              "system": "http://unitsofmeasure.org"
            }
          },
          {
            "high": {
              "value": 0.8,
              "code": "mg/dL",
              "system": "http://unitsofmeasure.org"
            }
          }
        ],
        "text": {
          "status": "generated",
          "div": "<div xmlns=\"http://www.w3.org/1999/xhtml\"><table class=\"hl7__eu__lab__report\"><tr><th>Test</th><th>04-Jun-2021</th><th>Reference&#xA0;Range</th><th>Unit</th></tr><tr><td>Glucose [Mass/volume] in Urine by Test strip</td><td>0.8</td><td>0 - 0.8</td><td></td><td>mg/dL</td></tr></table></div>"
        },
        "status": "final",
        "subject": {
          "reference": "urn:uuid:4f094a47-e87c-4f3a-9675-7802cf5c8f76",
          "display": "Victor Lagarde"
        },
        "effectiveDateTime": "2021-06-04T04:48:18Z",
        "specimen": {
          "reference": "urn:uuid:323c028e-78d1-49c5-8b26-a894add6298d"
        }
      }
    },
    {
      "fullUrl": "urn:uuid:65d134b9-fe2a-4ed7-a75b-28aaba194241",
      "resource": {
        "resourceType": "Observation",
        "id": "65d134b9-fe2a-4ed7-a75b-28aaba194241",
        "meta": {
          "profile": [
            "http://hl7.eu/fhir/laboratory/StructureDefinition/Observation-resultslab-eu-lab"
          ]
        },
        "performer": [
          {
            "display": "The Central European Lab"
          }
        ],
        "category": [
          {
            "coding": [
              {
                "system": "http://terminology.hl7.org/CodeSystem/observation-category",
                "code": "laboratory"
              }
            ]
          }
        ],
        "code": {
          "coding": [
            {
              "code": "25428-4",
              "system": "http://loinc.org",
              "display": "Glucose [Presence] in Urine by Test strip"
            }
          ],
          "text": "Glucose [Presence] in Urine by Test strip"
        },
        "text": {
          "status": "generated",
          "div": "<div xmlns=\"http://www.w3.org/1999/xhtml\"><table class=\"hl7__eu__lab__report\"><tr><th>Test</th><th>04-Jun-2021</th><th>Reference&#xA0;Range</th><th>Unit</th></tr><tr><td>Glucose [Presence] in Urine by Test strip</td></tr></table></div>"
        },
        "status": "final",
        "subject": {
          "reference": "urn:uuid:4f094a47-e87c-4f3a-9675-7802cf5c8f76",
          "display": "Victor Lagarde"
        },
        "effectiveDateTime": "2021-06-04T04:48:18Z",
        "specimen": {
          "reference": "urn:uuid:323c028e-78d1-49c5-8b26-a894add6298d"
        }
      }
    },
    {
      "fullUrl": "urn:uuid:d11c737c-e496-460b-a194-140c3c6ced43",
      "resource": {
        "resourceType": "Observation",
        "id": "d11c737c-e496-460b-a194-140c3c6ced43",
        "meta": {
          "profile": [
            "http://hl7.eu/fhir/laboratory/StructureDefinition/Observation-resultslab-eu-lab"
          ]
        },
        "performer": [
          {
            "display": "The Central European Lab"
          }
        ],
        "category": [
          {
            "coding": [
              {
                "system": "http://terminology.hl7.org/CodeSystem/observation-category",
                "code": "laboratory"
              }
            ]
          }
        ],
        "code": {
          "coding": [
            {
              "code": "20505-4",
              "system": "http://loinc.org",
              "display": "Bilirubin.total [Mass/volume] in Urine by Test strip"
            }
          ],
          "text": "Bilirubin.total [Mass/volume] in Urine by Test strip"
        },
        "valueQuantity": {
          "system": "http://unitsofmeasure.org",
          "value": 0.9,
          "unit": "mg/dL",
          "code": "mg/dL"
        },
        "referenceRange": [
          {
            "low": {
              "value": 0,
              "code": "mg/dL",
              "system": "http://unitsofmeasure.org"
            }
          },
          {
            "high": {
              "value": 1.9,
              "code": "mg/dL",
              "system": "http://unitsofmeasure.org"
            }
          }
        ],
        "text": {
          "status": "generated",
          "div": "<div xmlns=\"http://www.w3.org/1999/xhtml\"><table class=\"hl7__eu__lab__report\"><tr><th>Test</th><th>04-Jun-2021</th><th>Reference&#xA0;Range</th><th>Unit</th></tr><tr><td>Bilirubin.total [Mass/volume] in Urine by Test strip</td><td>0.9</td><td>0 - 1.9</td><td></td><td>mg/dL</td></tr></table></div>"
        },
        "status": "final",
        "subject": {
          "reference": "urn:uuid:4f094a47-e87c-4f3a-9675-7802cf5c8f76",
          "display": "Victor Lagarde"
        },
        "effectiveDateTime": "2021-06-04T04:48:18Z",
        "specimen": {
          "reference": "urn:uuid:323c028e-78d1-49c5-8b26-a894add6298d"
        }
      }
    },
    {
      "fullUrl": "urn:uuid:e3dc9c27-9ef4-4eb2-aa26-226c80d50db0",
      "resource": {
        "resourceType": "Observation",
        "id": "e3dc9c27-9ef4-4eb2-aa26-226c80d50db0",
        "meta": {
          "profile": [
            "http://hl7.eu/fhir/laboratory/StructureDefinition/Observation-resultslab-eu-lab"
          ]
        },
        "performer": [
          {
            "display": "The Central European Lab"
          }
        ],
        "category": [
          {
            "coding": [
              {
                "system": "http://terminology.hl7.org/CodeSystem/observation-category",
                "code": "laboratory"
              }
            ]
          }
        ],
        "code": {
          "coding": [
            {
              "code": "5770-3",
              "system": "http://loinc.org",
              "display": "Bilirubin.total [Presence] in Urine by Test strip"
            }
          ],
          "text": "Bilirubin.total [Presence] in Urine by Test strip"
        },
        "text": {
          "status": "generated",
          "div": "<div xmlns=\"http://www.w3.org/1999/xhtml\"><table class=\"hl7__eu__lab__report\"><tr><th>Test</th><th>04-Jun-2021</th><th>Reference&#xA0;Range</th><th>Unit</th></tr><tr><td>Bilirubin.total [Presence] in Urine by Test strip</td></tr></table></div>"
        },
        "status": "final",
        "subject": {
          "reference": "urn:uuid:4f094a47-e87c-4f3a-9675-7802cf5c8f76",
          "display": "Victor Lagarde"
        },
        "effectiveDateTime": "2021-06-04T04:48:18Z",
        "specimen": {
          "reference": "urn:uuid:323c028e-78d1-49c5-8b26-a894add6298d"
        }
      }
    },
    {
      "fullUrl": "urn:uuid:a7f7e562-b767-4e08-b891-17896f1aea1b",
      "resource": {
        "resourceType": "Observation",
        "id": "a7f7e562-b767-4e08-b891-17896f1aea1b",
        "meta": {
          "profile": [
            "http://hl7.eu/fhir/laboratory/StructureDefinition/Observation-resultslab-eu-lab"
          ]
        },
        "performer": [
          {
            "display": "The Central European Lab"
          }
        ],
        "category": [
          {
            "coding": [
              {
                "system": "http://terminology.hl7.org/CodeSystem/observation-category",
                "code": "laboratory"
              }
            ]
          }
        ],
        "code": {
          "coding": [
            {
              "code": "5797-6",
              "system": "http://loinc.org",
              "display": "Ketones [Mass/volume] in Urine by Test strip"
            }
          ],
          "text": "Ketones [Mass/volume] in Urine by Test strip"
        },
        "valueQuantity": {
          "system": "http://unitsofmeasure.org",
          "value": 10.3,
          "unit": "mg/dL",
          "code": "mg/dL"
        },
        "referenceRange": [
          {
            "low": {
              "value": 0,
              "code": "mg/dL",
              "system": "http://unitsofmeasure.org"
            }
          },
          {
            "high": {
              "value": 3,
              "code": "mg/dL",
              "system": "http://unitsofmeasure.org"
            }
          }
        ],
        "interpretation": [
          {
            "coding": [
              {
                "code": "H",
                "system": "http://terminology.hl7.org/CodeSystem/v3-ObservationInterpretation",
                "display": "High"
              }
            ]
          }
        ],
        "text": {
          "status": "generated",
          "div": "<div xmlns=\"http://www.w3.org/1999/xhtml\"><table class=\"hl7__eu__lab__report\"><tr><th>Test</th><th>04-Jun-2021</th><th>Reference&#xA0;Range</th><th>Unit</th></tr><tr><td>Ketones [Mass/volume] in Urine by Test strip</td><td>10.3</td><td>0 - 3</td><td>H</td><td>mg/dL</td></tr></table></div>"
        },
        "status": "final",
        "subject": {
          "reference": "urn:uuid:4f094a47-e87c-4f3a-9675-7802cf5c8f76",
          "display": "Victor Lagarde"
        },
        "effectiveDateTime": "2021-06-04T04:48:18Z",
        "specimen": {
          "reference": "urn:uuid:323c028e-78d1-49c5-8b26-a894add6298d"
        }
      }
    },
    {
      "fullUrl": "urn:uuid:38bfd7de-ea5a-417e-83e4-cee9a918cb4b",
      "resource": {
        "resourceType": "Observation",
        "id": "38bfd7de-ea5a-417e-83e4-cee9a918cb4b",
        "meta": {
          "profile": [
            "http://hl7.eu/fhir/laboratory/StructureDefinition/Observation-resultslab-eu-lab"
          ]
        },
        "performer": [
          {
            "display": "The Central European Lab"
          }
        ],
        "category": [
          {
            "coding": [
              {
                "system": "http://terminology.hl7.org/CodeSystem/observation-category",
                "code": "laboratory"
              }
            ]
          }
        ],
        "code": {
          "coding": [
            {
              "code": "2514-8",
              "system": "http://loinc.org",
              "display": "Ketones [Presence] in Urine by Test strip"
            }
          ],
          "text": "Ketones [Presence] in Urine by Test strip"
        },
        "text": {
          "status": "generated",
          "div": "<div xmlns=\"http://www.w3.org/1999/xhtml\"><table class=\"hl7__eu__lab__report\"><tr><th>Test</th><th>04-Jun-2021</th><th>Reference&#xA0;Range</th><th>Unit</th></tr><tr><td>Ketones [Presence] in Urine by Test strip</td></tr></table></div>"
        },
        "status": "final",
        "subject": {
          "reference": "urn:uuid:4f094a47-e87c-4f3a-9675-7802cf5c8f76",
          "display": "Victor Lagarde"
        },
        "effectiveDateTime": "2021-06-04T04:48:18Z",
        "specimen": {
          "reference": "urn:uuid:323c028e-78d1-49c5-8b26-a894add6298d"
        }
      }
    },
    {
      "fullUrl": "urn:uuid:b438308b-103c-4339-b811-2a512fe29557",
      "resource": {
        "resourceType": "Observation",
        "id": "b438308b-103c-4339-b811-2a512fe29557",
        "meta": {
          "profile": [
            "http://hl7.eu/fhir/laboratory/StructureDefinition/Observation-resultslab-eu-lab"
          ]
        },
        "performer": [
          {
            "display": "The Central European Lab"
          }
        ],
        "category": [
          {
            "coding": [
              {
                "system": "http://terminology.hl7.org/CodeSystem/observation-category",
                "code": "laboratory"
              }
            ]
          }
        ],
        "code": {
          "coding": [
            {
              "code": "5811-5",
              "system": "http://loinc.org",
              "display": "Specific gravity of Urine by Test strip"
            }
          ],
          "text": "Specific gravity of Urine by Test strip"
        },
        "valueQuantity": {
          "system": "http://unitsofmeasure.org",
          "value": 1,
          "unit": "{nominal}",
          "code": "{nominal}"
        },
        "referenceRange": [
          {
            "low": {
              "value": 1.01,
              "code": "g/mL",
              "system": "http://unitsofmeasure.org"
            }
          },
          {
            "high": {
              "value": 1.03,
              "code": "g/mL",
              "system": "http://unitsofmeasure.org"
            }
          }
        ],
        "interpretation": [
          {
            "coding": [
              {
                "code": "L",
                "system": "http://terminology.hl7.org/CodeSystem/v3-ObservationInterpretation",
                "display": "Low"
              }
            ]
          }
        ],
        "text": {
          "status": "generated",
          "div": "<div xmlns=\"http://www.w3.org/1999/xhtml\"><table class=\"hl7__eu__lab__report\"><tr><th>Test</th><th>04-Jun-2021</th><th>Reference&#xA0;Range</th><th>Unit</th></tr><tr><td>Specific gravity of Urine by Test strip</td><td>1.0</td><td>1.01 - 1.03</td><td>L</td><td>{nominal}</td></tr></table></div>"
        },
        "status": "final",
        "subject": {
          "reference": "urn:uuid:4f094a47-e87c-4f3a-9675-7802cf5c8f76",
          "display": "Victor Lagarde"
        },
        "effectiveDateTime": "2021-06-04T04:48:18Z",
        "specimen": {
          "reference": "urn:uuid:323c028e-78d1-49c5-8b26-a894add6298d"
        }
      }
    },
    {
      "fullUrl": "urn:uuid:f8ef0bae-549a-4ad3-a78a-cb24d286b8c0",
      "resource": {
        "resourceType": "Observation",
        "id": "f8ef0bae-549a-4ad3-a78a-cb24d286b8c0",
        "meta": {
          "profile": [
            "http://hl7.eu/fhir/laboratory/StructureDefinition/Observation-resultslab-eu-lab"
          ]
        },
        "performer": [
          {
            "display": "The Central European Lab"
          }
        ],
        "category": [
          {
            "coding": [
              {
                "system": "http://terminology.hl7.org/CodeSystem/observation-category",
                "code": "laboratory"
              }
            ]
          }
        ],
        "code": {
          "coding": [
            {
              "code": "5803-2",
              "system": "http://loinc.org",
              "display": "pH of Urine by Test strip"
            }
          ],
          "text": "pH of Urine by Test strip"
        },
        "valueQuantity": {
          "system": "http://unitsofmeasure.org",
          "value": 6.6,
          "unit": "pH",
          "code": "pH"
        },
        "referenceRange": [
          {
            "low": {
              "value": 4.5,
              "code": "pH",
              "system": "http://unitsofmeasure.org"
            }
          },
          {
            "high": {
              "value": 7.5,
              "code": "pH",
              "system": "http://unitsofmeasure.org"
            }
          }
        ],
        "text": {
          "status": "generated",
          "div": "<div xmlns=\"http://www.w3.org/1999/xhtml\"><table class=\"hl7__eu__lab__report\"><tr><th>Test</th><th>04-Jun-2021</th><th>Reference&#xA0;Range</th><th>Unit</th></tr><tr><td>pH of Urine by Test strip</td><td>6.6</td><td>4.5 - 7.5</td><td></td><td>pH</td></tr></table></div>"
        },
        "status": "final",
        "subject": {
          "reference": "urn:uuid:4f094a47-e87c-4f3a-9675-7802cf5c8f76",
          "display": "Victor Lagarde"
        },
        "effectiveDateTime": "2021-06-04T04:48:18Z",
        "specimen": {
          "reference": "urn:uuid:323c028e-78d1-49c5-8b26-a894add6298d"
        }
      }
    },
    {
      "fullUrl": "urn:uuid:0be7c960-df84-4f23-a146-e5bf1f3dea73",
      "resource": {
        "resourceType": "Observation",
        "id": "0be7c960-df84-4f23-a146-e5bf1f3dea73",
        "meta": {
          "profile": [
            "http://hl7.eu/fhir/laboratory/StructureDefinition/Observation-resultslab-eu-lab"
          ]
        },
        "performer": [
          {
            "display": "The Central European Lab"
          }
        ],
        "category": [
          {
            "coding": [
              {
                "system": "http://terminology.hl7.org/CodeSystem/observation-category",
                "code": "laboratory"
              }
            ]
          }
        ],
        "code": {
          "coding": [
            {
              "code": "5804-0",
              "system": "http://loinc.org",
              "display": "Protein [Mass/volume] in Urine by Test strip"
            }
          ],
          "text": "Protein [Mass/volume] in Urine by Test strip"
        },
        "valueQuantity": {
          "system": "http://unitsofmeasure.org",
          "value": 378.9,
          "unit": "mg/dL",
          "code": "mg/dL"
        },
        "referenceRange": [
          {
            "low": {
              "value": 0,
              "code": "mg/dL",
              "system": "http://unitsofmeasure.org"
            }
          },
          {
            "high": {
              "value": 149,
              "code": "mg/dL",
              "system": "http://unitsofmeasure.org"
            }
          }
        ],
        "interpretation": [
          {
            "coding": [
              {
                "code": "H",
                "system": "http://terminology.hl7.org/CodeSystem/v3-ObservationInterpretation",
                "display": "High"
              }
            ]
          }
        ],
        "text": {
          "status": "generated",
          "div": "<div xmlns=\"http://www.w3.org/1999/xhtml\"><table class=\"hl7__eu__lab__report\"><tr><th>Test</th><th>04-Jun-2021</th><th>Reference&#xA0;Range</th><th>Unit</th></tr><tr><td>Protein [Mass/volume] in Urine by Test strip</td><td>378.9</td><td>0 - 149</td><td>H</td><td>mg/dL</td></tr></table></div>"
        },
        "status": "final",
        "subject": {
          "reference": "urn:uuid:4f094a47-e87c-4f3a-9675-7802cf5c8f76",
          "display": "Victor Lagarde"
        },
        "effectiveDateTime": "2021-06-04T04:48:18Z",
        "specimen": {
          "reference": "urn:uuid:323c028e-78d1-49c5-8b26-a894add6298d"
        }
      }
    },
    {
      "fullUrl": "urn:uuid:090bbe7d-4b9b-4363-9b01-d50c2fa815da",
      "resource": {
        "resourceType": "Observation",
        "id": "090bbe7d-4b9b-4363-9b01-d50c2fa815da",
        "meta": {
          "profile": [
            "http://hl7.eu/fhir/laboratory/StructureDefinition/Observation-resultslab-eu-lab"
          ]
        },
        "performer": [
          {
            "display": "The Central European Lab"
          }
        ],
        "category": [
          {
            "coding": [
              {
                "system": "http://terminology.hl7.org/CodeSystem/observation-category",
                "code": "laboratory"
              }
            ]
          }
        ],
        "code": {
          "coding": [
            {
              "code": "20454-5",
              "system": "http://loinc.org",
              "display": "Protein [Presence] in Urine by Test strip"
            }
          ],
          "text": "Protein [Presence] in Urine by Test strip"
        },
        "text": {
          "status": "generated",
          "div": "<div xmlns=\"http://www.w3.org/1999/xhtml\"><table class=\"hl7__eu__lab__report\"><tr><th>Test</th><th>04-Jun-2021</th><th>Reference&#xA0;Range</th><th>Unit</th></tr><tr><td>Protein [Presence] in Urine by Test strip</td></tr></table></div>"
        },
        "status": "final",
        "subject": {
          "reference": "urn:uuid:4f094a47-e87c-4f3a-9675-7802cf5c8f76",
          "display": "Victor Lagarde"
        },
        "effectiveDateTime": "2021-06-04T04:48:18Z",
        "specimen": {
          "reference": "urn:uuid:323c028e-78d1-49c5-8b26-a894add6298d"
        }
      }
    },
    {
      "fullUrl": "urn:uuid:1bea569a-c0d5-45a9-841a-6aacfa64d5bc",
      "resource": {
        "resourceType": "Observation",
        "id": "1bea569a-c0d5-45a9-841a-6aacfa64d5bc",
        "meta": {
          "profile": [
            "http://hl7.eu/fhir/laboratory/StructureDefinition/Observation-resultslab-eu-lab"
          ]
        },
        "performer": [
          {
            "display": "The Central European Lab"
          }
        ],
        "category": [
          {
            "coding": [
              {
                "system": "http://terminology.hl7.org/CodeSystem/observation-category",
                "code": "laboratory"
              }
            ]
          }
        ],
        "code": {
          "coding": [
            {
              "code": "5802-4",
              "system": "http://loinc.org",
              "display": "Nitrite [Presence] in Urine by Test strip"
            }
          ],
          "text": "Nitrite [Presence] in Urine by Test strip"
        },
        "text": {
          "status": "generated",
          "div": "<div xmlns=\"http://www.w3.org/1999/xhtml\"><table class=\"hl7__eu__lab__report\"><tr><th>Test</th><th>04-Jun-2021</th><th>Reference&#xA0;Range</th><th>Unit</th></tr><tr><td>Nitrite [Presence] in Urine by Test strip</td></tr></table></div>"
        },
        "status": "final",
        "subject": {
          "reference": "urn:uuid:4f094a47-e87c-4f3a-9675-7802cf5c8f76",
          "display": "Victor Lagarde"
        },
        "effectiveDateTime": "2021-06-04T04:48:18Z",
        "specimen": {
          "reference": "urn:uuid:323c028e-78d1-49c5-8b26-a894add6298d"
        }
      }
    },
    {
      "fullUrl": "urn:uuid:79956a0e-0124-4682-b09c-cbaeb56b1f0d",
      "resource": {
        "resourceType": "Observation",
        "id": "79956a0e-0124-4682-b09c-cbaeb56b1f0d",
        "meta": {
          "profile": [
            "http://hl7.eu/fhir/laboratory/StructureDefinition/Observation-resultslab-eu-lab"
          ]
        },
        "performer": [
          {
            "display": "The Central European Lab"
          }
        ],
        "category": [
          {
            "coding": [
              {
                "system": "http://terminology.hl7.org/CodeSystem/observation-category",
                "code": "laboratory"
              }
            ]
          }
        ],
        "code": {
          "coding": [
            {
              "code": "5794-3",
              "system": "http://loinc.org",
              "display": "Hemoglobin [Presence] in Urine by Test strip"
            }
          ],
          "text": "Hemoglobin [Presence] in Urine by Test strip"
        },
        "text": {
          "status": "generated",
          "div": "<div xmlns=\"http://www.w3.org/1999/xhtml\"><table class=\"hl7__eu__lab__report\"><tr><th>Test</th><th>04-Jun-2021</th><th>Reference&#xA0;Range</th><th>Unit</th></tr><tr><td>Hemoglobin [Presence] in Urine by Test strip</td></tr></table></div>"
        },
        "status": "final",
        "subject": {
          "reference": "urn:uuid:4f094a47-e87c-4f3a-9675-7802cf5c8f76",
          "display": "Victor Lagarde"
        },
        "effectiveDateTime": "2021-06-04T04:48:18Z",
        "specimen": {
          "reference": "urn:uuid:323c028e-78d1-49c5-8b26-a894add6298d"
        }
      }
    },
    {
      "fullUrl": "urn:uuid:e46ef4a0-d64d-4c60-9f3e-a6a3c2bb9969",
      "resource": {
        "resourceType": "Observation",
        "id": "e46ef4a0-d64d-4c60-9f3e-a6a3c2bb9969",
        "meta": {
          "profile": [
            "http://hl7.eu/fhir/laboratory/StructureDefinition/Observation-resultslab-eu-lab"
          ]
        },
        "performer": [
          {
            "display": "The Central European Lab"
          }
        ],
        "category": [
          {
            "coding": [
              {
                "system": "http://terminology.hl7.org/CodeSystem/observation-category",
                "code": "laboratory"
              }
            ]
          }
        ],
        "code": {
          "coding": [
            {
              "code": "5799-2",
              "system": "http://loinc.org",
              "display": "Leukocyte esterase [Presence] in Urine by Test strip"
            }
          ],
          "text": "Leukocyte esterase [Presence] in Urine by Test strip"
        },
        "text": {
          "status": "generated",
          "div": "<div xmlns=\"http://www.w3.org/1999/xhtml\"><table class=\"hl7__eu__lab__report\"><tr><th>Test</th><th>04-Jun-2021</th><th>Reference&#xA0;Range</th><th>Unit</th></tr><tr><td>Leukocyte esterase [Presence] in Urine by Test strip</td></tr></table></div>"
        },
        "status": "final",
        "subject": {
          "reference": "urn:uuid:4f094a47-e87c-4f3a-9675-7802cf5c8f76",
          "display": "Victor Lagarde"
        },
        "effectiveDateTime": "2021-06-04T04:48:18Z",
        "specimen": {
          "reference": "urn:uuid:323c028e-78d1-49c5-8b26-a894add6298d"
        }
      }
    },
    {
      "fullUrl": "urn:uuid:5f93b100-1422-4636-aae1-a492b0eacfee",
      "resource": {
        "resourceType": "Observation",
        "id": "5f93b100-1422-4636-aae1-a492b0eacfee",
        "meta": {
          "profile": [
            "http://hl7.eu/fhir/laboratory/StructureDefinition/Observation-resultslab-eu-lab"
          ]
        },
        "performer": [
          {
            "display": "The Central European Lab"
          }
        ],
        "category": [
          {
            "coding": [
              {
                "system": "http://terminology.hl7.org/CodeSystem/observation-category",
                "code": "laboratory"
              }
            ]
          }
        ],
        "code": {
          "coding": [
            {
              "code": "4548-4",
              "system": "http://loinc.org",
              "display": "Hemoglobin A1c/Hemoglobin.total in Blood"
            }
          ],
          "text": "Hemoglobin A1c/Hemoglobin.total in Blood"
        },
        "valueQuantity": {
          "system": "http://unitsofmeasure.org",
          "value": 3.1,
          "unit": "%",
          "code": "%"
        },
        "referenceRange": [
          {
            "low": {
              "value": 4.3,
              "code": "%",
              "system": "http://unitsofmeasure.org"
            }
          },
          {
            "high": {
              "value": 6,
              "code": "%",
              "system": "http://unitsofmeasure.org"
            }
          }
        ],
        "interpretation": [
          {
            "coding": [
              {
                "code": "L",
                "system": "http://terminology.hl7.org/CodeSystem/v3-ObservationInterpretation",
                "display": "Low"
              }
            ]
          }
        ],
        "text": {
          "status": "generated",
          "div": "<div xmlns=\"http://www.w3.org/1999/xhtml\"><table class=\"hl7__eu__lab__report\"><tr><th>Test</th><th>04-Jun-2021</th><th>Reference&#xA0;Range</th><th>Unit</th></tr><tr><td>Hemoglobin A1c/Hemoglobin.total in Blood</td><td>3.1</td><td>4.3 - 6</td><td>L</td><td>%</td></tr></table></div>"
        },
        "status": "final",
        "subject": {
          "reference": "urn:uuid:4f094a47-e87c-4f3a-9675-7802cf5c8f76",
          "display": "Victor Lagarde"
        },
        "effectiveDateTime": "2021-06-04T04:48:18Z",
        "specimen": {
          "reference": "urn:uuid:a56efdbe-8418-449e-9bd5-7cac95e80dd5"
        }
      }
    },
    {
      "fullUrl": "urn:uuid:cf21d125-613b-4ce1-b9d9-6098a1c46281",
      "resource": {
        "resourceType": "Observation",
        "id": "cf21d125-613b-4ce1-b9d9-6098a1c46281",
        "meta": {
          "profile": [
            "http://hl7.eu/fhir/laboratory/StructureDefinition/Observation-resultslab-eu-lab"
          ]
        },
        "performer": [
          {
            "display": "The Central European Lab"
          }
        ],
        "category": [
          {
            "coding": [
              {
                "system": "http://terminology.hl7.org/CodeSystem/observation-category",
                "code": "laboratory"
              }
            ]
          }
        ],
        "code": {
          "coding": [
            {
              "code": "2339-0",
              "system": "http://loinc.org",
              "display": "Glucose [Mass/volume] in Blood"
            }
          ],
          "text": "Glucose [Mass/volume] in Blood"
        },
        "valueQuantity": {
          "system": "http://unitsofmeasure.org",
          "value": 83.2,
          "unit": "mg/dL",
          "code": "mg/dL"
        },
        "referenceRange": [
          {
            "low": {
              "value": 70,
              "code": "mg/dL",
              "system": "http://unitsofmeasure.org"
            }
          },
          {
            "high": {
              "value": 140,
              "code": "mg/dL",
              "system": "http://unitsofmeasure.org"
            }
          }
        ],
        "text": {
          "status": "generated",
          "div": "<div xmlns=\"http://www.w3.org/1999/xhtml\"><table class=\"hl7__eu__lab__report\"><tr><th>Test</th><th>04-Jun-2021</th><th>Reference&#xA0;Range</th><th>Unit</th></tr><tr><td>Glucose [Mass/volume] in Blood</td><td>83.2</td><td>70 - 140</td><td></td><td>mg/dL</td></tr></table></div>"
        },
        "status": "final",
        "subject": {
          "reference": "urn:uuid:4f094a47-e87c-4f3a-9675-7802cf5c8f76",
          "display": "Victor Lagarde"
        },
        "effectiveDateTime": "2021-06-04T04:48:18Z",
        "specimen": {
          "reference": "urn:uuid:a56efdbe-8418-449e-9bd5-7cac95e80dd5"
        }
      }
    },
    {
      "fullUrl": "urn:uuid:52920cd0-423b-4275-ae0c-c79ad6cd30ca",
      "resource": {
        "resourceType": "Observation",
        "id": "52920cd0-423b-4275-ae0c-c79ad6cd30ca",
        "meta": {
          "profile": [
            "http://hl7.eu/fhir/laboratory/StructureDefinition/Observation-resultslab-eu-lab"
          ]
        },
        "performer": [
          {
            "display": "The Central European Lab"
          }
        ],
        "category": [
          {
            "coding": [
              {
                "system": "http://terminology.hl7.org/CodeSystem/observation-category",
                "code": "laboratory"
              }
            ]
          }
        ],
        "code": {
          "coding": [
            {
              "code": "6299-2",
              "system": "http://loinc.org",
              "display": "Urea nitrogen [Mass/volume] in Blood"
            }
          ],
          "text": "Urea nitrogen [Mass/volume] in Blood"
        },
        "valueQuantity": {
          "system": "http://unitsofmeasure.org",
          "value": 12.2,
          "unit": "mg/dL",
          "code": "mg/dL"
        },
        "referenceRange": [
          {
            "low": {
              "value": 7,
              "code": "mg/dL",
              "system": "http://unitsofmeasure.org"
            }
          },
          {
            "high": {
              "value": 20,
              "code": "mg/dL",
              "system": "http://unitsofmeasure.org"
            }
          }
        ],
        "text": {
          "status": "generated",
          "div": "<div xmlns=\"http://www.w3.org/1999/xhtml\"><table class=\"hl7__eu__lab__report\"><tr><th>Test</th><th>04-Jun-2021</th><th>Reference&#xA0;Range</th><th>Unit</th></tr><tr><td>Urea nitrogen [Mass/volume] in Blood</td><td>12.2</td><td>7 - 20</td><td></td><td>mg/dL</td></tr></table></div>"
        },
        "status": "final",
        "subject": {
          "reference": "urn:uuid:4f094a47-e87c-4f3a-9675-7802cf5c8f76",
          "display": "Victor Lagarde"
        },
        "effectiveDateTime": "2021-06-04T04:48:18Z",
        "specimen": {
          "reference": "urn:uuid:a56efdbe-8418-449e-9bd5-7cac95e80dd5"
        }
      }
    },
    {
      "fullUrl": "urn:uuid:40c50a30-e149-4356-a5c9-5cd8f28dbaa6",
      "resource": {
        "resourceType": "Observation",
        "id": "40c50a30-e149-4356-a5c9-5cd8f28dbaa6",
        "meta": {
          "profile": [
            "http://hl7.eu/fhir/laboratory/StructureDefinition/Observation-resultslab-eu-lab"
          ]
        },
        "performer": [
          {
            "display": "The Central European Lab"
          }
        ],
        "category": [
          {
            "coding": [
              {
                "system": "http://terminology.hl7.org/CodeSystem/observation-category",
                "code": "laboratory"
              }
            ]
          }
        ],
        "code": {
          "coding": [
            {
              "code": "38483-4",
              "system": "http://loinc.org",
              "display": "Creatinine [Mass/volume] in Blood"
            }
          ],
          "text": "Creatinine [Mass/volume] in Blood"
        },
        "valueQuantity": {
          "system": "http://unitsofmeasure.org",
          "value": 3.8,
          "unit": "mg/dL",
          "code": "mg/dL"
        },
        "referenceRange": [
          {
            "low": {
              "value": 0.9,
              "code": "mg/dL",
              "system": "http://unitsofmeasure.org"
            }
          },
          {
            "high": {
              "value": 1.3,
              "code": "mg/dL",
              "system": "http://unitsofmeasure.org"
            }
          }
        ],
        "interpretation": [
          {
            "coding": [
              {
                "code": "H",
                "system": "http://terminology.hl7.org/CodeSystem/v3-ObservationInterpretation",
                "display": "High"
              }
            ]
          }
        ],
        "text": {
          "status": "generated",
          "div": "<div xmlns=\"http://www.w3.org/1999/xhtml\"><table class=\"hl7__eu__lab__report\"><tr><th>Test</th><th>04-Jun-2021</th><th>Reference&#xA0;Range</th><th>Unit</th></tr><tr><td>Creatinine [Mass/volume] in Blood</td><td>3.8</td><td>0.9 - 1.3</td><td>H</td><td>mg/dL</td></tr></table></div>"
        },
        "status": "final",
        "subject": {
          "reference": "urn:uuid:4f094a47-e87c-4f3a-9675-7802cf5c8f76",
          "display": "Victor Lagarde"
        },
        "effectiveDateTime": "2021-06-04T04:48:18Z",
        "specimen": {
          "reference": "urn:uuid:a56efdbe-8418-449e-9bd5-7cac95e80dd5"
        }
      }
    },
    {
      "fullUrl": "urn:uuid:236e0873-e424-4bb9-9ab2-3b754e1435c8",
      "resource": {
        "resourceType": "Observation",
        "id": "236e0873-e424-4bb9-9ab2-3b754e1435c8",
        "meta": {
          "profile": [
            "http://hl7.eu/fhir/laboratory/StructureDefinition/Observation-resultslab-eu-lab"
          ]
        },
        "performer": [
          {
            "display": "The Central European Lab"
          }
        ],
        "category": [
          {
            "coding": [
              {
                "system": "http://terminology.hl7.org/CodeSystem/observation-category",
                "code": "laboratory"
              }
            ]
          }
        ],
        "code": {
          "coding": [
            {
              "code": "49765-1",
              "system": "http://loinc.org",
              "display": "Calcium [Mass/volume] in Blood"
            }
          ],
          "text": "Calcium [Mass/volume] in Blood"
        },
        "valueQuantity": {
          "system": "http://unitsofmeasure.org",
          "value": 9.5,
          "unit": "mg/dL",
          "code": "mg/dL"
        },
        "referenceRange": [
          {
            "low": {
              "value": 8.5,
              "code": "mg/dL",
              "system": "http://unitsofmeasure.org"
            }
          },
          {
            "high": {
              "value": 10.5,
              "code": "mg/dL",
              "system": "http://unitsofmeasure.org"
            }
          }
        ],
        "text": {
          "status": "generated",
          "div": "<div xmlns=\"http://www.w3.org/1999/xhtml\"><table class=\"hl7__eu__lab__report\"><tr><th>Test</th><th>04-Jun-2021</th><th>Reference&#xA0;Range</th><th>Unit</th></tr><tr><td>Calcium [Mass/volume] in Blood</td><td>9.5</td><td>8.5 - 10.5</td><td></td><td>mg/dL</td></tr></table></div>"
        },
        "status": "final",
        "subject": {
          "reference": "urn:uuid:4f094a47-e87c-4f3a-9675-7802cf5c8f76",
          "display": "Victor Lagarde"
        },
        "effectiveDateTime": "2021-06-04T04:48:18Z",
        "specimen": {
          "reference": "urn:uuid:a56efdbe-8418-449e-9bd5-7cac95e80dd5"
        }
      }
    },
    {
      "fullUrl": "urn:uuid:c15d2d3b-6a92-43f7-bef7-410eeaa0cacd",
      "resource": {
        "resourceType": "Observation",
        "id": "c15d2d3b-6a92-43f7-bef7-410eeaa0cacd",
        "meta": {
          "profile": [
            "http://hl7.eu/fhir/laboratory/StructureDefinition/Observation-resultslab-eu-lab"
          ]
        },
        "performer": [
          {
            "display": "The Central European Lab"
          }
        ],
        "category": [
          {
            "coding": [
              {
                "system": "http://terminology.hl7.org/CodeSystem/observation-category",
                "code": "laboratory"
              }
            ]
          }
        ],
        "code": {
          "coding": [
            {
              "code": "2947-0",
              "system": "http://loinc.org",
              "display": "Sodium [Moles/volume] in Blood"
            }
          ],
          "text": "Sodium [Moles/volume] in Blood"
        },
        "valueQuantity": {
          "system": "http://unitsofmeasure.org",
          "value": 141.2,
          "unit": "mmol/L",
          "code": "mmol/L"
        },
        "referenceRange": [
          {
            "low": {
              "value": 135,
              "code": "mmol/L",
              "system": "http://unitsofmeasure.org"
            }
          },
          {
            "high": {
              "value": 145,
              "code": "mmol/L",
              "system": "http://unitsofmeasure.org"
            }
          }
        ],
        "text": {
          "status": "generated",
          "div": "<div xmlns=\"http://www.w3.org/1999/xhtml\"><table class=\"hl7__eu__lab__report\"><tr><th>Test</th><th>04-Jun-2021</th><th>Reference&#xA0;Range</th><th>Unit</th></tr><tr><td>Sodium [Moles/volume] in Blood</td><td>141.2</td><td>135 - 145</td><td></td><td>mmol/L</td></tr></table></div>"
        },
        "status": "final",
        "subject": {
          "reference": "urn:uuid:4f094a47-e87c-4f3a-9675-7802cf5c8f76",
          "display": "Victor Lagarde"
        },
        "effectiveDateTime": "2021-06-04T04:48:18Z",
        "specimen": {
          "reference": "urn:uuid:a56efdbe-8418-449e-9bd5-7cac95e80dd5"
        }
      }
    },
    {
      "fullUrl": "urn:uuid:68b6ffaa-ff30-4032-ae76-a98ae79e0cd1",
      "resource": {
        "resourceType": "Observation",
        "id": "68b6ffaa-ff30-4032-ae76-a98ae79e0cd1",
        "meta": {
          "profile": [
            "http://hl7.eu/fhir/laboratory/StructureDefinition/Observation-resultslab-eu-lab"
          ]
        },
        "performer": [
          {
            "display": "The Central European Lab"
          }
        ],
        "category": [
          {
            "coding": [
              {
                "system": "http://terminology.hl7.org/CodeSystem/observation-category",
                "code": "laboratory"
              }
            ]
          }
        ],
        "code": {
          "coding": [
            {
              "code": "6298-4",
              "system": "http://loinc.org",
              "display": "Potassium [Moles/volume] in Blood"
            }
          ],
          "text": "Potassium [Moles/volume] in Blood"
        },
        "valueQuantity": {
          "system": "http://unitsofmeasure.org",
          "value": 4.1,
          "unit": "mmol/L",
          "code": "mmol/L"
        },
        "referenceRange": [
          {
            "low": {
              "value": 3.5,
              "code": "mmol/L",
              "system": "http://unitsofmeasure.org"
            }
          },
          {
            "high": {
              "value": 5.1,
              "code": "mmol/L",
              "system": "http://unitsofmeasure.org"
            }
          }
        ],
        "text": {
          "status": "generated",
          "div": "<div xmlns=\"http://www.w3.org/1999/xhtml\"><table class=\"hl7__eu__lab__report\"><tr><th>Test</th><th>04-Jun-2021</th><th>Reference&#xA0;Range</th><th>Unit</th></tr><tr><td>Potassium [Moles/volume] in Blood</td><td>4.1</td><td>3.5 - 5.1</td><td></td><td>mmol/L</td></tr></table></div>"
        },
        "status": "final",
        "subject": {
          "reference": "urn:uuid:4f094a47-e87c-4f3a-9675-7802cf5c8f76",
          "display": "Victor Lagarde"
        },
        "effectiveDateTime": "2021-06-04T04:48:18Z",
        "specimen": {
          "reference": "urn:uuid:a56efdbe-8418-449e-9bd5-7cac95e80dd5"
        }
      }
    },
    {
      "fullUrl": "urn:uuid:aa7f87ac-cc25-4fa8-b262-cedc99dda5e8",
      "resource": {
        "resourceType": "Observation",
        "id": "aa7f87ac-cc25-4fa8-b262-cedc99dda5e8",
        "meta": {
          "profile": [
            "http://hl7.eu/fhir/laboratory/StructureDefinition/Observation-resultslab-eu-lab"
          ]
        },
        "performer": [
          {
            "display": "The Central European Lab"
          }
        ],
        "category": [
          {
            "coding": [
              {
                "system": "http://terminology.hl7.org/CodeSystem/observation-category",
                "code": "laboratory"
              }
            ]
          }
        ],
        "code": {
          "coding": [
            {
              "code": "2069-3",
              "system": "http://loinc.org",
              "display": "Chloride [Moles/volume] in Blood"
            }
          ],
          "text": "Chloride [Moles/volume] in Blood"
        },
        "valueQuantity": {
          "system": "http://unitsofmeasure.org",
          "value": 108.6,
          "unit": "mmol/L",
          "code": "mmol/L"
        },
        "referenceRange": [
          {
            "low": {
              "value": 98,
              "code": "mmol/L",
              "system": "http://unitsofmeasure.org"
            }
          },
          {
            "high": {
              "value": 108,
              "code": "mmol/L",
              "system": "http://unitsofmeasure.org"
            }
          }
        ],
        "interpretation": [
          {
            "coding": [
              {
                "code": "H",
                "system": "http://terminology.hl7.org/CodeSystem/v3-ObservationInterpretation",
                "display": "High"
              }
            ]
          }
        ],
        "text": {
          "status": "generated",
          "div": "<div xmlns=\"http://www.w3.org/1999/xhtml\"><table class=\"hl7__eu__lab__report\"><tr><th>Test</th><th>04-Jun-2021</th><th>Reference&#xA0;Range</th><th>Unit</th></tr><tr><td>Chloride [Moles/volume] in Blood</td><td>108.6</td><td>98 - 108</td><td>H</td><td>mmol/L</td></tr></table></div>"
        },
        "status": "final",
        "subject": {
          "reference": "urn:uuid:4f094a47-e87c-4f3a-9675-7802cf5c8f76",
          "display": "Victor Lagarde"
        },
        "effectiveDateTime": "2021-06-04T04:48:18Z",
        "specimen": {
          "reference": "urn:uuid:a56efdbe-8418-449e-9bd5-7cac95e80dd5"
        }
      }
    },
    {
      "fullUrl": "urn:uuid:82ee9a45-85d9-4408-82f0-44c9aed260a8",
      "resource": {
        "resourceType": "Observation",
        "id": "82ee9a45-85d9-4408-82f0-44c9aed260a8",
        "meta": {
          "profile": [
            "http://hl7.eu/fhir/laboratory/StructureDefinition/Observation-resultslab-eu-lab"
          ]
        },
        "performer": [
          {
            "display": "The Central European Lab"
          }
        ],
        "category": [
          {
            "coding": [
              {
                "system": "http://terminology.hl7.org/CodeSystem/observation-category",
                "code": "laboratory"
              }
            ]
          }
        ],
        "code": {
          "coding": [
            {
              "code": "20565-8",
              "system": "http://loinc.org",
              "display": "Carbon dioxide, total [Moles/volume] in Blood"
            }
          ],
          "text": "Carbon dioxide, total [Moles/volume] in Blood"
        },
        "valueQuantity": {
          "system": "http://unitsofmeasure.org",
          "value": 26.1,
          "unit": "mmol/L",
          "code": "mmol/L"
        },
        "referenceRange": [
          {
            "low": {
              "value": 22,
              "code": "mmol/L",
              "system": "http://unitsofmeasure.org"
            }
          },
          {
            "high": {
              "value": 29,
              "code": "mmol/L",
              "system": "http://unitsofmeasure.org"
            }
          }
        ],
        "text": {
          "status": "generated",
          "div": "<div xmlns=\"http://www.w3.org/1999/xhtml\"><table class=\"hl7__eu__lab__report\"><tr><th>Test</th><th>04-Jun-2021</th><th>Reference&#xA0;Range</th><th>Unit</th></tr><tr><td>Carbon dioxide, total [Moles/volume] in Blood</td><td>26.1</td><td>22 - 29</td><td></td><td>mmol/L</td></tr></table></div>"
        },
        "status": "final",
        "subject": {
          "reference": "urn:uuid:4f094a47-e87c-4f3a-9675-7802cf5c8f76",
          "display": "Victor Lagarde"
        },
        "effectiveDateTime": "2021-06-04T04:48:18Z",
        "specimen": {
          "reference": "urn:uuid:a56efdbe-8418-449e-9bd5-7cac95e80dd5"
        }
      }
    },
    {
      "fullUrl": "urn:uuid:befac58d-8516-49e7-a277-d4a4b0c3d7c6",
      "resource": {
        "resourceType": "Device",
        "id": "befac58d-8516-49e7-a277-d4a4b0c3d7c6",
        "deviceName": [
          {
            "name": "SYNDERAI Synthetic Generator",
            "type": "manufacturer-name"
          }
        ],
        "version": [
          {
            "value": "5.0"
          }
        ],
        "text": {
          "status": "generated",
          "div": "<div xmlns=\"http://www.w3.org/1999/xhtml\">SYNDERAI Synthetic Generator v5.0</div>"
        },
        "status": "active\"",
        "distinctIdentifier": "synderai-generator-50",
        "manufacturer": "SYNDERAI Project"
      }
    },
    {
      "fullUrl": "urn:uuid:5f474d08-2c61-42b9-83c2-126d349c1002",
      "resource": {
        "resourceType": "Provenance",
        "id": "5f474d08-2c61-42b9-83c2-126d349c1002",
        "target": [
          {
            "reference": "Patient/4f094a47-e87c-4f3a-9675-7802cf5c8f76"
          },
          {
            "reference": "Bundle/53b93d93-93ec-4fe8-9622-33b40f7ab2b0"
          },
          {
            "reference": "Composition/c8ddf14d-6c88-401b-8e2e-a568184d7978"
          },
          {
            "reference": "PractitionerRole/bfbdd505-fdb5-4e6f-b913-0488eb49af10"
          },
          {
            "reference": "Practitioner/d9057d8f-e041-4f87-b6b8-c25f84b4f436"
          },
          {
            "reference": "PractitionerRole/f414bcc0-eb6d-4511-a2cf-a4df3fecc6ef"
          },
          {
            "reference": "Organization/048fc434-3498-45aa-bb8c-548acdc45c17"
          }
        ],
        "activity": {
          "text": "Synthetic Example Data Generation"
        },
        "policy": [
          "https://synderai.net/synderai-synthetic-data-policy"
        ],
        "agent": [
          {
            "type": {
              "text": "author"
            },
            "who": {
              "reference": "Device/befac58d-8516-49e7-a277-d4a4b0c3d7c6"
            }
          }
        ],
        "reason": [
          {
            "text": "Interoperability Testing and Training (non-clinical use)"
          }
        ],
        "text": {
          "status": "generated",
          "div": "<div xmlns=\"http://www.w3.org/1999/xhtml\">Provenance for SYNDERAI Synthetic Example Data Resource</div>"
        },
        "recorded": "2021-06-04T06:48:18Z"
      }
    },
    {
      "fullUrl": "urn:uuid:bfbdd505-fdb5-4e6f-b913-0488eb49af10",
      "resource": {
        "resourceType": "PractitionerRole",
        "id": "bfbdd505-fdb5-4e6f-b913-0488eb49af10",
        "meta": {
          "profile": [
            "http://hl7.eu/fhir/base/StructureDefinition/practitionerRole-eu"
          ]
        },
        "text": {
          "status": "generated",
          "div": "<div xmlns=\"http://www.w3.org/1999/xhtml\">Laboratory Role Id: bfbdd505-fdb5-4e6f-b913-0488eb49af10</div>"
        },
        "practitioner": {
          "reference": "urn:uuid:d9057d8f-e041-4f87-b6b8-c25f84b4f436"
        }
      }
    },
    {
      "fullUrl": "urn:uuid:d9057d8f-e041-4f87-b6b8-c25f84b4f436",
      "resource": {
        "resourceType": "Practitioner",
        "id": "d9057d8f-e041-4f87-b6b8-c25f84b4f436",
        "meta": {
          "profile": [
            "http://hl7.eu/fhir/base/StructureDefinition/practitioner-eu"
          ]
        },
        "identifier": [
          {
            "assigner": {
              "display": "HL7 Europe"
            },
            "system": "urn:oid:2.16.840.1.113883.2.51.999",
            "value": "4ad734aa-0c2a-4c7e-a2fd-26c5c80066ca"
          }
        ],
        "name": [
          {
            "prefix": [
              "dr"
            ],
            "given": [
              "Ex"
            ],
            "family": "Ample"
          }
        ],
        "address": [
          {
            "line": [
              "Laboratoire Central Européenne",
              "Boulevard du Jardin Botanique 32"
            ],
            "postalCode": "1000",
            "city": "Brussels",
            "country": "Belgium"
          }
        ],
        "text": {
          "status": "generated",
          "div": "<div xmlns=\"http://www.w3.org/1999/xhtml\">Laboratory: Laboratoire Central Européenne, 1000 Brussels, Belgium</div>"
        }
      }
    }
  ],
  "type": "document",
  "timestamp": "2021-06-04T06:48:18Z"
}
