{
  "resourceType": "Bundle",
  "id": "986f432e-1b4f-4688-bcf4-402642f46fc9",
  "meta": {
    "profile": [
      "http://hl7.eu/fhir/laboratory/StructureDefinition/Bundle-eu-lab"
    ]
  },
  "identifier": {
    "assigner": {
      "display": "HL7 Europe"
    },
    "system": "urn:oid:2.16.840.1.113883.2.51.999",
    "value": "0305f76f-e5a3-41c0-8842-3d5ff735c190"
  },
  "entry": [
    {
      "fullUrl": "urn:uuid:2d910474-ed73-47a7-b7af-d2a025f8b227",
      "resource": {
        "resourceType": "Composition",
        "id": "2d910474-ed73-47a7-b7af-d2a025f8b227",
        "meta": {
          "profile": [
            "http://hl7.eu/fhir/laboratory/StructureDefinition/Composition-eu-lab"
          ]
        },
        "identifier": {
          "assigner": {
            "display": "HL7 Europe"
          },
          "system": "urn:oid:2.16.840.1.113883.2.51.999",
          "value": "f944d5fb-14d1-4613-9fc8-baf01e0683aa"
        },
        "author": [
          {
            "reference": "urn:uuid:5f3b3089-58ab-4a9a-93be-d31b80fbd99c"
          }
        ],
        "category": [
          {
            "coding": [
              {
                "code": "26436-6",
                "system": "http://loinc.org",
                "display": "Laboratory studies (set)"
              }
            ]
          }
        ],
        "type": {
          "coding": [
            {
              "code": "11502-2",
              "system": "http://loinc.org",
              "display": "Laboratory report"
            }
          ],
          "text": "Laboratory Report"
        },
        "section": [
          {
            "code": {
              "coding": [
                {
                  "code": "26436-6",
                  "system": "http://loinc.org",
                  "display": "Laboratory studies (set)"
                }
              ],
              "text": "Laboratory studies"
            },
            "section": [
              {
                "code": {
                  "coding": [
                    {
                      "code": "$18719-5",
                      "system": "http://loinc.org",
                      "display": "Chemistry studies (set)"
                    }
                  ],
                  "text": "Chemistry"
                },
                "entry": [
                  {
                    "reference": "urn:uuid:53080b26-3cfa-4ddb-8b6b-3de718b1b7f2"
                  },
                  {
                    "reference": "urn:uuid:6bef705b-8908-4e79-bad4-1ab4129ff205"
                  },
                  {
                    "reference": "urn:uuid:c58a3011-7335-481e-a2dc-254995a7ceee"
                  },
                  {
                    "reference": "urn:uuid:4c2386ee-b1de-4d83-9a69-efb74fc8f992"
                  },
                  {
                    "reference": "urn:uuid:f122742e-f0f9-4c7d-836c-0ccd33337887"
                  },
                  {
                    "reference": "urn:uuid:7e7dcfa2-5820-4227-816b-a4d9ffa546c6"
                  },
                  {
                    "reference": "urn:uuid:453bacb6-817a-44bc-a47d-68776297beb4"
                  },
                  {
                    "reference": "urn:uuid:765d7940-4963-44d7-a9d2-c5707ae0e71e"
                  },
                  {
                    "reference": "urn:uuid:4f130f66-5eeb-45f6-8b6f-8ad3dd90bd36"
                  },
                  {
                    "reference": "urn:uuid:dbccb181-5090-4f4c-a9a4-e2f368a87910"
                  },
                  {
                    "reference": "urn:uuid:b2c13b6f-e345-4372-bb91-0daa3b74cb4b"
                  },
                  {
                    "reference": "urn:uuid:a8cc4168-dfff-4faf-a8f9-b7fd7fa3a16b"
                  },
                  {
                    "reference": "urn:uuid:795f79a6-bcd5-4e51-8d9d-6fa9113d6598"
                  },
                  {
                    "reference": "urn:uuid:e3dfe42d-e7b1-4ea9-8ec2-3ec8b03c8411"
                  },
                  {
                    "reference": "urn:uuid:dea69759-1dd8-4921-96c2-56a916da99c5"
                  },
                  {
                    "reference": "urn:uuid:f82118de-465a-4dbf-82b1-9ec271562b6e"
                  },
                  {
                    "reference": "urn:uuid:25a8d3ef-088a-4c5c-808f-2ac77045afd1"
                  },
                  {
                    "reference": "urn:uuid:92e87b6d-c973-46a1-8eb7-a762209d4dc5"
                  },
                  {
                    "reference": "urn:uuid:c7b8071b-3d9b-4693-81b7-15e291c41314"
                  }
                ],
                "text": {
                  "status": "generated",
                  "div": "<div xmlns=\"http://www.w3.org/1999/xhtml\"><h3>Chemistry</h3><table class=\"hl7__eu__lab__report\"><thead><tr><th>Test</th><th>14-JAN-2024</th><th>Reference&#xA0;Range</th><th>Unit</th></tr></thead><tbody><tr><td>Glucose [Mass/volume] in Blood</td><td>95.7</td><td>70 - 140</td><td>mg/dL</td></tr><tr><td>Urea nitrogen [Mass/volume] in Blood</td><td>12.7</td><td>7 - 20</td><td>mg/dL</td></tr><tr><td>Creatinine [Mass/volume] in Blood</td><td><strong>3.4 H</strong></td><td>0.9 - 1.3</td><td>mg/dL</td></tr><tr><td>Calcium [Mass/volume] in Blood</td><td>10.0</td><td>8.5 - 10.5</td><td>mg/dL</td></tr><tr><td>Sodium [Moles/volume] in Blood</td><td>140.9</td><td>135 - 145</td><td>mmol/L</td></tr><tr><td>Potassium [Moles/volume] in Blood</td><td>4.7</td><td>3.5 - 5.1</td><td>mmol/L</td></tr><tr><td>Chloride [Moles/volume] in Blood</td><td>107.0</td><td>98 - 108</td><td>mmol/L</td></tr><tr><td>Carbon dioxide, total [Moles/volume] in Blood</td><td>28.0</td><td>22 - 29</td><td>mmol/L</td></tr><tr><td>Protein [Mass/volume] in Serum or Plasma</td><td>7.1</td><td>6 - 8.3</td><td>g/dL</td></tr><tr><td>Albumin [Mass/volume] in Serum or Plasma</td><td>4.1</td><td>3.5 - 5.5</td><td>g/dL</td></tr><tr><td>Globulin [Mass/volume] in Serum by calculation</td><td>2.0</td><td>2 - 3.5</td><td>g/L</td></tr><tr><td>Bilirubin.total [Mass/volume] in Serum or Plasma</td><td>0.5</td><td>0.3 - 1.2</td><td>mg/dL</td></tr><tr><td>Alkaline phosphatase [Enzymatic activity/volume] in Serum or Plasma</td><td>42.2</td><td>39 - 147</td><td>U/L</td></tr><tr><td>Alanine aminotransferase [Enzymatic activity/volume] in Serum or Plasma</td><td>47.8</td><td>10 - 63</td><td>U/L</td></tr><tr><td>Aspartate aminotransferase [Enzymatic activity/volume] in Serum or Plasma</td><td>22.9</td><td>10 - 40</td><td>U/L</td></tr><tr><td>Cholesterol [Mass/volume] in Serum or Plasma</td><td>199.8</td><td>0 - 200</td><td>mg/dL</td></tr><tr><td>Triglyceride [Mass/volume] in Serum or Plasma</td><td>155.9</td><td>0 - 199</td><td>mg/dL</td></tr><tr><td>Cholesterol in LDL [Mass/volume] in Serum or Plasma by Direct assay</td><td>117.2</td><td>0 - 130</td><td>mg/dL</td></tr><tr><td>Cholesterol in HDL [Mass/volume] in Serum or Plasma</td><td>44.0</td><td>40 - 100</td><td>mg/dL</td></tr></tbody></table></div>"
                },
                "title": "Chemistry"
              }
            ],
            "title": "Laboratory Report"
          },
          {
            "text": {
              "status": "generated",
              "div": "<div xmlns=\"http://www.w3.org/1999/xhtml\"><h3>Annotation</h3><table class=\"hl7__eu__lab__report\"><tr><th>Conclusion and Recommendations based on this report and previous findings known to us</th></tr><tr><td>All parameters are within normal limits except for elevated creatinine, indicating impaired renal function. Lipid profile is at the upper limit of normal but not overtly abnormal. No evidence of electrolyte imbalance, liver dysfunction, or hyperglycemia. Recommend clinical correlation for renal impairment and consideration of further nephrological evaluation.</td></tr></table></div>"
            },
            "code": {
              "coding": [
                {
                  "system": "http://loinc.org",
                  "code": "48767-8",
                  "display": "Annotation comment"
                }
              ]
            },
            "title": "Annotation comment"
          }
        ],
        "status": "final",
        "subject": {
          "reference": "urn:uuid:06ad7465-7ef5-4bd4-b1ed-8b8c086dc63a",
          "display": "Victor Lagarde"
        },
        "date": "2024-01-14T05:48:18Z",
        "title": "Laboratory Report",
        "confidentiality": "N"
      }
    },
    {
      "fullUrl": "urn:uuid:f8b12848-39f8-4335-b59f-879e7e46e1e6",
      "resource": {
        "resourceType": "DiagnosticReport",
        "id": "f8b12848-39f8-4335-b59f-879e7e46e1e6",
        "meta": {
          "profile": [
            "http://hl7.eu/fhir/laboratory/StructureDefinition/DiagnosticReport-eu-lab"
          ]
        },
        "identifier": [
          {
            "assigner": {
              "display": "HL7 Europe"
            },
            "system": "urn:oid:2.16.840.1.113883.2.51.999",
            "value": "cd06da5d-630c-47ab-b0d4-a33ad1145b1e"
          }
        ],
        "extension": [
          {
            "url": "http://hl7.org/fhir/5.0/StructureDefinition/extension-DiagnosticReport.composition",
            "valueReference": {
              "reference": "urn:uuid:f944d5fb-14d1-4613-9fc8-baf01e0683aa"
            }
          }
        ],
        "category": [
          {
            "coding": [
              {
                "code": "26436-6",
                "system": "http://loinc.org",
                "display": "Laboratory studies (set)"
              }
            ]
          }
        ],
        "specimen": [
          {
            "reference": "urn:uuid:f968a1c0-9c84-4d85-a3b7-dc4c2b0434e3"
          },
          {
            "reference": "urn:uuid:7bcf83c0-b9f6-42b5-8aba-4e6ddabed079"
          },
          {
            "reference": "urn:uuid:dfe14d9e-5fb1-4d43-b4f7-0787e30450cc"
          }
        ],
        "result": [
          {
            "reference": "urn:uuid:53080b26-3cfa-4ddb-8b6b-3de718b1b7f2"
          },
          {
            "reference": "urn:uuid:6bef705b-8908-4e79-bad4-1ab4129ff205"
          },
          {
            "reference": "urn:uuid:c58a3011-7335-481e-a2dc-254995a7ceee"
          },
          {
            "reference": "urn:uuid:4c2386ee-b1de-4d83-9a69-efb74fc8f992"
          },
          {
            "reference": "urn:uuid:f122742e-f0f9-4c7d-836c-0ccd33337887"
          },
          {
            "reference": "urn:uuid:7e7dcfa2-5820-4227-816b-a4d9ffa546c6"
          },
          {
            "reference": "urn:uuid:453bacb6-817a-44bc-a47d-68776297beb4"
          },
          {
            "reference": "urn:uuid:765d7940-4963-44d7-a9d2-c5707ae0e71e"
          },
          {
            "reference": "urn:uuid:4f130f66-5eeb-45f6-8b6f-8ad3dd90bd36"
          },
          {
            "reference": "urn:uuid:dbccb181-5090-4f4c-a9a4-e2f368a87910"
          },
          {
            "reference": "urn:uuid:b2c13b6f-e345-4372-bb91-0daa3b74cb4b"
          },
          {
            "reference": "urn:uuid:a8cc4168-dfff-4faf-a8f9-b7fd7fa3a16b"
          },
          {
            "reference": "urn:uuid:795f79a6-bcd5-4e51-8d9d-6fa9113d6598"
          },
          {
            "reference": "urn:uuid:e3dfe42d-e7b1-4ea9-8ec2-3ec8b03c8411"
          },
          {
            "reference": "urn:uuid:dea69759-1dd8-4921-96c2-56a916da99c5"
          },
          {
            "reference": "urn:uuid:f82118de-465a-4dbf-82b1-9ec271562b6e"
          },
          {
            "reference": "urn:uuid:25a8d3ef-088a-4c5c-808f-2ac77045afd1"
          },
          {
            "reference": "urn:uuid:92e87b6d-c973-46a1-8eb7-a762209d4dc5"
          },
          {
            "reference": "urn:uuid:c7b8071b-3d9b-4693-81b7-15e291c41314"
          }
        ],
        "status": "registered",
        "code": {
          "coding": [
            {
              "code": "11502-2",
              "system": "http://loinc.org",
              "display": "Laboratory report"
            }
          ]
        },
        "subject": {
          "reference": "urn:uuid:06ad7465-7ef5-4bd4-b1ed-8b8c086dc63a",
          "display": "Victor Lagarde"
        }
      }
    },
    {
      "fullUrl": "urn:uuid:06ad7465-7ef5-4bd4-b1ed-8b8c086dc63a",
      "resource": {
        "resourceType": "Patient",
        "id": "06ad7465-7ef5-4bd4-b1ed-8b8c086dc63a",
        "meta": {
          "security": [
            {
              "system": "http://terminology.hl7.org/CodeSystem/v3-ActReason",
              "code": "HTEST"
            },
            {
              "system": "http://terminology.hl7.org/CodeSystem/v3-ActReason",
              "code": "TRAIN"
            }
          ],
          "tag": [
            {
              "system": "https://synderai.net/fhir/CodeSystem/tags",
              "code": "synthetic",
              "display": "SYNDERAI Synthetic data"
            }
          ],
          "profile": [
            "http://hl7.eu/fhir/base/StructureDefinition/patient-eu-core"
          ]
        },
        "identifier": [
          {
            "type": {
              "coding": [
                {
                  "code": "PT",
                  "system": "http://terminology.hl7.org/CodeSystem/v2-0203"
                }
              ]
            },
            "system": "http://ec.europa.eu/identifier/eci",
            "value": "9925-001801-9"
          },
          {
            "type": {
              "coding": [
                {
                  "code": "MR",
                  "system": "http://terminology.hl7.org/CodeSystem/v2-0203"
                }
              ]
            },
            "system": "http://local.setting.eu/identifier",
            "value": "22c2dfd0-ac57-8833-2532-848f180896a4"
          }
        ],
        "name": [
          {
            "family": "Lagarde"
          },
          {
            "given": [
              "Victor"
            ]
          },
          {
            "text": "Victor Lagarde"
          }
        ],
        "address": [
          {
            "line": [
              "avenue Robert"
            ],
            "use": "home",
            "type": "physical",
            "postalCode": "80300",
            "city": "Albert",
            "country": "France"
          }
        ],
        "telecom": [
          {
            "system": "phone",
            "value": "0177941801"
          }
        ],
        "extension": [
          {
            "url": "http://hl7.org/fhir/StructureDefinition/patient-nationality",
            "valueCodeableConcept": {
              "coding": [
                {
                  "code": "FR",
                  "system": "http://hl7.org/fhir/ValueSet/country"
                }
              ]
            }
          }
        ],
        "text": {
          "status": "generated",
          "div": "<div xmlns=\"http://www.w3.org/1999/xhtml\"><table class=\"hl7__ips\"><tr><td>Victor Lagarde</td><td>male</td><td>31-Aug-1939</td></tr></table></div>"
        },
        "gender": "male",
        "birthDate": "1939-08-31"
      }
    },
    {
      "fullUrl": "urn:uuid:0b58258d-1f4c-4667-9169-8fa610fc0230",
      "resource": {
        "resourceType": "ServiceRequest",
        "id": "0b58258d-1f4c-4667-9169-8fa610fc0230",
        "meta": {
          "profile": [
            "http://hl7.eu/fhir/laboratory/StructureDefinition/ServiceRequest-eu-lab"
          ]
        },
        "identifier": [
          {
            "system": "http://example.org",
            "value": "b5e8f7ff-016d-4c5a-81d6-ae59cf2b8f04"
          }
        ],
        "specimen": [
          {
            "reference": "urn:uuid:f968a1c0-9c84-4d85-a3b7-dc4c2b0434e3"
          },
          {
            "reference": "urn:uuid:7bcf83c0-b9f6-42b5-8aba-4e6ddabed079"
          },
          {
            "reference": "urn:uuid:dfe14d9e-5fb1-4d43-b4f7-0787e30450cc"
          }
        ],
        "reasonCode": [
          {
            "coding": [
              {
                "code": "433144002",
                "system": "http://snomed.info/sct",
                "display": "Chronic kidney disease stage 3"
              }
            ]
          },
          {
            "coding": [
              {
                "code": "157141000119108",
                "system": "http://snomed.info/sct",
                "display": "Proteinuria due to type 2 diabetes mellitus"
              }
            ]
          },
          {
            "coding": [
              {
                "code": "431856006",
                "system": "http://snomed.info/sct",
                "display": "Chronic kidney disease stage 2"
              }
            ]
          },
          {
            "coding": [
              {
                "code": "90781000119102",
                "system": "http://snomed.info/sct",
                "display": "Microalbuminuria due to type 2 diabetes mellitus"
              }
            ]
          },
          {
            "coding": [
              {
                "code": "127013003",
                "system": "http://snomed.info/sct",
                "display": "Disorder of kidney due to diabetes mellitus"
              }
            ]
          },
          {
            "coding": [
              {
                "code": "431855005",
                "system": "http://snomed.info/sct",
                "display": "Chronic kidney disease stage 1"
              }
            ]
          },
          {
            "coding": [
              {
                "code": "55822004",
                "system": "http://snomed.info/sct",
                "display": "Hyperlipidemia"
              }
            ]
          },
          {
            "coding": [
              {
                "code": "59621000",
                "system": "http://snomed.info/sct",
                "display": "Essential hypertension"
              }
            ]
          },
          {
            "coding": [
              {
                "code": "237602007",
                "system": "http://snomed.info/sct",
                "display": "Metabolic syndrome X"
              }
            ]
          },
          {
            "coding": [
              {
                "code": "414545008",
                "system": "http://snomed.info/sct",
                "display": "Ischemic heart disease"
              }
            ]
          },
          {
            "coding": [
              {
                "code": "40055000",
                "system": "http://snomed.info/sct",
                "display": "Chronic sinusitis"
              }
            ]
          },
          {
            "coding": [
              {
                "code": "15777000",
                "system": "http://snomed.info/sct",
                "display": "Prediabetes"
              }
            ]
          },
          {
            "coding": [
              {
                "code": "271737000",
                "system": "http://snomed.info/sct",
                "display": "Anemia"
              }
            ]
          }
        ],
        "status": "active",
        "intent": "order",
        "code": {
          "coding": [
            {
              "code": "108252007",
              "system": "http://snomed.info/sct",
              "display": "Laboratory procedure"
            }
          ]
        },
        "subject": {
          "reference": "urn:uuid:06ad7465-7ef5-4bd4-b1ed-8b8c086dc63a",
          "display": "Victor Lagarde"
        },
        "requester": {
          "reference": "urn:uuid:b054de16-9e6c-4fd2-bf6e-a68f13472afa"
        }
      }
    },
    {
      "fullUrl": "urn:uuid:b054de16-9e6c-4fd2-bf6e-a68f13472afa",
      "resource": {
        "resourceType": "PractitionerRole",
        "id": "b054de16-9e6c-4fd2-bf6e-a68f13472afa",
        "meta": {
          "profile": [
            "http://hl7.eu/fhir/base/StructureDefinition/practitionerRole-eu"
          ]
        },
        "text": {
          "status": "generated",
          "div": "<div xmlns=\"http://www.w3.org/1999/xhtml\">Provider Role Id: b054de16-9e6c-4fd2-bf6e-a68f13472afa</div>"
        },
        "organization": {
          "reference": "urn:uuid:6cad938a-cb47-4e29-ad44-917ee99381f6"
        }
      }
    },
    {
      "fullUrl": "urn:uuid:6cad938a-cb47-4e29-ad44-917ee99381f6",
      "resource": {
        "resourceType": "Organization",
        "id": "6cad938a-cb47-4e29-ad44-917ee99381f6",
        "meta": {
          "profile": [
            "http://hl7.eu/fhir/base/StructureDefinition/organization-eu"
          ]
        },
        "identifier": [
          {
            "assigner": {
              "display": "HL7 Europe"
            },
            "system": "urn:oid:2.16.840.1.113883.2.51.999",
            "value": "ef3024f1-2e35-4152-ade7-f381b8dfd9b2"
          }
        ],
        "address": [
          {
            "city": "Auxerre",
            "postalCode": "89000",
            "country": "France"
          }
        ],
        "text": {
          "status": "generated",
          "div": "<div xmlns=\"http://www.w3.org/1999/xhtml\">Provider Organization: Thiriot Didier (Cardiologie)</div>"
        },
        "name": "Thiriot Didier (Cardiologie)"
      }
    },
    {
      "fullUrl": "urn:uuid:f968a1c0-9c84-4d85-a3b7-dc4c2b0434e3",
      "resource": {
        "resourceType": "Specimen",
        "id": "f968a1c0-9c84-4d85-a3b7-dc4c2b0434e3",
        "meta": {
          "profile": [
            "http://hl7.eu/fhir/laboratory/StructureDefinition/Specimen-eu-lab"
          ]
        },
        "collection": {
          "collectedDateTime": "2024-01-14"
        },
        "text": {
          "status": "generated",
          "div": "<div xmlns=\"http://www.w3.org/1999/xhtml\"><table class=\"hl7__eu__lab__report\"><tr><th>Specimen</th><th>Collection Date</th></tr><tr><td>Whole blood specimen (specimen)</td><td><span class=\"nb\">14-Jan-2024</span></td></tr></table></div>"
        },
        "type": {
          "coding": [
            {
              "code": "258580003",
              "system": "http://snomed.info/sct",
              "display": "Whole blood specimen (specimen)"
            }
          ]
        }
      }
    },
    {
      "fullUrl": "urn:uuid:7bcf83c0-b9f6-42b5-8aba-4e6ddabed079",
      "resource": {
        "resourceType": "Specimen",
        "id": "7bcf83c0-b9f6-42b5-8aba-4e6ddabed079",
        "meta": {
          "profile": [
            "http://hl7.eu/fhir/laboratory/StructureDefinition/Specimen-eu-lab"
          ]
        },
        "collection": {
          "collectedDateTime": "2024-01-14"
        },
        "text": {
          "status": "generated",
          "div": "<div xmlns=\"http://www.w3.org/1999/xhtml\"><table class=\"hl7__eu__lab__report\"><tr><th>Specimen</th><th>Collection Date</th></tr><tr><td>Acellular blood (serum or plasma) specimen</td><td><span class=\"nb\">14-Jan-2024</span></td></tr></table></div>"
        },
        "type": {
          "coding": [
            {
              "code": "122592007",
              "system": "http://snomed.info/sct",
              "display": "Acellular blood (serum or plasma) specimen"
            }
          ]
        }
      }
    },
    {
      "fullUrl": "urn:uuid:dfe14d9e-5fb1-4d43-b4f7-0787e30450cc",
      "resource": {
        "resourceType": "Specimen",
        "id": "dfe14d9e-5fb1-4d43-b4f7-0787e30450cc",
        "meta": {
          "profile": [
            "http://hl7.eu/fhir/laboratory/StructureDefinition/Specimen-eu-lab"
          ]
        },
        "collection": {
          "collectedDateTime": "2024-01-14"
        },
        "text": {
          "status": "generated",
          "div": "<div xmlns=\"http://www.w3.org/1999/xhtml\"><table class=\"hl7__eu__lab__report\"><tr><th>Specimen</th><th>Collection Date</th></tr><tr><td>Serum specimen</td><td><span class=\"nb\">14-Jan-2024</span></td></tr></table></div>"
        },
        "type": {
          "coding": [
            {
              "code": "119364003",
              "system": "http://snomed.info/sct",
              "display": "Serum specimen"
            }
          ]
        }
      }
    },
    {
      "fullUrl": "urn:uuid:53080b26-3cfa-4ddb-8b6b-3de718b1b7f2",
      "resource": {
        "resourceType": "Observation",
        "id": "53080b26-3cfa-4ddb-8b6b-3de718b1b7f2",
        "meta": {
          "profile": [
            "http://hl7.eu/fhir/laboratory/StructureDefinition/Observation-resultslab-eu-lab"
          ]
        },
        "performer": [
          {
            "display": "The Central European Lab"
          }
        ],
        "category": [
          {
            "coding": [
              {
                "system": "http://terminology.hl7.org/CodeSystem/observation-category",
                "code": "laboratory"
              }
            ]
          }
        ],
        "code": {
          "coding": [
            {
              "code": "2339-0",
              "system": "http://loinc.org",
              "display": "Glucose [Mass/volume] in Blood"
            }
          ],
          "text": "Glucose [Mass/volume] in Blood"
        },
        "valueQuantity": {
          "system": "http://unitsofmeasure.org",
          "value": 95.7,
          "unit": "mg/dL",
          "code": "mg/dL"
        },
        "referenceRange": [
          {
            "low": {
              "value": 70,
              "code": "mg/dL",
              "system": "http://unitsofmeasure.org"
            }
          },
          {
            "high": {
              "value": 140,
              "code": "mg/dL",
              "system": "http://unitsofmeasure.org"
            }
          }
        ],
        "text": {
          "status": "generated",
          "div": "<div xmlns=\"http://www.w3.org/1999/xhtml\"><table class=\"hl7__eu__lab__report\"><tr><th>Test</th><th>14-Jan-2024</th><th>Reference&#xA0;Range</th><th>Unit</th></tr><tr><td>Glucose [Mass/volume] in Blood</td><td>95.7</td><td>70 - 140</td><td></td><td>mg/dL</td></tr></table></div>"
        },
        "status": "final",
        "subject": {
          "reference": "urn:uuid:06ad7465-7ef5-4bd4-b1ed-8b8c086dc63a",
          "display": "Victor Lagarde"
        },
        "effectiveDateTime": "2024-01-14T04:48:18Z",
        "specimen": {
          "reference": "urn:uuid:f968a1c0-9c84-4d85-a3b7-dc4c2b0434e3"
        }
      }
    },
    {
      "fullUrl": "urn:uuid:6bef705b-8908-4e79-bad4-1ab4129ff205",
      "resource": {
        "resourceType": "Observation",
        "id": "6bef705b-8908-4e79-bad4-1ab4129ff205",
        "meta": {
          "profile": [
            "http://hl7.eu/fhir/laboratory/StructureDefinition/Observation-resultslab-eu-lab"
          ]
        },
        "performer": [
          {
            "display": "The Central European Lab"
          }
        ],
        "category": [
          {
            "coding": [
              {
                "system": "http://terminology.hl7.org/CodeSystem/observation-category",
                "code": "laboratory"
              }
            ]
          }
        ],
        "code": {
          "coding": [
            {
              "code": "6299-2",
              "system": "http://loinc.org",
              "display": "Urea nitrogen [Mass/volume] in Blood"
            }
          ],
          "text": "Urea nitrogen [Mass/volume] in Blood"
        },
        "valueQuantity": {
          "system": "http://unitsofmeasure.org",
          "value": 12.7,
          "unit": "mg/dL",
          "code": "mg/dL"
        },
        "referenceRange": [
          {
            "low": {
              "value": 7,
              "code": "mg/dL",
              "system": "http://unitsofmeasure.org"
            }
          },
          {
            "high": {
              "value": 20,
              "code": "mg/dL",
              "system": "http://unitsofmeasure.org"
            }
          }
        ],
        "text": {
          "status": "generated",
          "div": "<div xmlns=\"http://www.w3.org/1999/xhtml\"><table class=\"hl7__eu__lab__report\"><tr><th>Test</th><th>14-Jan-2024</th><th>Reference&#xA0;Range</th><th>Unit</th></tr><tr><td>Urea nitrogen [Mass/volume] in Blood</td><td>12.7</td><td>7 - 20</td><td></td><td>mg/dL</td></tr></table></div>"
        },
        "status": "final",
        "subject": {
          "reference": "urn:uuid:06ad7465-7ef5-4bd4-b1ed-8b8c086dc63a",
          "display": "Victor Lagarde"
        },
        "effectiveDateTime": "2024-01-14T04:48:18Z",
        "specimen": {
          "reference": "urn:uuid:f968a1c0-9c84-4d85-a3b7-dc4c2b0434e3"
        }
      }
    },
    {
      "fullUrl": "urn:uuid:c58a3011-7335-481e-a2dc-254995a7ceee",
      "resource": {
        "resourceType": "Observation",
        "id": "c58a3011-7335-481e-a2dc-254995a7ceee",
        "meta": {
          "profile": [
            "http://hl7.eu/fhir/laboratory/StructureDefinition/Observation-resultslab-eu-lab"
          ]
        },
        "performer": [
          {
            "display": "The Central European Lab"
          }
        ],
        "category": [
          {
            "coding": [
              {
                "system": "http://terminology.hl7.org/CodeSystem/observation-category",
                "code": "laboratory"
              }
            ]
          }
        ],
        "code": {
          "coding": [
            {
              "code": "38483-4",
              "system": "http://loinc.org",
              "display": "Creatinine [Mass/volume] in Blood"
            }
          ],
          "text": "Creatinine [Mass/volume] in Blood"
        },
        "valueQuantity": {
          "system": "http://unitsofmeasure.org",
          "value": 3.4,
          "unit": "mg/dL",
          "code": "mg/dL"
        },
        "referenceRange": [
          {
            "low": {
              "value": 0.9,
              "code": "mg/dL",
              "system": "http://unitsofmeasure.org"
            }
          },
          {
            "high": {
              "value": 1.3,
              "code": "mg/dL",
              "system": "http://unitsofmeasure.org"
            }
          }
        ],
        "interpretation": [
          {
            "coding": [
              {
                "code": "H",
                "system": "http://terminology.hl7.org/CodeSystem/v3-ObservationInterpretation",
                "display": "High"
              }
            ]
          }
        ],
        "text": {
          "status": "generated",
          "div": "<div xmlns=\"http://www.w3.org/1999/xhtml\"><table class=\"hl7__eu__lab__report\"><tr><th>Test</th><th>14-Jan-2024</th><th>Reference&#xA0;Range</th><th>Unit</th></tr><tr><td>Creatinine [Mass/volume] in Blood</td><td>3.4</td><td>0.9 - 1.3</td><td>H</td><td>mg/dL</td></tr></table></div>"
        },
        "status": "final",
        "subject": {
          "reference": "urn:uuid:06ad7465-7ef5-4bd4-b1ed-8b8c086dc63a",
          "display": "Victor Lagarde"
        },
        "effectiveDateTime": "2024-01-14T04:48:18Z",
        "specimen": {
          "reference": "urn:uuid:f968a1c0-9c84-4d85-a3b7-dc4c2b0434e3"
        }
      }
    },
    {
      "fullUrl": "urn:uuid:4c2386ee-b1de-4d83-9a69-efb74fc8f992",
      "resource": {
        "resourceType": "Observation",
        "id": "4c2386ee-b1de-4d83-9a69-efb74fc8f992",
        "meta": {
          "profile": [
            "http://hl7.eu/fhir/laboratory/StructureDefinition/Observation-resultslab-eu-lab"
          ]
        },
        "performer": [
          {
            "display": "The Central European Lab"
          }
        ],
        "category": [
          {
            "coding": [
              {
                "system": "http://terminology.hl7.org/CodeSystem/observation-category",
                "code": "laboratory"
              }
            ]
          }
        ],
        "code": {
          "coding": [
            {
              "code": "49765-1",
              "system": "http://loinc.org",
              "display": "Calcium [Mass/volume] in Blood"
            }
          ],
          "text": "Calcium [Mass/volume] in Blood"
        },
        "valueQuantity": {
          "system": "http://unitsofmeasure.org",
          "value": 10,
          "unit": "mg/dL",
          "code": "mg/dL"
        },
        "referenceRange": [
          {
            "low": {
              "value": 8.5,
              "code": "mg/dL",
              "system": "http://unitsofmeasure.org"
            }
          },
          {
            "high": {
              "value": 10.5,
              "code": "mg/dL",
              "system": "http://unitsofmeasure.org"
            }
          }
        ],
        "text": {
          "status": "generated",
          "div": "<div xmlns=\"http://www.w3.org/1999/xhtml\"><table class=\"hl7__eu__lab__report\"><tr><th>Test</th><th>14-Jan-2024</th><th>Reference&#xA0;Range</th><th>Unit</th></tr><tr><td>Calcium [Mass/volume] in Blood</td><td>10.0</td><td>8.5 - 10.5</td><td></td><td>mg/dL</td></tr></table></div>"
        },
        "status": "final",
        "subject": {
          "reference": "urn:uuid:06ad7465-7ef5-4bd4-b1ed-8b8c086dc63a",
          "display": "Victor Lagarde"
        },
        "effectiveDateTime": "2024-01-14T04:48:18Z",
        "specimen": {
          "reference": "urn:uuid:f968a1c0-9c84-4d85-a3b7-dc4c2b0434e3"
        }
      }
    },
    {
      "fullUrl": "urn:uuid:f122742e-f0f9-4c7d-836c-0ccd33337887",
      "resource": {
        "resourceType": "Observation",
        "id": "f122742e-f0f9-4c7d-836c-0ccd33337887",
        "meta": {
          "profile": [
            "http://hl7.eu/fhir/laboratory/StructureDefinition/Observation-resultslab-eu-lab"
          ]
        },
        "performer": [
          {
            "display": "The Central European Lab"
          }
        ],
        "category": [
          {
            "coding": [
              {
                "system": "http://terminology.hl7.org/CodeSystem/observation-category",
                "code": "laboratory"
              }
            ]
          }
        ],
        "code": {
          "coding": [
            {
              "code": "2947-0",
              "system": "http://loinc.org",
              "display": "Sodium [Moles/volume] in Blood"
            }
          ],
          "text": "Sodium [Moles/volume] in Blood"
        },
        "valueQuantity": {
          "system": "http://unitsofmeasure.org",
          "value": 140.9,
          "unit": "mmol/L",
          "code": "mmol/L"
        },
        "referenceRange": [
          {
            "low": {
              "value": 135,
              "code": "mmol/L",
              "system": "http://unitsofmeasure.org"
            }
          },
          {
            "high": {
              "value": 145,
              "code": "mmol/L",
              "system": "http://unitsofmeasure.org"
            }
          }
        ],
        "text": {
          "status": "generated",
          "div": "<div xmlns=\"http://www.w3.org/1999/xhtml\"><table class=\"hl7__eu__lab__report\"><tr><th>Test</th><th>14-Jan-2024</th><th>Reference&#xA0;Range</th><th>Unit</th></tr><tr><td>Sodium [Moles/volume] in Blood</td><td>140.9</td><td>135 - 145</td><td></td><td>mmol/L</td></tr></table></div>"
        },
        "status": "final",
        "subject": {
          "reference": "urn:uuid:06ad7465-7ef5-4bd4-b1ed-8b8c086dc63a",
          "display": "Victor Lagarde"
        },
        "effectiveDateTime": "2024-01-14T04:48:18Z",
        "specimen": {
          "reference": "urn:uuid:f968a1c0-9c84-4d85-a3b7-dc4c2b0434e3"
        }
      }
    },
    {
      "fullUrl": "urn:uuid:7e7dcfa2-5820-4227-816b-a4d9ffa546c6",
      "resource": {
        "resourceType": "Observation",
        "id": "7e7dcfa2-5820-4227-816b-a4d9ffa546c6",
        "meta": {
          "profile": [
            "http://hl7.eu/fhir/laboratory/StructureDefinition/Observation-resultslab-eu-lab"
          ]
        },
        "performer": [
          {
            "display": "The Central European Lab"
          }
        ],
        "category": [
          {
            "coding": [
              {
                "system": "http://terminology.hl7.org/CodeSystem/observation-category",
                "code": "laboratory"
              }
            ]
          }
        ],
        "code": {
          "coding": [
            {
              "code": "6298-4",
              "system": "http://loinc.org",
              "display": "Potassium [Moles/volume] in Blood"
            }
          ],
          "text": "Potassium [Moles/volume] in Blood"
        },
        "valueQuantity": {
          "system": "http://unitsofmeasure.org",
          "value": 4.7,
          "unit": "mmol/L",
          "code": "mmol/L"
        },
        "referenceRange": [
          {
            "low": {
              "value": 3.5,
              "code": "mmol/L",
              "system": "http://unitsofmeasure.org"
            }
          },
          {
            "high": {
              "value": 5.1,
              "code": "mmol/L",
              "system": "http://unitsofmeasure.org"
            }
          }
        ],
        "text": {
          "status": "generated",
          "div": "<div xmlns=\"http://www.w3.org/1999/xhtml\"><table class=\"hl7__eu__lab__report\"><tr><th>Test</th><th>14-Jan-2024</th><th>Reference&#xA0;Range</th><th>Unit</th></tr><tr><td>Potassium [Moles/volume] in Blood</td><td>4.7</td><td>3.5 - 5.1</td><td></td><td>mmol/L</td></tr></table></div>"
        },
        "status": "final",
        "subject": {
          "reference": "urn:uuid:06ad7465-7ef5-4bd4-b1ed-8b8c086dc63a",
          "display": "Victor Lagarde"
        },
        "effectiveDateTime": "2024-01-14T04:48:18Z",
        "specimen": {
          "reference": "urn:uuid:f968a1c0-9c84-4d85-a3b7-dc4c2b0434e3"
        }
      }
    },
    {
      "fullUrl": "urn:uuid:453bacb6-817a-44bc-a47d-68776297beb4",
      "resource": {
        "resourceType": "Observation",
        "id": "453bacb6-817a-44bc-a47d-68776297beb4",
        "meta": {
          "profile": [
            "http://hl7.eu/fhir/laboratory/StructureDefinition/Observation-resultslab-eu-lab"
          ]
        },
        "performer": [
          {
            "display": "The Central European Lab"
          }
        ],
        "category": [
          {
            "coding": [
              {
                "system": "http://terminology.hl7.org/CodeSystem/observation-category",
                "code": "laboratory"
              }
            ]
          }
        ],
        "code": {
          "coding": [
            {
              "code": "2069-3",
              "system": "http://loinc.org",
              "display": "Chloride [Moles/volume] in Blood"
            }
          ],
          "text": "Chloride [Moles/volume] in Blood"
        },
        "valueQuantity": {
          "system": "http://unitsofmeasure.org",
          "value": 107,
          "unit": "mmol/L",
          "code": "mmol/L"
        },
        "referenceRange": [
          {
            "low": {
              "value": 98,
              "code": "mmol/L",
              "system": "http://unitsofmeasure.org"
            }
          },
          {
            "high": {
              "value": 108,
              "code": "mmol/L",
              "system": "http://unitsofmeasure.org"
            }
          }
        ],
        "text": {
          "status": "generated",
          "div": "<div xmlns=\"http://www.w3.org/1999/xhtml\"><table class=\"hl7__eu__lab__report\"><tr><th>Test</th><th>14-Jan-2024</th><th>Reference&#xA0;Range</th><th>Unit</th></tr><tr><td>Chloride [Moles/volume] in Blood</td><td>107.0</td><td>98 - 108</td><td></td><td>mmol/L</td></tr></table></div>"
        },
        "status": "final",
        "subject": {
          "reference": "urn:uuid:06ad7465-7ef5-4bd4-b1ed-8b8c086dc63a",
          "display": "Victor Lagarde"
        },
        "effectiveDateTime": "2024-01-14T04:48:18Z",
        "specimen": {
          "reference": "urn:uuid:f968a1c0-9c84-4d85-a3b7-dc4c2b0434e3"
        }
      }
    },
    {
      "fullUrl": "urn:uuid:765d7940-4963-44d7-a9d2-c5707ae0e71e",
      "resource": {
        "resourceType": "Observation",
        "id": "765d7940-4963-44d7-a9d2-c5707ae0e71e",
        "meta": {
          "profile": [
            "http://hl7.eu/fhir/laboratory/StructureDefinition/Observation-resultslab-eu-lab"
          ]
        },
        "performer": [
          {
            "display": "The Central European Lab"
          }
        ],
        "category": [
          {
            "coding": [
              {
                "system": "http://terminology.hl7.org/CodeSystem/observation-category",
                "code": "laboratory"
              }
            ]
          }
        ],
        "code": {
          "coding": [
            {
              "code": "20565-8",
              "system": "http://loinc.org",
              "display": "Carbon dioxide, total [Moles/volume] in Blood"
            }
          ],
          "text": "Carbon dioxide, total [Moles/volume] in Blood"
        },
        "valueQuantity": {
          "system": "http://unitsofmeasure.org",
          "value": 28,
          "unit": "mmol/L",
          "code": "mmol/L"
        },
        "referenceRange": [
          {
            "low": {
              "value": 22,
              "code": "mmol/L",
              "system": "http://unitsofmeasure.org"
            }
          },
          {
            "high": {
              "value": 29,
              "code": "mmol/L",
              "system": "http://unitsofmeasure.org"
            }
          }
        ],
        "text": {
          "status": "generated",
          "div": "<div xmlns=\"http://www.w3.org/1999/xhtml\"><table class=\"hl7__eu__lab__report\"><tr><th>Test</th><th>14-Jan-2024</th><th>Reference&#xA0;Range</th><th>Unit</th></tr><tr><td>Carbon dioxide, total [Moles/volume] in Blood</td><td>28.0</td><td>22 - 29</td><td></td><td>mmol/L</td></tr></table></div>"
        },
        "status": "final",
        "subject": {
          "reference": "urn:uuid:06ad7465-7ef5-4bd4-b1ed-8b8c086dc63a",
          "display": "Victor Lagarde"
        },
        "effectiveDateTime": "2024-01-14T04:48:18Z",
        "specimen": {
          "reference": "urn:uuid:f968a1c0-9c84-4d85-a3b7-dc4c2b0434e3"
        }
      }
    },
    {
      "fullUrl": "urn:uuid:4f130f66-5eeb-45f6-8b6f-8ad3dd90bd36",
      "resource": {
        "resourceType": "Observation",
        "id": "4f130f66-5eeb-45f6-8b6f-8ad3dd90bd36",
        "meta": {
          "profile": [
            "http://hl7.eu/fhir/laboratory/StructureDefinition/Observation-resultslab-eu-lab"
          ]
        },
        "performer": [
          {
            "display": "The Central European Lab"
          }
        ],
        "category": [
          {
            "coding": [
              {
                "system": "http://terminology.hl7.org/CodeSystem/observation-category",
                "code": "laboratory"
              }
            ]
          }
        ],
        "code": {
          "coding": [
            {
              "code": "2885-2",
              "system": "http://loinc.org",
              "display": "Protein [Mass/volume] in Serum or Plasma"
            }
          ],
          "text": "Protein [Mass/volume] in Serum or Plasma"
        },
        "valueQuantity": {
          "system": "http://unitsofmeasure.org",
          "value": 7.1,
          "unit": "g/dL",
          "code": "g/dL"
        },
        "referenceRange": [
          {
            "low": {
              "value": 6,
              "code": "g/dL",
              "system": "http://unitsofmeasure.org"
            }
          },
          {
            "high": {
              "value": 8.3,
              "code": "g/dL",
              "system": "http://unitsofmeasure.org"
            }
          }
        ],
        "text": {
          "status": "generated",
          "div": "<div xmlns=\"http://www.w3.org/1999/xhtml\"><table class=\"hl7__eu__lab__report\"><tr><th>Test</th><th>14-Jan-2024</th><th>Reference&#xA0;Range</th><th>Unit</th></tr><tr><td>Protein [Mass/volume] in Serum or Plasma</td><td>7.1</td><td>6 - 8.3</td><td></td><td>g/dL</td></tr></table></div>"
        },
        "status": "final",
        "subject": {
          "reference": "urn:uuid:06ad7465-7ef5-4bd4-b1ed-8b8c086dc63a",
          "display": "Victor Lagarde"
        },
        "effectiveDateTime": "2024-01-14T04:48:18Z",
        "specimen": {
          "reference": "urn:uuid:7bcf83c0-b9f6-42b5-8aba-4e6ddabed079"
        }
      }
    },
    {
      "fullUrl": "urn:uuid:dbccb181-5090-4f4c-a9a4-e2f368a87910",
      "resource": {
        "resourceType": "Observation",
        "id": "dbccb181-5090-4f4c-a9a4-e2f368a87910",
        "meta": {
          "profile": [
            "http://hl7.eu/fhir/laboratory/StructureDefinition/Observation-resultslab-eu-lab"
          ]
        },
        "performer": [
          {
            "display": "The Central European Lab"
          }
        ],
        "category": [
          {
            "coding": [
              {
                "system": "http://terminology.hl7.org/CodeSystem/observation-category",
                "code": "laboratory"
              }
            ]
          }
        ],
        "code": {
          "coding": [
            {
              "code": "1751-7",
              "system": "http://loinc.org",
              "display": "Albumin [Mass/volume] in Serum or Plasma"
            }
          ],
          "text": "Albumin [Mass/volume] in Serum or Plasma"
        },
        "valueQuantity": {
          "system": "http://unitsofmeasure.org",
          "value": 4.1,
          "unit": "g/dL",
          "code": "g/dL"
        },
        "referenceRange": [
          {
            "low": {
              "value": 3.5,
              "code": "g/dL",
              "system": "http://unitsofmeasure.org"
            }
          },
          {
            "high": {
              "value": 5.5,
              "code": "g/dL",
              "system": "http://unitsofmeasure.org"
            }
          }
        ],
        "text": {
          "status": "generated",
          "div": "<div xmlns=\"http://www.w3.org/1999/xhtml\"><table class=\"hl7__eu__lab__report\"><tr><th>Test</th><th>14-Jan-2024</th><th>Reference&#xA0;Range</th><th>Unit</th></tr><tr><td>Albumin [Mass/volume] in Serum or Plasma</td><td>4.1</td><td>3.5 - 5.5</td><td></td><td>g/dL</td></tr></table></div>"
        },
        "status": "final",
        "subject": {
          "reference": "urn:uuid:06ad7465-7ef5-4bd4-b1ed-8b8c086dc63a",
          "display": "Victor Lagarde"
        },
        "effectiveDateTime": "2024-01-14T04:48:18Z",
        "specimen": {
          "reference": "urn:uuid:7bcf83c0-b9f6-42b5-8aba-4e6ddabed079"
        }
      }
    },
    {
      "fullUrl": "urn:uuid:b2c13b6f-e345-4372-bb91-0daa3b74cb4b",
      "resource": {
        "resourceType": "Observation",
        "id": "b2c13b6f-e345-4372-bb91-0daa3b74cb4b",
        "meta": {
          "profile": [
            "http://hl7.eu/fhir/laboratory/StructureDefinition/Observation-resultslab-eu-lab"
          ]
        },
        "performer": [
          {
            "display": "The Central European Lab"
          }
        ],
        "category": [
          {
            "coding": [
              {
                "system": "http://terminology.hl7.org/CodeSystem/observation-category",
                "code": "laboratory"
              }
            ]
          }
        ],
        "code": {
          "coding": [
            {
              "code": "10834-0",
              "system": "http://loinc.org",
              "display": "Globulin [Mass/volume] in Serum by calculation"
            }
          ],
          "text": "Globulin [Mass/volume] in Serum by calculation"
        },
        "valueQuantity": {
          "system": "http://unitsofmeasure.org",
          "value": 2,
          "unit": "g/L",
          "code": "g/L"
        },
        "referenceRange": [
          {
            "low": {
              "value": 2,
              "code": "g/L",
              "system": "http://unitsofmeasure.org"
            }
          },
          {
            "high": {
              "value": 3.5,
              "code": "g/L",
              "system": "http://unitsofmeasure.org"
            }
          }
        ],
        "text": {
          "status": "generated",
          "div": "<div xmlns=\"http://www.w3.org/1999/xhtml\"><table class=\"hl7__eu__lab__report\"><tr><th>Test</th><th>14-Jan-2024</th><th>Reference&#xA0;Range</th><th>Unit</th></tr><tr><td>Globulin [Mass/volume] in Serum by calculation</td><td>2.0</td><td>2 - 3.5</td><td></td><td>g/L</td></tr></table></div>"
        },
        "status": "final",
        "subject": {
          "reference": "urn:uuid:06ad7465-7ef5-4bd4-b1ed-8b8c086dc63a",
          "display": "Victor Lagarde"
        },
        "effectiveDateTime": "2024-01-14T04:48:18Z",
        "specimen": {
          "reference": "urn:uuid:dfe14d9e-5fb1-4d43-b4f7-0787e30450cc"
        }
      }
    },
    {
      "fullUrl": "urn:uuid:a8cc4168-dfff-4faf-a8f9-b7fd7fa3a16b",
      "resource": {
        "resourceType": "Observation",
        "id": "a8cc4168-dfff-4faf-a8f9-b7fd7fa3a16b",
        "meta": {
          "profile": [
            "http://hl7.eu/fhir/laboratory/StructureDefinition/Observation-resultslab-eu-lab"
          ]
        },
        "performer": [
          {
            "display": "The Central European Lab"
          }
        ],
        "category": [
          {
            "coding": [
              {
                "system": "http://terminology.hl7.org/CodeSystem/observation-category",
                "code": "laboratory"
              }
            ]
          }
        ],
        "code": {
          "coding": [
            {
              "code": "1975-2",
              "system": "http://loinc.org",
              "display": "Bilirubin.total [Mass/volume] in Serum or Plasma"
            }
          ],
          "text": "Bilirubin.total [Mass/volume] in Serum or Plasma"
        },
        "valueQuantity": {
          "system": "http://unitsofmeasure.org",
          "value": 0.5,
          "unit": "mg/dL",
          "code": "mg/dL"
        },
        "referenceRange": [
          {
            "low": {
              "value": 0.3,
              "code": "mg/dL",
              "system": "http://unitsofmeasure.org"
            }
          },
          {
            "high": {
              "value": 1.2,
              "code": "mg/dL",
              "system": "http://unitsofmeasure.org"
            }
          }
        ],
        "text": {
          "status": "generated",
          "div": "<div xmlns=\"http://www.w3.org/1999/xhtml\"><table class=\"hl7__eu__lab__report\"><tr><th>Test</th><th>14-Jan-2024</th><th>Reference&#xA0;Range</th><th>Unit</th></tr><tr><td>Bilirubin.total [Mass/volume] in Serum or Plasma</td><td>0.5</td><td>0.3 - 1.2</td><td></td><td>mg/dL</td></tr></table></div>"
        },
        "status": "final",
        "subject": {
          "reference": "urn:uuid:06ad7465-7ef5-4bd4-b1ed-8b8c086dc63a",
          "display": "Victor Lagarde"
        },
        "effectiveDateTime": "2024-01-14T04:48:18Z",
        "specimen": {
          "reference": "urn:uuid:7bcf83c0-b9f6-42b5-8aba-4e6ddabed079"
        }
      }
    },
    {
      "fullUrl": "urn:uuid:795f79a6-bcd5-4e51-8d9d-6fa9113d6598",
      "resource": {
        "resourceType": "Observation",
        "id": "795f79a6-bcd5-4e51-8d9d-6fa9113d6598",
        "meta": {
          "profile": [
            "http://hl7.eu/fhir/laboratory/StructureDefinition/Observation-resultslab-eu-lab"
          ]
        },
        "performer": [
          {
            "display": "The Central European Lab"
          }
        ],
        "category": [
          {
            "coding": [
              {
                "system": "http://terminology.hl7.org/CodeSystem/observation-category",
                "code": "laboratory"
              }
            ]
          }
        ],
        "code": {
          "coding": [
            {
              "code": "6768-6",
              "system": "http://loinc.org",
              "display": "Alkaline phosphatase [Enzymatic activity/volume] in Serum or Plasma"
            }
          ],
          "text": "Alkaline phosphatase [Enzymatic activity/volume] in Serum or Plasma"
        },
        "valueQuantity": {
          "system": "http://unitsofmeasure.org",
          "value": 42.2,
          "unit": "U/L",
          "code": "U/L"
        },
        "referenceRange": [
          {
            "low": {
              "value": 39,
              "code": "U/L",
              "system": "http://unitsofmeasure.org"
            }
          },
          {
            "high": {
              "value": 147,
              "code": "U/L",
              "system": "http://unitsofmeasure.org"
            }
          }
        ],
        "text": {
          "status": "generated",
          "div": "<div xmlns=\"http://www.w3.org/1999/xhtml\"><table class=\"hl7__eu__lab__report\"><tr><th>Test</th><th>14-Jan-2024</th><th>Reference&#xA0;Range</th><th>Unit</th></tr><tr><td>Alkaline phosphatase [Enzymatic activity/volume] in Serum or Plasma</td><td>42.2</td><td>39 - 147</td><td></td><td>U/L</td></tr></table></div>"
        },
        "status": "final",
        "subject": {
          "reference": "urn:uuid:06ad7465-7ef5-4bd4-b1ed-8b8c086dc63a",
          "display": "Victor Lagarde"
        },
        "effectiveDateTime": "2024-01-14T04:48:18Z",
        "specimen": {
          "reference": "urn:uuid:7bcf83c0-b9f6-42b5-8aba-4e6ddabed079"
        }
      }
    },
    {
      "fullUrl": "urn:uuid:e3dfe42d-e7b1-4ea9-8ec2-3ec8b03c8411",
      "resource": {
        "resourceType": "Observation",
        "id": "e3dfe42d-e7b1-4ea9-8ec2-3ec8b03c8411",
        "meta": {
          "profile": [
            "http://hl7.eu/fhir/laboratory/StructureDefinition/Observation-resultslab-eu-lab"
          ]
        },
        "performer": [
          {
            "display": "The Central European Lab"
          }
        ],
        "category": [
          {
            "coding": [
              {
                "system": "http://terminology.hl7.org/CodeSystem/observation-category",
                "code": "laboratory"
              }
            ]
          }
        ],
        "code": {
          "coding": [
            {
              "code": "1742-6",
              "system": "http://loinc.org",
              "display": "Alanine aminotransferase [Enzymatic activity/volume] in Serum or Plasma"
            }
          ],
          "text": "Alanine aminotransferase [Enzymatic activity/volume] in Serum or Plasma"
        },
        "valueQuantity": {
          "system": "http://unitsofmeasure.org",
          "value": 47.8,
          "unit": "U/L",
          "code": "U/L"
        },
        "referenceRange": [
          {
            "low": {
              "value": 10,
              "code": "U/L",
              "system": "http://unitsofmeasure.org"
            }
          },
          {
            "high": {
              "value": 63,
              "code": "U/L",
              "system": "http://unitsofmeasure.org"
            }
          }
        ],
        "text": {
          "status": "generated",
          "div": "<div xmlns=\"http://www.w3.org/1999/xhtml\"><table class=\"hl7__eu__lab__report\"><tr><th>Test</th><th>14-Jan-2024</th><th>Reference&#xA0;Range</th><th>Unit</th></tr><tr><td>Alanine aminotransferase [Enzymatic activity/volume] in Serum or Plasma</td><td>47.8</td><td>10 - 63</td><td></td><td>U/L</td></tr></table></div>"
        },
        "status": "final",
        "subject": {
          "reference": "urn:uuid:06ad7465-7ef5-4bd4-b1ed-8b8c086dc63a",
          "display": "Victor Lagarde"
        },
        "effectiveDateTime": "2024-01-14T04:48:18Z",
        "specimen": {
          "reference": "urn:uuid:7bcf83c0-b9f6-42b5-8aba-4e6ddabed079"
        }
      }
    },
    {
      "fullUrl": "urn:uuid:dea69759-1dd8-4921-96c2-56a916da99c5",
      "resource": {
        "resourceType": "Observation",
        "id": "dea69759-1dd8-4921-96c2-56a916da99c5",
        "meta": {
          "profile": [
            "http://hl7.eu/fhir/laboratory/StructureDefinition/Observation-resultslab-eu-lab"
          ]
        },
        "performer": [
          {
            "display": "The Central European Lab"
          }
        ],
        "category": [
          {
            "coding": [
              {
                "system": "http://terminology.hl7.org/CodeSystem/observation-category",
                "code": "laboratory"
              }
            ]
          }
        ],
        "code": {
          "coding": [
            {
              "code": "1920-8",
              "system": "http://loinc.org",
              "display": "Aspartate aminotransferase [Enzymatic activity/volume] in Serum or Plasma"
            }
          ],
          "text": "Aspartate aminotransferase [Enzymatic activity/volume] in Serum or Plasma"
        },
        "valueQuantity": {
          "system": "http://unitsofmeasure.org",
          "value": 22.9,
          "unit": "U/L",
          "code": "U/L"
        },
        "referenceRange": [
          {
            "low": {
              "value": 10,
              "code": "U/L",
              "system": "http://unitsofmeasure.org"
            }
          },
          {
            "high": {
              "value": 40,
              "code": "U/L",
              "system": "http://unitsofmeasure.org"
            }
          }
        ],
        "text": {
          "status": "generated",
          "div": "<div xmlns=\"http://www.w3.org/1999/xhtml\"><table class=\"hl7__eu__lab__report\"><tr><th>Test</th><th>14-Jan-2024</th><th>Reference&#xA0;Range</th><th>Unit</th></tr><tr><td>Aspartate aminotransferase [Enzymatic activity/volume] in Serum or Plasma</td><td>22.9</td><td>10 - 40</td><td></td><td>U/L</td></tr></table></div>"
        },
        "status": "final",
        "subject": {
          "reference": "urn:uuid:06ad7465-7ef5-4bd4-b1ed-8b8c086dc63a",
          "display": "Victor Lagarde"
        },
        "effectiveDateTime": "2024-01-14T04:48:18Z",
        "specimen": {
          "reference": "urn:uuid:7bcf83c0-b9f6-42b5-8aba-4e6ddabed079"
        }
      }
    },
    {
      "fullUrl": "urn:uuid:f82118de-465a-4dbf-82b1-9ec271562b6e",
      "resource": {
        "resourceType": "Observation",
        "id": "f82118de-465a-4dbf-82b1-9ec271562b6e",
        "meta": {
          "profile": [
            "http://hl7.eu/fhir/laboratory/StructureDefinition/Observation-resultslab-eu-lab"
          ]
        },
        "performer": [
          {
            "display": "The Central European Lab"
          }
        ],
        "category": [
          {
            "coding": [
              {
                "system": "http://terminology.hl7.org/CodeSystem/observation-category",
                "code": "laboratory"
              }
            ]
          }
        ],
        "code": {
          "coding": [
            {
              "code": "2093-3",
              "system": "http://loinc.org",
              "display": "Cholesterol [Mass/volume] in Serum or Plasma"
            }
          ],
          "text": "Cholesterol [Mass/volume] in Serum or Plasma"
        },
        "valueQuantity": {
          "system": "http://unitsofmeasure.org",
          "value": 199.8,
          "unit": "mg/dL",
          "code": "mg/dL"
        },
        "referenceRange": [
          {
            "low": {
              "value": 0,
              "code": "mg/dL",
              "system": "http://unitsofmeasure.org"
            }
          },
          {
            "high": {
              "value": 200,
              "code": "mg/dL",
              "system": "http://unitsofmeasure.org"
            }
          }
        ],
        "text": {
          "status": "generated",
          "div": "<div xmlns=\"http://www.w3.org/1999/xhtml\"><table class=\"hl7__eu__lab__report\"><tr><th>Test</th><th>14-Jan-2024</th><th>Reference&#xA0;Range</th><th>Unit</th></tr><tr><td>Cholesterol [Mass/volume] in Serum or Plasma</td><td>199.8</td><td>0 - 200</td><td></td><td>mg/dL</td></tr></table></div>"
        },
        "status": "final",
        "subject": {
          "reference": "urn:uuid:06ad7465-7ef5-4bd4-b1ed-8b8c086dc63a",
          "display": "Victor Lagarde"
        },
        "effectiveDateTime": "2024-01-14T04:48:18Z",
        "specimen": {
          "reference": "urn:uuid:7bcf83c0-b9f6-42b5-8aba-4e6ddabed079"
        }
      }
    },
    {
      "fullUrl": "urn:uuid:25a8d3ef-088a-4c5c-808f-2ac77045afd1",
      "resource": {
        "resourceType": "Observation",
        "id": "25a8d3ef-088a-4c5c-808f-2ac77045afd1",
        "meta": {
          "profile": [
            "http://hl7.eu/fhir/laboratory/StructureDefinition/Observation-resultslab-eu-lab"
          ]
        },
        "performer": [
          {
            "display": "The Central European Lab"
          }
        ],
        "category": [
          {
            "coding": [
              {
                "system": "http://terminology.hl7.org/CodeSystem/observation-category",
                "code": "laboratory"
              }
            ]
          }
        ],
        "code": {
          "coding": [
            {
              "code": "2571-8",
              "system": "http://loinc.org",
              "display": "Triglyceride [Mass/volume] in Serum or Plasma"
            }
          ],
          "text": "Triglyceride [Mass/volume] in Serum or Plasma"
        },
        "valueQuantity": {
          "system": "http://unitsofmeasure.org",
          "value": 155.9,
          "unit": "mg/dL",
          "code": "mg/dL"
        },
        "referenceRange": [
          {
            "low": {
              "value": 0,
              "code": "mg/dL",
              "system": "http://unitsofmeasure.org"
            }
          },
          {
            "high": {
              "value": 199,
              "code": "mg/dL",
              "system": "http://unitsofmeasure.org"
            }
          }
        ],
        "text": {
          "status": "generated",
          "div": "<div xmlns=\"http://www.w3.org/1999/xhtml\"><table class=\"hl7__eu__lab__report\"><tr><th>Test</th><th>14-Jan-2024</th><th>Reference&#xA0;Range</th><th>Unit</th></tr><tr><td>Triglyceride [Mass/volume] in Serum or Plasma</td><td>155.9</td><td>0 - 199</td><td></td><td>mg/dL</td></tr></table></div>"
        },
        "status": "final",
        "subject": {
          "reference": "urn:uuid:06ad7465-7ef5-4bd4-b1ed-8b8c086dc63a",
          "display": "Victor Lagarde"
        },
        "effectiveDateTime": "2024-01-14T04:48:18Z",
        "specimen": {
          "reference": "urn:uuid:7bcf83c0-b9f6-42b5-8aba-4e6ddabed079"
        }
      }
    },
    {
      "fullUrl": "urn:uuid:92e87b6d-c973-46a1-8eb7-a762209d4dc5",
      "resource": {
        "resourceType": "Observation",
        "id": "92e87b6d-c973-46a1-8eb7-a762209d4dc5",
        "meta": {
          "profile": [
            "http://hl7.eu/fhir/laboratory/StructureDefinition/Observation-resultslab-eu-lab"
          ]
        },
        "performer": [
          {
            "display": "The Central European Lab"
          }
        ],
        "category": [
          {
            "coding": [
              {
                "system": "http://terminology.hl7.org/CodeSystem/observation-category",
                "code": "laboratory"
              }
            ]
          }
        ],
        "code": {
          "coding": [
            {
              "code": "18262-6",
              "system": "http://loinc.org",
              "display": "Cholesterol in LDL [Mass/volume] in Serum or Plasma by Direct assay"
            }
          ],
          "text": "Cholesterol in LDL [Mass/volume] in Serum or Plasma by Direct assay"
        },
        "valueQuantity": {
          "system": "http://unitsofmeasure.org",
          "value": 117.2,
          "unit": "mg/dL",
          "code": "mg/dL"
        },
        "referenceRange": [
          {
            "low": {
              "value": 0,
              "code": "mg/dL",
              "system": "http://unitsofmeasure.org"
            }
          },
          {
            "high": {
              "value": 130,
              "code": "mg/dL",
              "system": "http://unitsofmeasure.org"
            }
          }
        ],
        "text": {
          "status": "generated",
          "div": "<div xmlns=\"http://www.w3.org/1999/xhtml\"><table class=\"hl7__eu__lab__report\"><tr><th>Test</th><th>14-Jan-2024</th><th>Reference&#xA0;Range</th><th>Unit</th></tr><tr><td>Cholesterol in LDL [Mass/volume] in Serum or Plasma by Direct assay</td><td>117.2</td><td>0 - 130</td><td></td><td>mg/dL</td></tr></table></div>"
        },
        "status": "final",
        "subject": {
          "reference": "urn:uuid:06ad7465-7ef5-4bd4-b1ed-8b8c086dc63a",
          "display": "Victor Lagarde"
        },
        "effectiveDateTime": "2024-01-14T04:48:18Z",
        "specimen": {
          "reference": "urn:uuid:7bcf83c0-b9f6-42b5-8aba-4e6ddabed079"
        }
      }
    },
    {
      "fullUrl": "urn:uuid:c7b8071b-3d9b-4693-81b7-15e291c41314",
      "resource": {
        "resourceType": "Observation",
        "id": "c7b8071b-3d9b-4693-81b7-15e291c41314",
        "meta": {
          "profile": [
            "http://hl7.eu/fhir/laboratory/StructureDefinition/Observation-resultslab-eu-lab"
          ]
        },
        "performer": [
          {
            "display": "The Central European Lab"
          }
        ],
        "category": [
          {
            "coding": [
              {
                "system": "http://terminology.hl7.org/CodeSystem/observation-category",
                "code": "laboratory"
              }
            ]
          }
        ],
        "code": {
          "coding": [
            {
              "code": "2085-9",
              "system": "http://loinc.org",
              "display": "Cholesterol in HDL [Mass/volume] in Serum or Plasma"
            }
          ],
          "text": "Cholesterol in HDL [Mass/volume] in Serum or Plasma"
        },
        "valueQuantity": {
          "system": "http://unitsofmeasure.org",
          "value": 44,
          "unit": "mg/dL",
          "code": "mg/dL"
        },
        "referenceRange": [
          {
            "low": {
              "value": 40,
              "code": "mg/dL",
              "system": "http://unitsofmeasure.org"
            }
          },
          {
            "high": {
              "value": 100,
              "code": "mg/dL",
              "system": "http://unitsofmeasure.org"
            }
          }
        ],
        "text": {
          "status": "generated",
          "div": "<div xmlns=\"http://www.w3.org/1999/xhtml\"><table class=\"hl7__eu__lab__report\"><tr><th>Test</th><th>14-Jan-2024</th><th>Reference&#xA0;Range</th><th>Unit</th></tr><tr><td>Cholesterol in HDL [Mass/volume] in Serum or Plasma</td><td>44.0</td><td>40 - 100</td><td></td><td>mg/dL</td></tr></table></div>"
        },
        "status": "final",
        "subject": {
          "reference": "urn:uuid:06ad7465-7ef5-4bd4-b1ed-8b8c086dc63a",
          "display": "Victor Lagarde"
        },
        "effectiveDateTime": "2024-01-14T04:48:18Z",
        "specimen": {
          "reference": "urn:uuid:7bcf83c0-b9f6-42b5-8aba-4e6ddabed079"
        }
      }
    },
    {
      "fullUrl": "urn:uuid:ca9396cf-f6d2-4a36-88ae-88a6b31f0ec7",
      "resource": {
        "resourceType": "Device",
        "id": "ca9396cf-f6d2-4a36-88ae-88a6b31f0ec7",
        "deviceName": [
          {
            "name": "SYNDERAI Synthetic Generator",
            "type": "manufacturer-name"
          }
        ],
        "version": [
          {
            "value": "5.0"
          }
        ],
        "text": {
          "status": "generated",
          "div": "<div xmlns=\"http://www.w3.org/1999/xhtml\">SYNDERAI Synthetic Generator v5.0</div>"
        },
        "status": "active\"",
        "distinctIdentifier": "synderai-generator-50",
        "manufacturer": "SYNDERAI Project"
      }
    },
    {
      "fullUrl": "urn:uuid:19d2c26e-8c6c-425f-943b-6e914d083b07",
      "resource": {
        "resourceType": "Provenance",
        "id": "19d2c26e-8c6c-425f-943b-6e914d083b07",
        "target": [
          {
            "reference": "Patient/06ad7465-7ef5-4bd4-b1ed-8b8c086dc63a"
          },
          {
            "reference": "Bundle/986f432e-1b4f-4688-bcf4-402642f46fc9"
          },
          {
            "reference": "Composition/2d910474-ed73-47a7-b7af-d2a025f8b227"
          },
          {
            "reference": "PractitionerRole/5f3b3089-58ab-4a9a-93be-d31b80fbd99c"
          },
          {
            "reference": "Practitioner/8f3f6a20-79a9-4c7f-b7f7-6146494ad9e1"
          },
          {
            "reference": "PractitionerRole/b054de16-9e6c-4fd2-bf6e-a68f13472afa"
          },
          {
            "reference": "Organization/6cad938a-cb47-4e29-ad44-917ee99381f6"
          }
        ],
        "activity": {
          "text": "Synthetic Example Data Generation"
        },
        "policy": [
          "https://synderai.net/synderai-synthetic-data-policy"
        ],
        "agent": [
          {
            "type": {
              "text": "author"
            },
            "who": {
              "reference": "Device/ca9396cf-f6d2-4a36-88ae-88a6b31f0ec7"
            }
          }
        ],
        "reason": [
          {
            "text": "Interoperability Testing and Training (non-clinical use)"
          }
        ],
        "text": {
          "status": "generated",
          "div": "<div xmlns=\"http://www.w3.org/1999/xhtml\">Provenance for SYNDERAI Synthetic Example Data Resource</div>"
        },
        "recorded": "2024-01-14T05:48:18Z"
      }
    },
    {
      "fullUrl": "urn:uuid:5f3b3089-58ab-4a9a-93be-d31b80fbd99c",
      "resource": {
        "resourceType": "PractitionerRole",
        "id": "5f3b3089-58ab-4a9a-93be-d31b80fbd99c",
        "meta": {
          "profile": [
            "http://hl7.eu/fhir/base/StructureDefinition/practitionerRole-eu"
          ]
        },
        "text": {
          "status": "generated",
          "div": "<div xmlns=\"http://www.w3.org/1999/xhtml\">Laboratory Role Id: 5f3b3089-58ab-4a9a-93be-d31b80fbd99c</div>"
        },
        "practitioner": {
          "reference": "urn:uuid:8f3f6a20-79a9-4c7f-b7f7-6146494ad9e1"
        }
      }
    },
    {
      "fullUrl": "urn:uuid:8f3f6a20-79a9-4c7f-b7f7-6146494ad9e1",
      "resource": {
        "resourceType": "Practitioner",
        "id": "8f3f6a20-79a9-4c7f-b7f7-6146494ad9e1",
        "meta": {
          "profile": [
            "http://hl7.eu/fhir/base/StructureDefinition/practitioner-eu"
          ]
        },
        "identifier": [
          {
            "assigner": {
              "display": "HL7 Europe"
            },
            "system": "urn:oid:2.16.840.1.113883.2.51.999",
            "value": "3bbb41c0-6bfb-4523-9646-0b834f4ffc24"
          }
        ],
        "name": [
          {
            "prefix": [
              "dr"
            ],
            "given": [
              "Ex"
            ],
            "family": "Ample"
          }
        ],
        "address": [
          {
            "line": [
              "Laboratoire Central Europenne",
              "Boulevard du Jardin Botanique 32"
            ],
            "postalCode": "1000",
            "city": "Brussels",
            "country": "Belgium"
          }
        ],
        "text": {
          "status": "generated",
          "div": "<div xmlns=\"http://www.w3.org/1999/xhtml\">Laboratory: Laboratoire Central Europenne, 1000 Brussels, Belgium</div>"
        }
      }
    }
  ],
  "type": "document",
  "timestamp": "2024-01-14T05:48:18Z"
}
