{
  "resourceType": "Bundle",
  "id": "92301c6d-e3e2-413e-98ca-20a3b6f0fd98",
  "meta": {
    "profile": [
      "http://hl7.eu/fhir/laboratory/StructureDefinition/Bundle-eu-lab"
    ]
  },
  "identifier": {
    "assigner": {
      "display": "HL7 Europe"
    },
    "system": "urn:oid:2.16.840.1.113883.2.51.999",
    "value": "bdc7072d-ad47-40cd-9086-bffaced0488f"
  },
  "entry": [
    {
      "fullUrl": "urn:uuid:59f023a4-3725-4fe9-93a1-31d8adb3b041",
      "resource": {
        "resourceType": "Composition",
        "id": "59f023a4-3725-4fe9-93a1-31d8adb3b041",
        "meta": {
          "profile": [
            "http://hl7.eu/fhir/laboratory/StructureDefinition/Composition-eu-lab"
          ]
        },
        "identifier": {
          "assigner": {
            "display": "HL7 Europe"
          },
          "system": "urn:oid:2.16.840.1.113883.2.51.999",
          "value": "d46851a8-c247-4b23-bf6e-bbf2f6f5addb"
        },
        "author": [
          {
            "reference": "urn:uuid:5ed6dc18-ce79-4f4a-b2b6-d0bfe26b26c6"
          }
        ],
        "category": [
          {
            "coding": [
              {
                "code": "26436-6",
                "system": "http://loinc.org",
                "display": "Laboratory studies (set)"
              }
            ]
          }
        ],
        "type": {
          "coding": [
            {
              "code": "11502-2",
              "system": "http://loinc.org",
              "display": "Laboratory report"
            }
          ],
          "text": "Laboratory Report"
        },
        "section": [
          {
            "code": {
              "coding": [
                {
                  "code": "26436-6",
                  "system": "http://loinc.org",
                  "display": "Laboratory studies (set)"
                }
              ],
              "text": "Laboratory studies"
            },
            "section": [
              {
                "code": {
                  "coding": [
                    {
                      "code": "$18719-5",
                      "system": "http://loinc.org",
                      "display": "Chemistry studies (set)"
                    }
                  ],
                  "text": "Chemistry"
                },
                "entry": [
                  {
                    "reference": "urn:uuid:d8cfa88f-9ca3-4b32-941c-30f859cbb871"
                  },
                  {
                    "reference": "urn:uuid:3be4a492-76c3-4efc-8945-94dae6d37b83"
                  },
                  {
                    "reference": "urn:uuid:05b79382-45cc-498d-b479-381d23f0340d"
                  },
                  {
                    "reference": "urn:uuid:a3a418e0-ace6-43b4-93a3-9e095be67e6c"
                  },
                  {
                    "reference": "urn:uuid:14d8fb3a-7122-49e8-8894-38c80cef5fa9"
                  },
                  {
                    "reference": "urn:uuid:a62c183d-fe2e-4a2a-ba50-56fc00abdda9"
                  },
                  {
                    "reference": "urn:uuid:60c9b25d-5520-4b94-b8ac-95a493f1ae01"
                  },
                  {
                    "reference": "urn:uuid:d09d8ea8-1cc6-4cf8-9ec5-9268dddd16cc"
                  },
                  {
                    "reference": "urn:uuid:875b816a-195b-4276-8a4c-7212fc09e2d3"
                  },
                  {
                    "reference": "urn:uuid:6ba307e4-9890-4dd7-9fce-211d3a2373f7"
                  },
                  {
                    "reference": "urn:uuid:ef1efb13-9774-4c86-bb0d-af26dbbf9931"
                  },
                  {
                    "reference": "urn:uuid:ba193921-66a1-4187-a2e2-e7553be3cc52"
                  },
                  {
                    "reference": "urn:uuid:0134ee70-0b9a-4e5f-8127-d7527b4bd14f"
                  },
                  {
                    "reference": "urn:uuid:c170ff2c-ef50-47de-8d89-fbbf57c0111c"
                  },
                  {
                    "reference": "urn:uuid:3faf5c83-daa0-426b-a30b-44aaaf05a32b"
                  },
                  {
                    "reference": "urn:uuid:9622e63f-c1aa-41df-b816-b62cf29c6937"
                  },
                  {
                    "reference": "urn:uuid:6bae0c79-c737-4597-928d-1782055981a0"
                  },
                  {
                    "reference": "urn:uuid:23e59ca7-4edb-4c64-939d-99e89ac22a1e"
                  }
                ],
                "text": {
                  "status": "generated",
                  "div": "<div xmlns=\"http://www.w3.org/1999/xhtml\"><h3>Chemistry</h3><table class=\"hl7__eu__lab__report\"><thead><tr><th>Test</th><th>18-OCT-2022</th><th>Reference&#xA0;Range</th><th>Unit</th></tr></thead><tbody><tr><td>Glucose [Mass/volume] in Serum or Plasma</td><td>91.4</td><td>70 - 99</td><td>mg/dL</td></tr><tr><td>Urea nitrogen [Mass/volume] in Serum or Plasma</td><td>10.5</td><td>7 - 50</td><td>mg/dL</td></tr><tr><td>Creatinine [Mass/volume] in Serum or Plasma</td><td><strong>1.9 H</strong></td><td>0.6 - 1.1</td><td>mg/dL</td></tr><tr><td>Calcium [Mass/volume] in Serum or Plasma</td><td>8.9</td><td>8.6 - 10.4</td><td>mg/dL</td></tr><tr><td>Sodium [Moles/volume] in Serum or Plasma</td><td>137.5</td><td>135 - 145</td><td>mmol/L</td></tr><tr><td>Potassium [Moles/volume] in Serum or Plasma</td><td>5.1</td><td>3.5 - 5.1</td><td>mmol/L</td></tr><tr><td>Chloride [Moles/volume] in Serum or Plasma</td><td>107.3</td><td>98 - 108</td><td>mmol/L</td></tr><tr><td>Carbon dioxide, total [Moles/volume] in Serum or Plasma</td><td>27.9</td><td>22 - 32</td><td>mmol/L</td></tr><tr><td>Ketones [Presence] in Urine by Test strip</td><td>Urine ketone test = ++</td><td></td><td></td></tr><tr><td>Hemoglobin A1c/Hemoglobin.total in Blood</td><td><strong>3.1 L</strong></td><td>4 - 6.4</td><td>%</td></tr><tr><td>Glucose [Mass/volume] in Blood</td><td>91.4</td><td>70 - 100</td><td>mg/dL</td></tr><tr><td>Urea nitrogen [Mass/volume] in Blood</td><td>10.5</td><td>7 - 43</td><td>mg/dL</td></tr><tr><td>Creatinine [Mass/volume] in Blood</td><td><strong>4.0 H</strong></td><td>0.6 - 1.1</td><td>mg/dL</td></tr><tr><td>Calcium [Mass/volume] in Blood</td><td>8.9</td><td>8.5 - 10.5</td><td>mg/dL</td></tr><tr><td>Sodium [Moles/volume] in Blood</td><td>137.5</td><td>135 - 145</td><td>mmol/L</td></tr><tr><td>Potassium [Moles/volume] in Blood</td><td>5.1</td><td>3.5 - 5.1</td><td>mmol/L</td></tr><tr><td>Chloride [Moles/volume] in Blood</td><td>107.3</td><td>98 - 108</td><td>mmol/L</td></tr><tr><td>Carbon dioxide, total [Moles/volume] in Blood</td><td>27.9</td><td>22 - 29</td><td>mmol/L</td></tr></tbody></table></div>"
                },
                "title": "Chemistry"
              },
              {
                "code": {
                  "coding": [
                    {
                      "code": "$18729-4",
                      "system": "http://loinc.org",
                      "display": "Urinalysis studies (set)"
                    }
                  ],
                  "text": "Urinalysis"
                },
                "entry": [
                  {
                    "reference": "urn:uuid:77e610d0-27cc-46c6-bcd3-bab6a79f4551"
                  },
                  {
                    "reference": "urn:uuid:8d5e2968-ef73-41be-845c-b6bc7713e8d4"
                  },
                  {
                    "reference": "urn:uuid:38f2eca0-6033-44f1-86ce-f721c9aa67f0"
                  },
                  {
                    "reference": "urn:uuid:cd065bc4-7240-47bd-8b65-48e1427bd261"
                  },
                  {
                    "reference": "urn:uuid:424479b7-eaac-4e0c-9f88-ee021c841f30"
                  },
                  {
                    "reference": "urn:uuid:f7cb1e8f-aadb-47dc-9dec-ba26602e1460"
                  },
                  {
                    "reference": "urn:uuid:6ec9933c-2080-454b-83a9-b099b63689fb"
                  },
                  {
                    "reference": "urn:uuid:d0bda832-a6ae-457e-8bf5-91dd62f004e4"
                  },
                  {
                    "reference": "urn:uuid:bf4fddd6-50bc-4d0d-be73-db9ed1e15fd7"
                  },
                  {
                    "reference": "urn:uuid:39d563e3-51f7-4b75-a8c6-cac6249d18b2"
                  },
                  {
                    "reference": "urn:uuid:356218d5-2d85-4242-af77-bdc671f11dc0"
                  },
                  {
                    "reference": "urn:uuid:747225ce-4018-43db-b4e7-d82c9e758f73"
                  }
                ],
                "text": {
                  "status": "generated",
                  "div": "<div xmlns=\"http://www.w3.org/1999/xhtml\"><h3>Urinalysis</h3><table class=\"hl7__eu__lab__report\"><thead><tr><th>Test</th><th>18-OCT-2022</th><th>Reference&#xA0;Range</th><th>Unit</th></tr></thead><tbody><tr><td>Glucose [Mass/volume] in Urine by Test strip</td><td><strong>0.8 H</strong></td><td>0.8 - 0</td><td>mg/dL</td></tr><tr><td>Glucose [Presence] in Urine by Test strip</td><td>++</td><td></td><td></td></tr><tr><td>Bilirubin.total [Mass/volume] in Urine by Test strip</td><td>0.5</td><td>0 - 1</td><td>mg/dL</td></tr><tr><td>Bilirubin.total [Presence] in Urine by Test strip</td><td>Finding of bilirubin in urine</td><td></td><td></td></tr><tr><td>Ketones [Mass/volume] in Urine by Test strip</td><td>3.0</td><td>0 - 4</td><td>mg/dL</td></tr><tr><td>Specific gravity of Urine by Test strip</td><td><strong>1.0 L</strong></td><td>1.005 - 1.03</td><td>{nominal}</td></tr><tr><td>pH of Urine by Test strip</td><td>6.5</td><td>4.6 - 7</td><td>pH</td></tr><tr><td>Protein [Mass/volume] in Urine by Test strip</td><td><strong>374.0 H</strong></td><td>0 - 14</td><td>mg/dL</td></tr><tr><td>Protein [Presence] in Urine by Test strip</td><td>Urine protein test = ++</td><td></td><td></td></tr><tr><td>Nitrite [Presence] in Urine by Test strip</td><td>Urine nitrite negative</td><td></td><td></td></tr><tr><td>Hemoglobin [Presence] in Urine by Test strip</td><td>Urine blood test = negative</td><td></td><td></td></tr><tr><td>Leukocyte esterase [Presence] in Urine by Test strip</td><td>Urine leukocyte test negative</td><td></td><td></td></tr></tbody></table></div>"
                },
                "title": "Urinalysis"
              },
              {
                "code": {
                  "coding": [
                    {
                      "code": "$LP7846-1",
                      "system": "http://loinc.org",
                      "display": "Specimen information"
                    }
                  ],
                  "text": "Specimen information"
                },
                "entry": [
                  {
                    "reference": "urn:uuid:165c5722-1be1-468a-893b-5b80b6e6c05d"
                  },
                  {
                    "reference": "urn:uuid:a619a043-7bf4-416b-8316-3931160d5e79"
                  },
                  {
                    "reference": "urn:uuid:2acdcfc9-6503-4715-b49e-a499b280cbb0"
                  },
                  {
                    "reference": "urn:uuid:06ae7623-0eb1-4cc3-b11f-c40e39134e25"
                  }
                ],
                "text": {
                  "status": "generated",
                  "div": "<div xmlns=\"http://www.w3.org/1999/xhtml\"><h3>Specimen information</h3><table class=\"hl7__eu__lab__report\"><thead><tr><th>Test</th><th>18-OCT-2022</th><th>Specimen</th><th></th></tr></thead><tbody><tr><td>Appearance of Urine</td><td>Cloudy urine</td><td>Urine</td><td></td></tr><tr><td>Odor of Urine</td><td>Urine smell ammoniacal</td><td>Urine</td><td></td></tr><tr><td>Clarity of Urine</td><td>Translucent</td><td>Urine</td><td></td></tr><tr><td>Color of Urine</td><td>Brown color</td><td>Urine</td><td></td></tr></tbody></table></div>"
                },
                "title": "Specimen information"
              }
            ],
            "title": "Laboratory Report"
          },
          {
            "text": {
              "status": "generated",
              "div": "<div xmlns=\"http://www.w3.org/1999/xhtml\"><h3>Annotation</h3><table class=\"hl7__eu__lab__report\"><tr><th>Conclusion and Recommendations based on this report and previous findings known to us</th></tr><tr><td>The patient shows markedly elevated creatinine, significant proteinuria, and abnormal urine findings (cloudy, brown, low specific gravity, presence of glucose, ketones, and bilirubin), suggesting acute or chronic renal dysfunction with possible nephrotic features. Blood glucose is normal, but HbA1c is unexpectedly low. No evidence of urinary tract infection. Recommend urgent nephrology evaluation for further assessment and management.</td></tr></table></div>"
            },
            "code": {
              "coding": [
                {
                  "system": "http://loinc.org",
                  "code": "48767-8",
                  "display": "Annotation comment"
                }
              ]
            },
            "title": "Annotation comment"
          }
        ],
        "status": "final",
        "subject": {
          "reference": "urn:uuid:4be107f9-a74e-47f3-a2d9-78ced6ce6e73",
          "display": "Meaghan Neary"
        },
        "date": "2022-10-18T00:11:04Z",
        "title": "Laboratory Report",
        "confidentiality": "N"
      }
    },
    {
      "fullUrl": "urn:uuid:851f9c76-9470-45d2-a4e8-2c0c45a0ddb6",
      "resource": {
        "resourceType": "DiagnosticReport",
        "id": "851f9c76-9470-45d2-a4e8-2c0c45a0ddb6",
        "meta": {
          "profile": [
            "http://hl7.eu/fhir/laboratory/StructureDefinition/DiagnosticReport-eu-lab"
          ]
        },
        "identifier": [
          {
            "assigner": {
              "display": "HL7 Europe"
            },
            "system": "urn:oid:2.16.840.1.113883.2.51.999",
            "value": "527093fd-87bd-4242-a416-60295448dd08"
          }
        ],
        "extension": [
          {
            "url": "http://hl7.org/fhir/5.0/StructureDefinition/extension-DiagnosticReport.composition",
            "valueReference": {
              "reference": "urn:uuid:d46851a8-c247-4b23-bf6e-bbf2f6f5addb"
            }
          }
        ],
        "category": [
          {
            "coding": [
              {
                "code": "26436-6",
                "system": "http://loinc.org",
                "display": "Laboratory studies (set)"
              }
            ]
          }
        ],
        "specimen": [
          {
            "reference": "urn:uuid:46f80b03-6cd1-4a83-9e61-1d367735c4fb"
          },
          {
            "reference": "urn:uuid:7a906718-2e1a-432a-a551-ed4af90dc3db"
          },
          {
            "reference": "urn:uuid:57c37d68-47e0-4e2a-98f6-8275f40d3d8b"
          }
        ],
        "result": [
          {
            "reference": "urn:uuid:d8cfa88f-9ca3-4b32-941c-30f859cbb871"
          },
          {
            "reference": "urn:uuid:3be4a492-76c3-4efc-8945-94dae6d37b83"
          },
          {
            "reference": "urn:uuid:05b79382-45cc-498d-b479-381d23f0340d"
          },
          {
            "reference": "urn:uuid:a3a418e0-ace6-43b4-93a3-9e095be67e6c"
          },
          {
            "reference": "urn:uuid:14d8fb3a-7122-49e8-8894-38c80cef5fa9"
          },
          {
            "reference": "urn:uuid:a62c183d-fe2e-4a2a-ba50-56fc00abdda9"
          },
          {
            "reference": "urn:uuid:60c9b25d-5520-4b94-b8ac-95a493f1ae01"
          },
          {
            "reference": "urn:uuid:d09d8ea8-1cc6-4cf8-9ec5-9268dddd16cc"
          },
          {
            "reference": "urn:uuid:165c5722-1be1-468a-893b-5b80b6e6c05d"
          },
          {
            "reference": "urn:uuid:a619a043-7bf4-416b-8316-3931160d5e79"
          },
          {
            "reference": "urn:uuid:2acdcfc9-6503-4715-b49e-a499b280cbb0"
          },
          {
            "reference": "urn:uuid:06ae7623-0eb1-4cc3-b11f-c40e39134e25"
          },
          {
            "reference": "urn:uuid:77e610d0-27cc-46c6-bcd3-bab6a79f4551"
          },
          {
            "reference": "urn:uuid:8d5e2968-ef73-41be-845c-b6bc7713e8d4"
          },
          {
            "reference": "urn:uuid:38f2eca0-6033-44f1-86ce-f721c9aa67f0"
          },
          {
            "reference": "urn:uuid:cd065bc4-7240-47bd-8b65-48e1427bd261"
          },
          {
            "reference": "urn:uuid:424479b7-eaac-4e0c-9f88-ee021c841f30"
          },
          {
            "reference": "urn:uuid:875b816a-195b-4276-8a4c-7212fc09e2d3"
          },
          {
            "reference": "urn:uuid:f7cb1e8f-aadb-47dc-9dec-ba26602e1460"
          },
          {
            "reference": "urn:uuid:6ec9933c-2080-454b-83a9-b099b63689fb"
          },
          {
            "reference": "urn:uuid:d0bda832-a6ae-457e-8bf5-91dd62f004e4"
          },
          {
            "reference": "urn:uuid:bf4fddd6-50bc-4d0d-be73-db9ed1e15fd7"
          },
          {
            "reference": "urn:uuid:39d563e3-51f7-4b75-a8c6-cac6249d18b2"
          },
          {
            "reference": "urn:uuid:356218d5-2d85-4242-af77-bdc671f11dc0"
          },
          {
            "reference": "urn:uuid:747225ce-4018-43db-b4e7-d82c9e758f73"
          },
          {
            "reference": "urn:uuid:6ba307e4-9890-4dd7-9fce-211d3a2373f7"
          },
          {
            "reference": "urn:uuid:ef1efb13-9774-4c86-bb0d-af26dbbf9931"
          },
          {
            "reference": "urn:uuid:ba193921-66a1-4187-a2e2-e7553be3cc52"
          },
          {
            "reference": "urn:uuid:0134ee70-0b9a-4e5f-8127-d7527b4bd14f"
          },
          {
            "reference": "urn:uuid:c170ff2c-ef50-47de-8d89-fbbf57c0111c"
          },
          {
            "reference": "urn:uuid:3faf5c83-daa0-426b-a30b-44aaaf05a32b"
          },
          {
            "reference": "urn:uuid:9622e63f-c1aa-41df-b816-b62cf29c6937"
          },
          {
            "reference": "urn:uuid:6bae0c79-c737-4597-928d-1782055981a0"
          },
          {
            "reference": "urn:uuid:23e59ca7-4edb-4c64-939d-99e89ac22a1e"
          }
        ],
        "status": "registered",
        "code": {
          "coding": [
            {
              "code": "11502-2",
              "system": "http://loinc.org",
              "display": "Laboratory report"
            }
          ]
        },
        "subject": {
          "reference": "urn:uuid:4be107f9-a74e-47f3-a2d9-78ced6ce6e73",
          "display": "Meaghan Neary"
        }
      }
    },
    {
      "fullUrl": "urn:uuid:4be107f9-a74e-47f3-a2d9-78ced6ce6e73",
      "resource": {
        "resourceType": "Patient",
        "id": "4be107f9-a74e-47f3-a2d9-78ced6ce6e73",
        "meta": {
          "security": [
            {
              "system": "http://terminology.hl7.org/CodeSystem/v3-ActReason",
              "code": "HTEST"
            },
            {
              "system": "http://terminology.hl7.org/CodeSystem/v3-ActReason",
              "code": "TRAIN"
            }
          ],
          "tag": [
            {
              "system": "https://synderai.net/fhir/CodeSystem/tags",
              "code": "synthetic",
              "display": "SYNDERAI Synthetic data"
            }
          ],
          "profile": [
            "http://hl7.eu/fhir/base/StructureDefinition/patient-eu-core"
          ]
        },
        "identifier": [
          {
            "type": {
              "coding": [
                {
                  "code": "PT",
                  "system": "http://terminology.hl7.org/CodeSystem/v2-0203"
                }
              ]
            },
            "system": "http://ec.europa.eu/identifier/eci",
            "value": "1586-567257-8"
          },
          {
            "type": {
              "coding": [
                {
                  "code": "MR",
                  "system": "http://terminology.hl7.org/CodeSystem/v2-0203"
                }
              ]
            },
            "system": "http://local.setting.eu/identifier",
            "value": "443e6379-f231-b364-3ccb-644740a1aa2a"
          }
        ],
        "name": [
          {
            "family": "Neary"
          },
          {
            "given": [
              "Meaghan"
            ]
          },
          {
            "text": "Meaghan Neary"
          }
        ],
        "address": [
          {
            "line": [
              "64 Linskey Street"
            ],
            "use": "home",
            "type": "physical",
            "postalCode": "D02",
            "city": "Dublin",
            "country": "Ireland"
          }
        ],
        "telecom": [
          {
            "system": "phone",
            "value": "001-967-573-0911x465"
          }
        ],
        "extension": [
          {
            "url": "http://hl7.org/fhir/StructureDefinition/patient-nationality",
            "valueCodeableConcept": {
              "coding": [
                {
                  "code": "IE",
                  "system": "http://hl7.org/fhir/ValueSet/country"
                }
              ]
            }
          }
        ],
        "text": {
          "status": "generated",
          "div": "<div xmlns=\"http://www.w3.org/1999/xhtml\"><table class=\"hl7__ips\"><tr><td>Meaghan Neary</td><td>female</td><td>19-Dec-1960</td></tr></table></div>"
        },
        "gender": "female",
        "birthDate": "1960-12-19"
      }
    },
    {
      "fullUrl": "urn:uuid:54a41e74-cb3e-4fd2-9ca1-3b6939db9b4b",
      "resource": {
        "resourceType": "ServiceRequest",
        "id": "54a41e74-cb3e-4fd2-9ca1-3b6939db9b4b",
        "meta": {
          "profile": [
            "http://hl7.eu/fhir/laboratory/StructureDefinition/ServiceRequest-eu-lab"
          ]
        },
        "identifier": [
          {
            "system": "http://example.org",
            "value": "87d96e98-3c2b-4860-a22a-253fbca1f1bc"
          }
        ],
        "specimen": [
          {
            "reference": "urn:uuid:46f80b03-6cd1-4a83-9e61-1d367735c4fb"
          },
          {
            "reference": "urn:uuid:7a906718-2e1a-432a-a551-ed4af90dc3db"
          },
          {
            "reference": "urn:uuid:57c37d68-47e0-4e2a-98f6-8275f40d3d8b"
          }
        ],
        "reasonCode": [
          {
            "coding": [
              {
                "code": "55822004",
                "system": "http://snomed.info/sct",
                "display": "Hyperlipidemia"
              }
            ]
          },
          {
            "coding": [
              {
                "code": "433144002",
                "system": "http://snomed.info/sct",
                "display": "Chronic kidney disease stage 3"
              }
            ]
          },
          {
            "coding": [
              {
                "code": "157141000119108",
                "system": "http://snomed.info/sct",
                "display": "Proteinuria due to type 2 diabetes mellitus"
              }
            ]
          },
          {
            "coding": [
              {
                "code": "431856006",
                "system": "http://snomed.info/sct",
                "display": "Chronic kidney disease stage 2"
              }
            ]
          },
          {
            "coding": [
              {
                "code": "90781000119102",
                "system": "http://snomed.info/sct",
                "display": "Microalbuminuria due to type 2 diabetes mellitus"
              }
            ]
          },
          {
            "coding": [
              {
                "code": "127013003",
                "system": "http://snomed.info/sct",
                "display": "Disorder of kidney due to diabetes mellitus"
              }
            ]
          },
          {
            "coding": [
              {
                "code": "431855005",
                "system": "http://snomed.info/sct",
                "display": "Chronic kidney disease stage 1"
              }
            ]
          },
          {
            "coding": [
              {
                "code": "237602007",
                "system": "http://snomed.info/sct",
                "display": "Metabolic syndrome X"
              }
            ]
          },
          {
            "coding": [
              {
                "code": "271737000",
                "system": "http://snomed.info/sct",
                "display": "Anemia"
              }
            ]
          },
          {
            "coding": [
              {
                "code": "15777000",
                "system": "http://snomed.info/sct",
                "display": "Prediabetes"
              }
            ]
          },
          {
            "coding": [
              {
                "code": "59621000",
                "system": "http://snomed.info/sct",
                "display": "Essential hypertension"
              }
            ]
          }
        ],
        "status": "active",
        "intent": "order",
        "code": {
          "coding": [
            {
              "code": "108252007",
              "system": "http://snomed.info/sct",
              "display": "Laboratory procedure"
            }
          ]
        },
        "subject": {
          "reference": "urn:uuid:4be107f9-a74e-47f3-a2d9-78ced6ce6e73",
          "display": "Meaghan Neary"
        },
        "requester": {
          "reference": "urn:uuid:b9fe97a2-6710-433c-9dd1-35a4e49a8b6d"
        }
      }
    },
    {
      "fullUrl": "urn:uuid:b9fe97a2-6710-433c-9dd1-35a4e49a8b6d",
      "resource": {
        "resourceType": "PractitionerRole",
        "id": "b9fe97a2-6710-433c-9dd1-35a4e49a8b6d",
        "meta": {
          "profile": [
            "http://hl7.eu/fhir/base/StructureDefinition/practitionerRole-eu"
          ]
        },
        "text": {
          "status": "generated",
          "div": "<div xmlns=\"http://www.w3.org/1999/xhtml\">Provider Role Id: b9fe97a2-6710-433c-9dd1-35a4e49a8b6d</div>"
        },
        "organization": {
          "reference": "urn:uuid:521a8a0b-049c-4c7f-b79d-f12ff0106f0b"
        }
      }
    },
    {
      "fullUrl": "urn:uuid:521a8a0b-049c-4c7f-b79d-f12ff0106f0b",
      "resource": {
        "resourceType": "Organization",
        "id": "521a8a0b-049c-4c7f-b79d-f12ff0106f0b",
        "meta": {
          "profile": [
            "http://hl7.eu/fhir/base/StructureDefinition/organization-eu"
          ]
        },
        "identifier": [
          {
            "assigner": {
              "display": "HL7 Europe"
            },
            "system": "urn:oid:2.16.840.1.113883.2.51.999",
            "value": "a87f75ae-4a8d-4c65-b1f6-8244b127947e"
          }
        ],
        "address": [
          {
            "line": [
              "Parnell Square West nan"
            ],
            "city": "Dublin",
            "postalCode": "D01",
            "country": "Ireland"
          }
        ],
        "text": {
          "status": "generated",
          "div": "<div xmlns=\"http://www.w3.org/1999/xhtml\">Provider Organization: Rotunda Hospital</div>"
        },
        "name": "Rotunda Hospital"
      }
    },
    {
      "fullUrl": "urn:uuid:46f80b03-6cd1-4a83-9e61-1d367735c4fb",
      "resource": {
        "resourceType": "Specimen",
        "id": "46f80b03-6cd1-4a83-9e61-1d367735c4fb",
        "meta": {
          "profile": [
            "http://hl7.eu/fhir/laboratory/StructureDefinition/Specimen-eu-lab"
          ]
        },
        "collection": {
          "collectedDateTime": "2022-10-17"
        },
        "text": {
          "status": "generated",
          "div": "<div xmlns=\"http://www.w3.org/1999/xhtml\"><table class=\"hl7__eu__lab__report\"><tr><th>Specimen</th><th>Collection Date</th></tr><tr><td>Acellular blood (serum or plasma) specimen</td><td><span class=\"nb\">17-Oct-2022</span></td></tr></table></div>"
        },
        "type": {
          "coding": [
            {
              "code": "122592007",
              "system": "http://snomed.info/sct",
              "display": "Acellular blood (serum or plasma) specimen"
            }
          ]
        }
      }
    },
    {
      "fullUrl": "urn:uuid:7a906718-2e1a-432a-a551-ed4af90dc3db",
      "resource": {
        "resourceType": "Specimen",
        "id": "7a906718-2e1a-432a-a551-ed4af90dc3db",
        "meta": {
          "profile": [
            "http://hl7.eu/fhir/laboratory/StructureDefinition/Specimen-eu-lab"
          ]
        },
        "collection": {
          "collectedDateTime": "2022-10-17"
        },
        "text": {
          "status": "generated",
          "div": "<div xmlns=\"http://www.w3.org/1999/xhtml\"><table class=\"hl7__eu__lab__report\"><tr><th>Specimen</th><th>Collection Date</th></tr><tr><td>Urine specimen</td><td><span class=\"nb\">17-Oct-2022</span></td></tr></table></div>"
        },
        "type": {
          "coding": [
            {
              "code": "122575003",
              "system": "http://snomed.info/sct",
              "display": "Urine specimen"
            }
          ]
        }
      }
    },
    {
      "fullUrl": "urn:uuid:57c37d68-47e0-4e2a-98f6-8275f40d3d8b",
      "resource": {
        "resourceType": "Specimen",
        "id": "57c37d68-47e0-4e2a-98f6-8275f40d3d8b",
        "meta": {
          "profile": [
            "http://hl7.eu/fhir/laboratory/StructureDefinition/Specimen-eu-lab"
          ]
        },
        "collection": {
          "collectedDateTime": "2022-10-17"
        },
        "text": {
          "status": "generated",
          "div": "<div xmlns=\"http://www.w3.org/1999/xhtml\"><table class=\"hl7__eu__lab__report\"><tr><th>Specimen</th><th>Collection Date</th></tr><tr><td>Whole blood specimen (specimen)</td><td><span class=\"nb\">17-Oct-2022</span></td></tr></table></div>"
        },
        "type": {
          "coding": [
            {
              "code": "258580003",
              "system": "http://snomed.info/sct",
              "display": "Whole blood specimen (specimen)"
            }
          ]
        }
      }
    },
    {
      "fullUrl": "urn:uuid:d8cfa88f-9ca3-4b32-941c-30f859cbb871",
      "resource": {
        "resourceType": "Observation",
        "id": "d8cfa88f-9ca3-4b32-941c-30f859cbb871",
        "meta": {
          "profile": [
            "http://hl7.eu/fhir/laboratory/StructureDefinition/Observation-resultslab-eu-lab"
          ]
        },
        "performer": [
          {
            "display": "The Central European Lab"
          }
        ],
        "category": [
          {
            "coding": [
              {
                "system": "http://terminology.hl7.org/CodeSystem/observation-category",
                "code": "laboratory"
              }
            ]
          }
        ],
        "code": {
          "coding": [
            {
              "code": "2345-7",
              "system": "http://loinc.org",
              "display": "Glucose [Mass/volume] in Serum or Plasma"
            }
          ],
          "text": "Glucose [Mass/volume] in Serum or Plasma"
        },
        "valueQuantity": {
          "system": "http://unitsofmeasure.org",
          "value": 91.4,
          "unit": "mg/dL",
          "code": "mg/dL"
        },
        "referenceRange": [
          {
            "low": {
              "value": 70,
              "code": "mg/dL",
              "system": "http://unitsofmeasure.org"
            }
          },
          {
            "high": {
              "value": 99,
              "code": "mg/dL",
              "system": "http://unitsofmeasure.org"
            }
          }
        ],
        "text": {
          "status": "generated",
          "div": "<div xmlns=\"http://www.w3.org/1999/xhtml\"><table class=\"hl7__eu__lab__report\"><tr><th>Test</th><th>18-Oct-2022</th><th>Reference&#xA0;Range</th><th>Unit</th></tr><tr><td>Glucose [Mass/volume] in Serum or Plasma</td><td>91.4</td><td>70 - 99</td><td></td><td>mg/dL</td></tr></table></div>"
        },
        "status": "final",
        "subject": {
          "reference": "urn:uuid:4be107f9-a74e-47f3-a2d9-78ced6ce6e73",
          "display": "Meaghan Neary"
        },
        "effectiveDateTime": "2022-10-17T22:11:04Z",
        "specimen": {
          "reference": "urn:uuid:46f80b03-6cd1-4a83-9e61-1d367735c4fb"
        }
      }
    },
    {
      "fullUrl": "urn:uuid:3be4a492-76c3-4efc-8945-94dae6d37b83",
      "resource": {
        "resourceType": "Observation",
        "id": "3be4a492-76c3-4efc-8945-94dae6d37b83",
        "meta": {
          "profile": [
            "http://hl7.eu/fhir/laboratory/StructureDefinition/Observation-resultslab-eu-lab"
          ]
        },
        "performer": [
          {
            "display": "The Central European Lab"
          }
        ],
        "category": [
          {
            "coding": [
              {
                "system": "http://terminology.hl7.org/CodeSystem/observation-category",
                "code": "laboratory"
              }
            ]
          }
        ],
        "code": {
          "coding": [
            {
              "code": "3094-0",
              "system": "http://loinc.org",
              "display": "Urea nitrogen [Mass/volume] in Serum or Plasma"
            }
          ],
          "text": "Urea nitrogen [Mass/volume] in Serum or Plasma"
        },
        "valueQuantity": {
          "system": "http://unitsofmeasure.org",
          "value": 10.5,
          "unit": "mg/dL",
          "code": "mg/dL"
        },
        "referenceRange": [
          {
            "low": {
              "value": 7,
              "code": "mg/dL",
              "system": "http://unitsofmeasure.org"
            }
          },
          {
            "high": {
              "value": 50,
              "code": "mg/dL",
              "system": "http://unitsofmeasure.org"
            }
          }
        ],
        "text": {
          "status": "generated",
          "div": "<div xmlns=\"http://www.w3.org/1999/xhtml\"><table class=\"hl7__eu__lab__report\"><tr><th>Test</th><th>18-Oct-2022</th><th>Reference&#xA0;Range</th><th>Unit</th></tr><tr><td>Urea nitrogen [Mass/volume] in Serum or Plasma</td><td>10.5</td><td>7 - 50</td><td></td><td>mg/dL</td></tr></table></div>"
        },
        "status": "final",
        "subject": {
          "reference": "urn:uuid:4be107f9-a74e-47f3-a2d9-78ced6ce6e73",
          "display": "Meaghan Neary"
        },
        "effectiveDateTime": "2022-10-17T22:11:04Z",
        "specimen": {
          "reference": "urn:uuid:46f80b03-6cd1-4a83-9e61-1d367735c4fb"
        }
      }
    },
    {
      "fullUrl": "urn:uuid:05b79382-45cc-498d-b479-381d23f0340d",
      "resource": {
        "resourceType": "Observation",
        "id": "05b79382-45cc-498d-b479-381d23f0340d",
        "meta": {
          "profile": [
            "http://hl7.eu/fhir/laboratory/StructureDefinition/Observation-resultslab-eu-lab"
          ]
        },
        "performer": [
          {
            "display": "The Central European Lab"
          }
        ],
        "category": [
          {
            "coding": [
              {
                "system": "http://terminology.hl7.org/CodeSystem/observation-category",
                "code": "laboratory"
              }
            ]
          }
        ],
        "code": {
          "coding": [
            {
              "code": "2160-0",
              "system": "http://loinc.org",
              "display": "Creatinine [Mass/volume] in Serum or Plasma"
            }
          ],
          "text": "Creatinine [Mass/volume] in Serum or Plasma"
        },
        "valueQuantity": {
          "system": "http://unitsofmeasure.org",
          "value": 1.9,
          "unit": "mg/dL",
          "code": "mg/dL"
        },
        "referenceRange": [
          {
            "low": {
              "value": 0.6,
              "code": "mg/dL",
              "system": "http://unitsofmeasure.org"
            }
          },
          {
            "high": {
              "value": 1.1,
              "code": "mg/dL",
              "system": "http://unitsofmeasure.org"
            }
          }
        ],
        "interpretation": [
          {
            "coding": [
              {
                "code": "H",
                "system": "http://terminology.hl7.org/CodeSystem/v3-ObservationInterpretation",
                "display": "High"
              }
            ]
          }
        ],
        "text": {
          "status": "generated",
          "div": "<div xmlns=\"http://www.w3.org/1999/xhtml\"><table class=\"hl7__eu__lab__report\"><tr><th>Test</th><th>18-Oct-2022</th><th>Reference&#xA0;Range</th><th>Unit</th></tr><tr><td>Creatinine [Mass/volume] in Serum or Plasma</td><td>1.9</td><td>0.6 - 1.1</td><td>H</td><td>mg/dL</td></tr></table></div>"
        },
        "status": "final",
        "subject": {
          "reference": "urn:uuid:4be107f9-a74e-47f3-a2d9-78ced6ce6e73",
          "display": "Meaghan Neary"
        },
        "effectiveDateTime": "2022-10-17T22:11:04Z",
        "specimen": {
          "reference": "urn:uuid:46f80b03-6cd1-4a83-9e61-1d367735c4fb"
        }
      }
    },
    {
      "fullUrl": "urn:uuid:a3a418e0-ace6-43b4-93a3-9e095be67e6c",
      "resource": {
        "resourceType": "Observation",
        "id": "a3a418e0-ace6-43b4-93a3-9e095be67e6c",
        "meta": {
          "profile": [
            "http://hl7.eu/fhir/laboratory/StructureDefinition/Observation-resultslab-eu-lab"
          ]
        },
        "performer": [
          {
            "display": "The Central European Lab"
          }
        ],
        "category": [
          {
            "coding": [
              {
                "system": "http://terminology.hl7.org/CodeSystem/observation-category",
                "code": "laboratory"
              }
            ]
          }
        ],
        "code": {
          "coding": [
            {
              "code": "17861-6",
              "system": "http://loinc.org",
              "display": "Calcium [Mass/volume] in Serum or Plasma"
            }
          ],
          "text": "Calcium [Mass/volume] in Serum or Plasma"
        },
        "valueQuantity": {
          "system": "http://unitsofmeasure.org",
          "value": 8.9,
          "unit": "mg/dL",
          "code": "mg/dL"
        },
        "referenceRange": [
          {
            "low": {
              "value": 8.6,
              "code": "mg/dL",
              "system": "http://unitsofmeasure.org"
            }
          },
          {
            "high": {
              "value": 10.4,
              "code": "mg/dL",
              "system": "http://unitsofmeasure.org"
            }
          }
        ],
        "text": {
          "status": "generated",
          "div": "<div xmlns=\"http://www.w3.org/1999/xhtml\"><table class=\"hl7__eu__lab__report\"><tr><th>Test</th><th>18-Oct-2022</th><th>Reference&#xA0;Range</th><th>Unit</th></tr><tr><td>Calcium [Mass/volume] in Serum or Plasma</td><td>8.9</td><td>8.6 - 10.4</td><td></td><td>mg/dL</td></tr></table></div>"
        },
        "status": "final",
        "subject": {
          "reference": "urn:uuid:4be107f9-a74e-47f3-a2d9-78ced6ce6e73",
          "display": "Meaghan Neary"
        },
        "effectiveDateTime": "2022-10-17T22:11:04Z",
        "specimen": {
          "reference": "urn:uuid:46f80b03-6cd1-4a83-9e61-1d367735c4fb"
        }
      }
    },
    {
      "fullUrl": "urn:uuid:14d8fb3a-7122-49e8-8894-38c80cef5fa9",
      "resource": {
        "resourceType": "Observation",
        "id": "14d8fb3a-7122-49e8-8894-38c80cef5fa9",
        "meta": {
          "profile": [
            "http://hl7.eu/fhir/laboratory/StructureDefinition/Observation-resultslab-eu-lab"
          ]
        },
        "performer": [
          {
            "display": "The Central European Lab"
          }
        ],
        "category": [
          {
            "coding": [
              {
                "system": "http://terminology.hl7.org/CodeSystem/observation-category",
                "code": "laboratory"
              }
            ]
          }
        ],
        "code": {
          "coding": [
            {
              "code": "2951-2",
              "system": "http://loinc.org",
              "display": "Sodium [Moles/volume] in Serum or Plasma"
            }
          ],
          "text": "Sodium [Moles/volume] in Serum or Plasma"
        },
        "valueQuantity": {
          "system": "http://unitsofmeasure.org",
          "value": 137.5,
          "unit": "mmol/L",
          "code": "mmol/L"
        },
        "referenceRange": [
          {
            "low": {
              "value": 135,
              "code": "mmol/L",
              "system": "http://unitsofmeasure.org"
            }
          },
          {
            "high": {
              "value": 145,
              "code": "mmol/L",
              "system": "http://unitsofmeasure.org"
            }
          }
        ],
        "text": {
          "status": "generated",
          "div": "<div xmlns=\"http://www.w3.org/1999/xhtml\"><table class=\"hl7__eu__lab__report\"><tr><th>Test</th><th>18-Oct-2022</th><th>Reference&#xA0;Range</th><th>Unit</th></tr><tr><td>Sodium [Moles/volume] in Serum or Plasma</td><td>137.5</td><td>135 - 145</td><td></td><td>mmol/L</td></tr></table></div>"
        },
        "status": "final",
        "subject": {
          "reference": "urn:uuid:4be107f9-a74e-47f3-a2d9-78ced6ce6e73",
          "display": "Meaghan Neary"
        },
        "effectiveDateTime": "2022-10-17T22:11:04Z",
        "specimen": {
          "reference": "urn:uuid:46f80b03-6cd1-4a83-9e61-1d367735c4fb"
        }
      }
    },
    {
      "fullUrl": "urn:uuid:a62c183d-fe2e-4a2a-ba50-56fc00abdda9",
      "resource": {
        "resourceType": "Observation",
        "id": "a62c183d-fe2e-4a2a-ba50-56fc00abdda9",
        "meta": {
          "profile": [
            "http://hl7.eu/fhir/laboratory/StructureDefinition/Observation-resultslab-eu-lab"
          ]
        },
        "performer": [
          {
            "display": "The Central European Lab"
          }
        ],
        "category": [
          {
            "coding": [
              {
                "system": "http://terminology.hl7.org/CodeSystem/observation-category",
                "code": "laboratory"
              }
            ]
          }
        ],
        "code": {
          "coding": [
            {
              "code": "2823-3",
              "system": "http://loinc.org",
              "display": "Potassium [Moles/volume] in Serum or Plasma"
            }
          ],
          "text": "Potassium [Moles/volume] in Serum or Plasma"
        },
        "valueQuantity": {
          "system": "http://unitsofmeasure.org",
          "value": 5.1,
          "unit": "mmol/L",
          "code": "mmol/L"
        },
        "referenceRange": [
          {
            "low": {
              "value": 3.5,
              "code": "mmol/L",
              "system": "http://unitsofmeasure.org"
            }
          },
          {
            "high": {
              "value": 5.1,
              "code": "mmol/L",
              "system": "http://unitsofmeasure.org"
            }
          }
        ],
        "text": {
          "status": "generated",
          "div": "<div xmlns=\"http://www.w3.org/1999/xhtml\"><table class=\"hl7__eu__lab__report\"><tr><th>Test</th><th>18-Oct-2022</th><th>Reference&#xA0;Range</th><th>Unit</th></tr><tr><td>Potassium [Moles/volume] in Serum or Plasma</td><td>5.1</td><td>3.5 - 5.1</td><td></td><td>mmol/L</td></tr></table></div>"
        },
        "status": "final",
        "subject": {
          "reference": "urn:uuid:4be107f9-a74e-47f3-a2d9-78ced6ce6e73",
          "display": "Meaghan Neary"
        },
        "effectiveDateTime": "2022-10-17T22:11:04Z",
        "specimen": {
          "reference": "urn:uuid:46f80b03-6cd1-4a83-9e61-1d367735c4fb"
        }
      }
    },
    {
      "fullUrl": "urn:uuid:60c9b25d-5520-4b94-b8ac-95a493f1ae01",
      "resource": {
        "resourceType": "Observation",
        "id": "60c9b25d-5520-4b94-b8ac-95a493f1ae01",
        "meta": {
          "profile": [
            "http://hl7.eu/fhir/laboratory/StructureDefinition/Observation-resultslab-eu-lab"
          ]
        },
        "performer": [
          {
            "display": "The Central European Lab"
          }
        ],
        "category": [
          {
            "coding": [
              {
                "system": "http://terminology.hl7.org/CodeSystem/observation-category",
                "code": "laboratory"
              }
            ]
          }
        ],
        "code": {
          "coding": [
            {
              "code": "2075-0",
              "system": "http://loinc.org",
              "display": "Chloride [Moles/volume] in Serum or Plasma"
            }
          ],
          "text": "Chloride [Moles/volume] in Serum or Plasma"
        },
        "valueQuantity": {
          "system": "http://unitsofmeasure.org",
          "value": 107.3,
          "unit": "mmol/L",
          "code": "mmol/L"
        },
        "referenceRange": [
          {
            "low": {
              "value": 98,
              "code": "mmol/L",
              "system": "http://unitsofmeasure.org"
            }
          },
          {
            "high": {
              "value": 108,
              "code": "mmol/L",
              "system": "http://unitsofmeasure.org"
            }
          }
        ],
        "text": {
          "status": "generated",
          "div": "<div xmlns=\"http://www.w3.org/1999/xhtml\"><table class=\"hl7__eu__lab__report\"><tr><th>Test</th><th>18-Oct-2022</th><th>Reference&#xA0;Range</th><th>Unit</th></tr><tr><td>Chloride [Moles/volume] in Serum or Plasma</td><td>107.3</td><td>98 - 108</td><td></td><td>mmol/L</td></tr></table></div>"
        },
        "status": "final",
        "subject": {
          "reference": "urn:uuid:4be107f9-a74e-47f3-a2d9-78ced6ce6e73",
          "display": "Meaghan Neary"
        },
        "effectiveDateTime": "2022-10-17T22:11:04Z",
        "specimen": {
          "reference": "urn:uuid:46f80b03-6cd1-4a83-9e61-1d367735c4fb"
        }
      }
    },
    {
      "fullUrl": "urn:uuid:d09d8ea8-1cc6-4cf8-9ec5-9268dddd16cc",
      "resource": {
        "resourceType": "Observation",
        "id": "d09d8ea8-1cc6-4cf8-9ec5-9268dddd16cc",
        "meta": {
          "profile": [
            "http://hl7.eu/fhir/laboratory/StructureDefinition/Observation-resultslab-eu-lab"
          ]
        },
        "performer": [
          {
            "display": "The Central European Lab"
          }
        ],
        "category": [
          {
            "coding": [
              {
                "system": "http://terminology.hl7.org/CodeSystem/observation-category",
                "code": "laboratory"
              }
            ]
          }
        ],
        "code": {
          "coding": [
            {
              "code": "2028-9",
              "system": "http://loinc.org",
              "display": "Carbon dioxide, total [Moles/volume] in Serum or Plasma"
            }
          ],
          "text": "Carbon dioxide, total [Moles/volume] in Serum or Plasma"
        },
        "valueQuantity": {
          "system": "http://unitsofmeasure.org",
          "value": 27.9,
          "unit": "mmol/L",
          "code": "mmol/L"
        },
        "referenceRange": [
          {
            "low": {
              "value": 22,
              "code": "mmol/L",
              "system": "http://unitsofmeasure.org"
            }
          },
          {
            "high": {
              "value": 32,
              "code": "mmol/L",
              "system": "http://unitsofmeasure.org"
            }
          }
        ],
        "text": {
          "status": "generated",
          "div": "<div xmlns=\"http://www.w3.org/1999/xhtml\"><table class=\"hl7__eu__lab__report\"><tr><th>Test</th><th>18-Oct-2022</th><th>Reference&#xA0;Range</th><th>Unit</th></tr><tr><td>Carbon dioxide, total [Moles/volume] in Serum or Plasma</td><td>27.9</td><td>22 - 32</td><td></td><td>mmol/L</td></tr></table></div>"
        },
        "status": "final",
        "subject": {
          "reference": "urn:uuid:4be107f9-a74e-47f3-a2d9-78ced6ce6e73",
          "display": "Meaghan Neary"
        },
        "effectiveDateTime": "2022-10-17T22:11:04Z",
        "specimen": {
          "reference": "urn:uuid:46f80b03-6cd1-4a83-9e61-1d367735c4fb"
        }
      }
    },
    {
      "fullUrl": "urn:uuid:165c5722-1be1-468a-893b-5b80b6e6c05d",
      "resource": {
        "resourceType": "Observation",
        "id": "165c5722-1be1-468a-893b-5b80b6e6c05d",
        "meta": {
          "profile": [
            "http://hl7.eu/fhir/laboratory/StructureDefinition/Observation-resultslab-eu-lab"
          ]
        },
        "performer": [
          {
            "display": "The Central European Lab"
          }
        ],
        "category": [
          {
            "coding": [
              {
                "system": "http://terminology.hl7.org/CodeSystem/observation-category",
                "code": "laboratory"
              }
            ]
          }
        ],
        "code": {
          "coding": [
            {
              "code": "5767-9",
              "system": "http://loinc.org",
              "display": "Appearance of Urine"
            }
          ],
          "text": "Appearance of Urine"
        },
        "text": {
          "status": "generated",
          "div": "<div xmlns=\"http://www.w3.org/1999/xhtml\"><table class=\"hl7__eu__lab__report\"><tr><th>Test</th><th>18-Oct-2022</th><th>Reference&#xA0;Range</th><th>Unit</th></tr><tr><td>Appearance of Urine</td></tr></table></div>"
        },
        "status": "final",
        "subject": {
          "reference": "urn:uuid:4be107f9-a74e-47f3-a2d9-78ced6ce6e73",
          "display": "Meaghan Neary"
        },
        "effectiveDateTime": "2022-10-17T22:11:04Z",
        "specimen": {
          "reference": "urn:uuid:7a906718-2e1a-432a-a551-ed4af90dc3db"
        }
      }
    },
    {
      "fullUrl": "urn:uuid:a619a043-7bf4-416b-8316-3931160d5e79",
      "resource": {
        "resourceType": "Observation",
        "id": "a619a043-7bf4-416b-8316-3931160d5e79",
        "meta": {
          "profile": [
            "http://hl7.eu/fhir/laboratory/StructureDefinition/Observation-resultslab-eu-lab"
          ]
        },
        "performer": [
          {
            "display": "The Central European Lab"
          }
        ],
        "category": [
          {
            "coding": [
              {
                "system": "http://terminology.hl7.org/CodeSystem/observation-category",
                "code": "laboratory"
              }
            ]
          }
        ],
        "code": {
          "coding": [
            {
              "code": "34533-0",
              "system": "http://loinc.org",
              "display": "Odor of Urine"
            }
          ],
          "text": "Odor of Urine"
        },
        "text": {
          "status": "generated",
          "div": "<div xmlns=\"http://www.w3.org/1999/xhtml\"><table class=\"hl7__eu__lab__report\"><tr><th>Test</th><th>18-Oct-2022</th><th>Reference&#xA0;Range</th><th>Unit</th></tr><tr><td>Odor of Urine</td></tr></table></div>"
        },
        "status": "final",
        "subject": {
          "reference": "urn:uuid:4be107f9-a74e-47f3-a2d9-78ced6ce6e73",
          "display": "Meaghan Neary"
        },
        "effectiveDateTime": "2022-10-17T22:11:04Z",
        "specimen": {
          "reference": "urn:uuid:7a906718-2e1a-432a-a551-ed4af90dc3db"
        }
      }
    },
    {
      "fullUrl": "urn:uuid:2acdcfc9-6503-4715-b49e-a499b280cbb0",
      "resource": {
        "resourceType": "Observation",
        "id": "2acdcfc9-6503-4715-b49e-a499b280cbb0",
        "meta": {
          "profile": [
            "http://hl7.eu/fhir/laboratory/StructureDefinition/Observation-resultslab-eu-lab"
          ]
        },
        "performer": [
          {
            "display": "The Central European Lab"
          }
        ],
        "category": [
          {
            "coding": [
              {
                "system": "http://terminology.hl7.org/CodeSystem/observation-category",
                "code": "laboratory"
              }
            ]
          }
        ],
        "code": {
          "coding": [
            {
              "code": "32167-9",
              "system": "http://loinc.org",
              "display": "Clarity of Urine"
            }
          ],
          "text": "Clarity of Urine"
        },
        "text": {
          "status": "generated",
          "div": "<div xmlns=\"http://www.w3.org/1999/xhtml\"><table class=\"hl7__eu__lab__report\"><tr><th>Test</th><th>18-Oct-2022</th><th>Reference&#xA0;Range</th><th>Unit</th></tr><tr><td>Clarity of Urine</td></tr></table></div>"
        },
        "status": "final",
        "subject": {
          "reference": "urn:uuid:4be107f9-a74e-47f3-a2d9-78ced6ce6e73",
          "display": "Meaghan Neary"
        },
        "effectiveDateTime": "2022-10-17T22:11:04Z",
        "specimen": {
          "reference": "urn:uuid:7a906718-2e1a-432a-a551-ed4af90dc3db"
        }
      }
    },
    {
      "fullUrl": "urn:uuid:06ae7623-0eb1-4cc3-b11f-c40e39134e25",
      "resource": {
        "resourceType": "Observation",
        "id": "06ae7623-0eb1-4cc3-b11f-c40e39134e25",
        "meta": {
          "profile": [
            "http://hl7.eu/fhir/laboratory/StructureDefinition/Observation-resultslab-eu-lab"
          ]
        },
        "performer": [
          {
            "display": "The Central European Lab"
          }
        ],
        "category": [
          {
            "coding": [
              {
                "system": "http://terminology.hl7.org/CodeSystem/observation-category",
                "code": "laboratory"
              }
            ]
          }
        ],
        "code": {
          "coding": [
            {
              "code": "5778-6",
              "system": "http://loinc.org",
              "display": "Color of Urine"
            }
          ],
          "text": "Color of Urine"
        },
        "text": {
          "status": "generated",
          "div": "<div xmlns=\"http://www.w3.org/1999/xhtml\"><table class=\"hl7__eu__lab__report\"><tr><th>Test</th><th>18-Oct-2022</th><th>Reference&#xA0;Range</th><th>Unit</th></tr><tr><td>Color of Urine</td></tr></table></div>"
        },
        "status": "final",
        "subject": {
          "reference": "urn:uuid:4be107f9-a74e-47f3-a2d9-78ced6ce6e73",
          "display": "Meaghan Neary"
        },
        "effectiveDateTime": "2022-10-17T22:11:04Z",
        "specimen": {
          "reference": "urn:uuid:7a906718-2e1a-432a-a551-ed4af90dc3db"
        }
      }
    },
    {
      "fullUrl": "urn:uuid:77e610d0-27cc-46c6-bcd3-bab6a79f4551",
      "resource": {
        "resourceType": "Observation",
        "id": "77e610d0-27cc-46c6-bcd3-bab6a79f4551",
        "meta": {
          "profile": [
            "http://hl7.eu/fhir/laboratory/StructureDefinition/Observation-resultslab-eu-lab"
          ]
        },
        "performer": [
          {
            "display": "The Central European Lab"
          }
        ],
        "category": [
          {
            "coding": [
              {
                "system": "http://terminology.hl7.org/CodeSystem/observation-category",
                "code": "laboratory"
              }
            ]
          }
        ],
        "code": {
          "coding": [
            {
              "code": "5792-7",
              "system": "http://loinc.org",
              "display": "Glucose [Mass/volume] in Urine by Test strip"
            }
          ],
          "text": "Glucose [Mass/volume] in Urine by Test strip"
        },
        "valueQuantity": {
          "system": "http://unitsofmeasure.org",
          "value": 0.8,
          "unit": "mg/dL",
          "code": "mg/dL"
        },
        "referenceRange": [
          {
            "low": {
              "value": 0.8,
              "code": "mg/dL",
              "system": "http://unitsofmeasure.org"
            }
          },
          {
            "high": {
              "value": 0,
              "code": "mg/dL",
              "system": "http://unitsofmeasure.org"
            }
          }
        ],
        "interpretation": [
          {
            "coding": [
              {
                "code": "H",
                "system": "http://terminology.hl7.org/CodeSystem/v3-ObservationInterpretation",
                "display": "High"
              }
            ]
          }
        ],
        "text": {
          "status": "generated",
          "div": "<div xmlns=\"http://www.w3.org/1999/xhtml\"><table class=\"hl7__eu__lab__report\"><tr><th>Test</th><th>18-Oct-2022</th><th>Reference&#xA0;Range</th><th>Unit</th></tr><tr><td>Glucose [Mass/volume] in Urine by Test strip</td><td>0.8</td><td>0.8 - 0</td><td>H</td><td>mg/dL</td></tr></table></div>"
        },
        "status": "final",
        "subject": {
          "reference": "urn:uuid:4be107f9-a74e-47f3-a2d9-78ced6ce6e73",
          "display": "Meaghan Neary"
        },
        "effectiveDateTime": "2022-10-17T22:11:04Z",
        "specimen": {
          "reference": "urn:uuid:7a906718-2e1a-432a-a551-ed4af90dc3db"
        }
      }
    },
    {
      "fullUrl": "urn:uuid:8d5e2968-ef73-41be-845c-b6bc7713e8d4",
      "resource": {
        "resourceType": "Observation",
        "id": "8d5e2968-ef73-41be-845c-b6bc7713e8d4",
        "meta": {
          "profile": [
            "http://hl7.eu/fhir/laboratory/StructureDefinition/Observation-resultslab-eu-lab"
          ]
        },
        "performer": [
          {
            "display": "The Central European Lab"
          }
        ],
        "category": [
          {
            "coding": [
              {
                "system": "http://terminology.hl7.org/CodeSystem/observation-category",
                "code": "laboratory"
              }
            ]
          }
        ],
        "code": {
          "coding": [
            {
              "code": "25428-4",
              "system": "http://loinc.org",
              "display": "Glucose [Presence] in Urine by Test strip"
            }
          ],
          "text": "Glucose [Presence] in Urine by Test strip"
        },
        "text": {
          "status": "generated",
          "div": "<div xmlns=\"http://www.w3.org/1999/xhtml\"><table class=\"hl7__eu__lab__report\"><tr><th>Test</th><th>18-Oct-2022</th><th>Reference&#xA0;Range</th><th>Unit</th></tr><tr><td>Glucose [Presence] in Urine by Test strip</td></tr></table></div>"
        },
        "status": "final",
        "subject": {
          "reference": "urn:uuid:4be107f9-a74e-47f3-a2d9-78ced6ce6e73",
          "display": "Meaghan Neary"
        },
        "effectiveDateTime": "2022-10-17T22:11:04Z",
        "specimen": {
          "reference": "urn:uuid:7a906718-2e1a-432a-a551-ed4af90dc3db"
        }
      }
    },
    {
      "fullUrl": "urn:uuid:38f2eca0-6033-44f1-86ce-f721c9aa67f0",
      "resource": {
        "resourceType": "Observation",
        "id": "38f2eca0-6033-44f1-86ce-f721c9aa67f0",
        "meta": {
          "profile": [
            "http://hl7.eu/fhir/laboratory/StructureDefinition/Observation-resultslab-eu-lab"
          ]
        },
        "performer": [
          {
            "display": "The Central European Lab"
          }
        ],
        "category": [
          {
            "coding": [
              {
                "system": "http://terminology.hl7.org/CodeSystem/observation-category",
                "code": "laboratory"
              }
            ]
          }
        ],
        "code": {
          "coding": [
            {
              "code": "20505-4",
              "system": "http://loinc.org",
              "display": "Bilirubin.total [Mass/volume] in Urine by Test strip"
            }
          ],
          "text": "Bilirubin.total [Mass/volume] in Urine by Test strip"
        },
        "valueQuantity": {
          "system": "http://unitsofmeasure.org",
          "value": 0.5,
          "unit": "mg/dL",
          "code": "mg/dL"
        },
        "referenceRange": [
          {
            "low": {
              "value": 0,
              "code": "mg/dL",
              "system": "http://unitsofmeasure.org"
            }
          },
          {
            "high": {
              "value": 1,
              "code": "mg/dL",
              "system": "http://unitsofmeasure.org"
            }
          }
        ],
        "text": {
          "status": "generated",
          "div": "<div xmlns=\"http://www.w3.org/1999/xhtml\"><table class=\"hl7__eu__lab__report\"><tr><th>Test</th><th>18-Oct-2022</th><th>Reference&#xA0;Range</th><th>Unit</th></tr><tr><td>Bilirubin.total [Mass/volume] in Urine by Test strip</td><td>0.5</td><td>0 - 1</td><td></td><td>mg/dL</td></tr></table></div>"
        },
        "status": "final",
        "subject": {
          "reference": "urn:uuid:4be107f9-a74e-47f3-a2d9-78ced6ce6e73",
          "display": "Meaghan Neary"
        },
        "effectiveDateTime": "2022-10-17T22:11:04Z",
        "specimen": {
          "reference": "urn:uuid:7a906718-2e1a-432a-a551-ed4af90dc3db"
        }
      }
    },
    {
      "fullUrl": "urn:uuid:cd065bc4-7240-47bd-8b65-48e1427bd261",
      "resource": {
        "resourceType": "Observation",
        "id": "cd065bc4-7240-47bd-8b65-48e1427bd261",
        "meta": {
          "profile": [
            "http://hl7.eu/fhir/laboratory/StructureDefinition/Observation-resultslab-eu-lab"
          ]
        },
        "performer": [
          {
            "display": "The Central European Lab"
          }
        ],
        "category": [
          {
            "coding": [
              {
                "system": "http://terminology.hl7.org/CodeSystem/observation-category",
                "code": "laboratory"
              }
            ]
          }
        ],
        "code": {
          "coding": [
            {
              "code": "5770-3",
              "system": "http://loinc.org",
              "display": "Bilirubin.total [Presence] in Urine by Test strip"
            }
          ],
          "text": "Bilirubin.total [Presence] in Urine by Test strip"
        },
        "text": {
          "status": "generated",
          "div": "<div xmlns=\"http://www.w3.org/1999/xhtml\"><table class=\"hl7__eu__lab__report\"><tr><th>Test</th><th>18-Oct-2022</th><th>Reference&#xA0;Range</th><th>Unit</th></tr><tr><td>Bilirubin.total [Presence] in Urine by Test strip</td></tr></table></div>"
        },
        "status": "final",
        "subject": {
          "reference": "urn:uuid:4be107f9-a74e-47f3-a2d9-78ced6ce6e73",
          "display": "Meaghan Neary"
        },
        "effectiveDateTime": "2022-10-17T22:11:04Z",
        "specimen": {
          "reference": "urn:uuid:7a906718-2e1a-432a-a551-ed4af90dc3db"
        }
      }
    },
    {
      "fullUrl": "urn:uuid:424479b7-eaac-4e0c-9f88-ee021c841f30",
      "resource": {
        "resourceType": "Observation",
        "id": "424479b7-eaac-4e0c-9f88-ee021c841f30",
        "meta": {
          "profile": [
            "http://hl7.eu/fhir/laboratory/StructureDefinition/Observation-resultslab-eu-lab"
          ]
        },
        "performer": [
          {
            "display": "The Central European Lab"
          }
        ],
        "category": [
          {
            "coding": [
              {
                "system": "http://terminology.hl7.org/CodeSystem/observation-category",
                "code": "laboratory"
              }
            ]
          }
        ],
        "code": {
          "coding": [
            {
              "code": "5797-6",
              "system": "http://loinc.org",
              "display": "Ketones [Mass/volume] in Urine by Test strip"
            }
          ],
          "text": "Ketones [Mass/volume] in Urine by Test strip"
        },
        "valueQuantity": {
          "system": "http://unitsofmeasure.org",
          "value": 3,
          "unit": "mg/dL",
          "code": "mg/dL"
        },
        "referenceRange": [
          {
            "low": {
              "value": 0,
              "code": "mg/dL",
              "system": "http://unitsofmeasure.org"
            }
          },
          {
            "high": {
              "value": 4,
              "code": "mg/dL",
              "system": "http://unitsofmeasure.org"
            }
          }
        ],
        "text": {
          "status": "generated",
          "div": "<div xmlns=\"http://www.w3.org/1999/xhtml\"><table class=\"hl7__eu__lab__report\"><tr><th>Test</th><th>18-Oct-2022</th><th>Reference&#xA0;Range</th><th>Unit</th></tr><tr><td>Ketones [Mass/volume] in Urine by Test strip</td><td>3.0</td><td>0 - 4</td><td></td><td>mg/dL</td></tr></table></div>"
        },
        "status": "final",
        "subject": {
          "reference": "urn:uuid:4be107f9-a74e-47f3-a2d9-78ced6ce6e73",
          "display": "Meaghan Neary"
        },
        "effectiveDateTime": "2022-10-17T22:11:04Z",
        "specimen": {
          "reference": "urn:uuid:7a906718-2e1a-432a-a551-ed4af90dc3db"
        }
      }
    },
    {
      "fullUrl": "urn:uuid:875b816a-195b-4276-8a4c-7212fc09e2d3",
      "resource": {
        "resourceType": "Observation",
        "id": "875b816a-195b-4276-8a4c-7212fc09e2d3",
        "meta": {
          "profile": [
            "http://hl7.eu/fhir/laboratory/StructureDefinition/Observation-resultslab-eu-lab"
          ]
        },
        "performer": [
          {
            "display": "The Central European Lab"
          }
        ],
        "category": [
          {
            "coding": [
              {
                "system": "http://terminology.hl7.org/CodeSystem/observation-category",
                "code": "laboratory"
              }
            ]
          }
        ],
        "code": {
          "coding": [
            {
              "code": "2514-8",
              "system": "http://loinc.org",
              "display": "Ketones [Presence] in Urine by Test strip"
            }
          ],
          "text": "Ketones [Presence] in Urine by Test strip"
        },
        "text": {
          "status": "generated",
          "div": "<div xmlns=\"http://www.w3.org/1999/xhtml\"><table class=\"hl7__eu__lab__report\"><tr><th>Test</th><th>18-Oct-2022</th><th>Reference&#xA0;Range</th><th>Unit</th></tr><tr><td>Ketones [Presence] in Urine by Test strip</td></tr></table></div>"
        },
        "status": "final",
        "subject": {
          "reference": "urn:uuid:4be107f9-a74e-47f3-a2d9-78ced6ce6e73",
          "display": "Meaghan Neary"
        },
        "effectiveDateTime": "2022-10-17T22:11:04Z",
        "specimen": {
          "reference": "urn:uuid:7a906718-2e1a-432a-a551-ed4af90dc3db"
        }
      }
    },
    {
      "fullUrl": "urn:uuid:f7cb1e8f-aadb-47dc-9dec-ba26602e1460",
      "resource": {
        "resourceType": "Observation",
        "id": "f7cb1e8f-aadb-47dc-9dec-ba26602e1460",
        "meta": {
          "profile": [
            "http://hl7.eu/fhir/laboratory/StructureDefinition/Observation-resultslab-eu-lab"
          ]
        },
        "performer": [
          {
            "display": "The Central European Lab"
          }
        ],
        "category": [
          {
            "coding": [
              {
                "system": "http://terminology.hl7.org/CodeSystem/observation-category",
                "code": "laboratory"
              }
            ]
          }
        ],
        "code": {
          "coding": [
            {
              "code": "5811-5",
              "system": "http://loinc.org",
              "display": "Specific gravity of Urine by Test strip"
            }
          ],
          "text": "Specific gravity of Urine by Test strip"
        },
        "valueQuantity": {
          "system": "http://unitsofmeasure.org",
          "value": 1,
          "unit": "{nominal}",
          "code": "{nominal}"
        },
        "referenceRange": [
          {
            "low": {
              "value": 1.005,
              "code": "g/mL",
              "system": "http://unitsofmeasure.org"
            }
          },
          {
            "high": {
              "value": 1.03,
              "code": "g/mL",
              "system": "http://unitsofmeasure.org"
            }
          }
        ],
        "interpretation": [
          {
            "coding": [
              {
                "code": "L",
                "system": "http://terminology.hl7.org/CodeSystem/v3-ObservationInterpretation",
                "display": "Low"
              }
            ]
          }
        ],
        "text": {
          "status": "generated",
          "div": "<div xmlns=\"http://www.w3.org/1999/xhtml\"><table class=\"hl7__eu__lab__report\"><tr><th>Test</th><th>18-Oct-2022</th><th>Reference&#xA0;Range</th><th>Unit</th></tr><tr><td>Specific gravity of Urine by Test strip</td><td>1.0</td><td>1.005 - 1.03</td><td>L</td><td>{nominal}</td></tr></table></div>"
        },
        "status": "final",
        "subject": {
          "reference": "urn:uuid:4be107f9-a74e-47f3-a2d9-78ced6ce6e73",
          "display": "Meaghan Neary"
        },
        "effectiveDateTime": "2022-10-17T22:11:04Z",
        "specimen": {
          "reference": "urn:uuid:7a906718-2e1a-432a-a551-ed4af90dc3db"
        }
      }
    },
    {
      "fullUrl": "urn:uuid:6ec9933c-2080-454b-83a9-b099b63689fb",
      "resource": {
        "resourceType": "Observation",
        "id": "6ec9933c-2080-454b-83a9-b099b63689fb",
        "meta": {
          "profile": [
            "http://hl7.eu/fhir/laboratory/StructureDefinition/Observation-resultslab-eu-lab"
          ]
        },
        "performer": [
          {
            "display": "The Central European Lab"
          }
        ],
        "category": [
          {
            "coding": [
              {
                "system": "http://terminology.hl7.org/CodeSystem/observation-category",
                "code": "laboratory"
              }
            ]
          }
        ],
        "code": {
          "coding": [
            {
              "code": "5803-2",
              "system": "http://loinc.org",
              "display": "pH of Urine by Test strip"
            }
          ],
          "text": "pH of Urine by Test strip"
        },
        "valueQuantity": {
          "system": "http://unitsofmeasure.org",
          "value": 6.5,
          "unit": "pH",
          "code": "pH"
        },
        "referenceRange": [
          {
            "low": {
              "value": 4.6,
              "code": "pH",
              "system": "http://unitsofmeasure.org"
            }
          },
          {
            "high": {
              "value": 7,
              "code": "pH",
              "system": "http://unitsofmeasure.org"
            }
          }
        ],
        "text": {
          "status": "generated",
          "div": "<div xmlns=\"http://www.w3.org/1999/xhtml\"><table class=\"hl7__eu__lab__report\"><tr><th>Test</th><th>18-Oct-2022</th><th>Reference&#xA0;Range</th><th>Unit</th></tr><tr><td>pH of Urine by Test strip</td><td>6.5</td><td>4.6 - 7</td><td></td><td>pH</td></tr></table></div>"
        },
        "status": "final",
        "subject": {
          "reference": "urn:uuid:4be107f9-a74e-47f3-a2d9-78ced6ce6e73",
          "display": "Meaghan Neary"
        },
        "effectiveDateTime": "2022-10-17T22:11:04Z",
        "specimen": {
          "reference": "urn:uuid:7a906718-2e1a-432a-a551-ed4af90dc3db"
        }
      }
    },
    {
      "fullUrl": "urn:uuid:d0bda832-a6ae-457e-8bf5-91dd62f004e4",
      "resource": {
        "resourceType": "Observation",
        "id": "d0bda832-a6ae-457e-8bf5-91dd62f004e4",
        "meta": {
          "profile": [
            "http://hl7.eu/fhir/laboratory/StructureDefinition/Observation-resultslab-eu-lab"
          ]
        },
        "performer": [
          {
            "display": "The Central European Lab"
          }
        ],
        "category": [
          {
            "coding": [
              {
                "system": "http://terminology.hl7.org/CodeSystem/observation-category",
                "code": "laboratory"
              }
            ]
          }
        ],
        "code": {
          "coding": [
            {
              "code": "5804-0",
              "system": "http://loinc.org",
              "display": "Protein [Mass/volume] in Urine by Test strip"
            }
          ],
          "text": "Protein [Mass/volume] in Urine by Test strip"
        },
        "valueQuantity": {
          "system": "http://unitsofmeasure.org",
          "value": 374,
          "unit": "mg/dL",
          "code": "mg/dL"
        },
        "referenceRange": [
          {
            "low": {
              "value": 0,
              "code": "mg/dL",
              "system": "http://unitsofmeasure.org"
            }
          },
          {
            "high": {
              "value": 14,
              "code": "mg/dL",
              "system": "http://unitsofmeasure.org"
            }
          }
        ],
        "interpretation": [
          {
            "coding": [
              {
                "code": "H",
                "system": "http://terminology.hl7.org/CodeSystem/v3-ObservationInterpretation",
                "display": "High"
              }
            ]
          }
        ],
        "text": {
          "status": "generated",
          "div": "<div xmlns=\"http://www.w3.org/1999/xhtml\"><table class=\"hl7__eu__lab__report\"><tr><th>Test</th><th>18-Oct-2022</th><th>Reference&#xA0;Range</th><th>Unit</th></tr><tr><td>Protein [Mass/volume] in Urine by Test strip</td><td>374.0</td><td>0 - 14</td><td>H</td><td>mg/dL</td></tr></table></div>"
        },
        "status": "final",
        "subject": {
          "reference": "urn:uuid:4be107f9-a74e-47f3-a2d9-78ced6ce6e73",
          "display": "Meaghan Neary"
        },
        "effectiveDateTime": "2022-10-17T22:11:04Z",
        "specimen": {
          "reference": "urn:uuid:7a906718-2e1a-432a-a551-ed4af90dc3db"
        }
      }
    },
    {
      "fullUrl": "urn:uuid:bf4fddd6-50bc-4d0d-be73-db9ed1e15fd7",
      "resource": {
        "resourceType": "Observation",
        "id": "bf4fddd6-50bc-4d0d-be73-db9ed1e15fd7",
        "meta": {
          "profile": [
            "http://hl7.eu/fhir/laboratory/StructureDefinition/Observation-resultslab-eu-lab"
          ]
        },
        "performer": [
          {
            "display": "The Central European Lab"
          }
        ],
        "category": [
          {
            "coding": [
              {
                "system": "http://terminology.hl7.org/CodeSystem/observation-category",
                "code": "laboratory"
              }
            ]
          }
        ],
        "code": {
          "coding": [
            {
              "code": "20454-5",
              "system": "http://loinc.org",
              "display": "Protein [Presence] in Urine by Test strip"
            }
          ],
          "text": "Protein [Presence] in Urine by Test strip"
        },
        "text": {
          "status": "generated",
          "div": "<div xmlns=\"http://www.w3.org/1999/xhtml\"><table class=\"hl7__eu__lab__report\"><tr><th>Test</th><th>18-Oct-2022</th><th>Reference&#xA0;Range</th><th>Unit</th></tr><tr><td>Protein [Presence] in Urine by Test strip</td></tr></table></div>"
        },
        "status": "final",
        "subject": {
          "reference": "urn:uuid:4be107f9-a74e-47f3-a2d9-78ced6ce6e73",
          "display": "Meaghan Neary"
        },
        "effectiveDateTime": "2022-10-17T22:11:04Z",
        "specimen": {
          "reference": "urn:uuid:7a906718-2e1a-432a-a551-ed4af90dc3db"
        }
      }
    },
    {
      "fullUrl": "urn:uuid:39d563e3-51f7-4b75-a8c6-cac6249d18b2",
      "resource": {
        "resourceType": "Observation",
        "id": "39d563e3-51f7-4b75-a8c6-cac6249d18b2",
        "meta": {
          "profile": [
            "http://hl7.eu/fhir/laboratory/StructureDefinition/Observation-resultslab-eu-lab"
          ]
        },
        "performer": [
          {
            "display": "The Central European Lab"
          }
        ],
        "category": [
          {
            "coding": [
              {
                "system": "http://terminology.hl7.org/CodeSystem/observation-category",
                "code": "laboratory"
              }
            ]
          }
        ],
        "code": {
          "coding": [
            {
              "code": "5802-4",
              "system": "http://loinc.org",
              "display": "Nitrite [Presence] in Urine by Test strip"
            }
          ],
          "text": "Nitrite [Presence] in Urine by Test strip"
        },
        "text": {
          "status": "generated",
          "div": "<div xmlns=\"http://www.w3.org/1999/xhtml\"><table class=\"hl7__eu__lab__report\"><tr><th>Test</th><th>18-Oct-2022</th><th>Reference&#xA0;Range</th><th>Unit</th></tr><tr><td>Nitrite [Presence] in Urine by Test strip</td></tr></table></div>"
        },
        "status": "final",
        "subject": {
          "reference": "urn:uuid:4be107f9-a74e-47f3-a2d9-78ced6ce6e73",
          "display": "Meaghan Neary"
        },
        "effectiveDateTime": "2022-10-17T22:11:04Z",
        "specimen": {
          "reference": "urn:uuid:7a906718-2e1a-432a-a551-ed4af90dc3db"
        }
      }
    },
    {
      "fullUrl": "urn:uuid:356218d5-2d85-4242-af77-bdc671f11dc0",
      "resource": {
        "resourceType": "Observation",
        "id": "356218d5-2d85-4242-af77-bdc671f11dc0",
        "meta": {
          "profile": [
            "http://hl7.eu/fhir/laboratory/StructureDefinition/Observation-resultslab-eu-lab"
          ]
        },
        "performer": [
          {
            "display": "The Central European Lab"
          }
        ],
        "category": [
          {
            "coding": [
              {
                "system": "http://terminology.hl7.org/CodeSystem/observation-category",
                "code": "laboratory"
              }
            ]
          }
        ],
        "code": {
          "coding": [
            {
              "code": "5794-3",
              "system": "http://loinc.org",
              "display": "Hemoglobin [Presence] in Urine by Test strip"
            }
          ],
          "text": "Hemoglobin [Presence] in Urine by Test strip"
        },
        "text": {
          "status": "generated",
          "div": "<div xmlns=\"http://www.w3.org/1999/xhtml\"><table class=\"hl7__eu__lab__report\"><tr><th>Test</th><th>18-Oct-2022</th><th>Reference&#xA0;Range</th><th>Unit</th></tr><tr><td>Hemoglobin [Presence] in Urine by Test strip</td></tr></table></div>"
        },
        "status": "final",
        "subject": {
          "reference": "urn:uuid:4be107f9-a74e-47f3-a2d9-78ced6ce6e73",
          "display": "Meaghan Neary"
        },
        "effectiveDateTime": "2022-10-17T22:11:04Z",
        "specimen": {
          "reference": "urn:uuid:7a906718-2e1a-432a-a551-ed4af90dc3db"
        }
      }
    },
    {
      "fullUrl": "urn:uuid:747225ce-4018-43db-b4e7-d82c9e758f73",
      "resource": {
        "resourceType": "Observation",
        "id": "747225ce-4018-43db-b4e7-d82c9e758f73",
        "meta": {
          "profile": [
            "http://hl7.eu/fhir/laboratory/StructureDefinition/Observation-resultslab-eu-lab"
          ]
        },
        "performer": [
          {
            "display": "The Central European Lab"
          }
        ],
        "category": [
          {
            "coding": [
              {
                "system": "http://terminology.hl7.org/CodeSystem/observation-category",
                "code": "laboratory"
              }
            ]
          }
        ],
        "code": {
          "coding": [
            {
              "code": "5799-2",
              "system": "http://loinc.org",
              "display": "Leukocyte esterase [Presence] in Urine by Test strip"
            }
          ],
          "text": "Leukocyte esterase [Presence] in Urine by Test strip"
        },
        "text": {
          "status": "generated",
          "div": "<div xmlns=\"http://www.w3.org/1999/xhtml\"><table class=\"hl7__eu__lab__report\"><tr><th>Test</th><th>18-Oct-2022</th><th>Reference&#xA0;Range</th><th>Unit</th></tr><tr><td>Leukocyte esterase [Presence] in Urine by Test strip</td></tr></table></div>"
        },
        "status": "final",
        "subject": {
          "reference": "urn:uuid:4be107f9-a74e-47f3-a2d9-78ced6ce6e73",
          "display": "Meaghan Neary"
        },
        "effectiveDateTime": "2022-10-17T22:11:04Z",
        "specimen": {
          "reference": "urn:uuid:7a906718-2e1a-432a-a551-ed4af90dc3db"
        }
      }
    },
    {
      "fullUrl": "urn:uuid:6ba307e4-9890-4dd7-9fce-211d3a2373f7",
      "resource": {
        "resourceType": "Observation",
        "id": "6ba307e4-9890-4dd7-9fce-211d3a2373f7",
        "meta": {
          "profile": [
            "http://hl7.eu/fhir/laboratory/StructureDefinition/Observation-resultslab-eu-lab"
          ]
        },
        "performer": [
          {
            "display": "The Central European Lab"
          }
        ],
        "category": [
          {
            "coding": [
              {
                "system": "http://terminology.hl7.org/CodeSystem/observation-category",
                "code": "laboratory"
              }
            ]
          }
        ],
        "code": {
          "coding": [
            {
              "code": "4548-4",
              "system": "http://loinc.org",
              "display": "Hemoglobin A1c/Hemoglobin.total in Blood"
            }
          ],
          "text": "Hemoglobin A1c/Hemoglobin.total in Blood"
        },
        "valueQuantity": {
          "system": "http://unitsofmeasure.org",
          "value": 3.1,
          "unit": "%",
          "code": "%"
        },
        "referenceRange": [
          {
            "low": {
              "value": 4,
              "code": "%",
              "system": "http://unitsofmeasure.org"
            }
          },
          {
            "high": {
              "value": 6.4,
              "code": "%",
              "system": "http://unitsofmeasure.org"
            }
          }
        ],
        "interpretation": [
          {
            "coding": [
              {
                "code": "L",
                "system": "http://terminology.hl7.org/CodeSystem/v3-ObservationInterpretation",
                "display": "Low"
              }
            ]
          }
        ],
        "text": {
          "status": "generated",
          "div": "<div xmlns=\"http://www.w3.org/1999/xhtml\"><table class=\"hl7__eu__lab__report\"><tr><th>Test</th><th>18-Oct-2022</th><th>Reference&#xA0;Range</th><th>Unit</th></tr><tr><td>Hemoglobin A1c/Hemoglobin.total in Blood</td><td>3.1</td><td>4 - 6.4</td><td>L</td><td>%</td></tr></table></div>"
        },
        "status": "final",
        "subject": {
          "reference": "urn:uuid:4be107f9-a74e-47f3-a2d9-78ced6ce6e73",
          "display": "Meaghan Neary"
        },
        "effectiveDateTime": "2022-10-17T22:11:04Z",
        "specimen": {
          "reference": "urn:uuid:57c37d68-47e0-4e2a-98f6-8275f40d3d8b"
        }
      }
    },
    {
      "fullUrl": "urn:uuid:ef1efb13-9774-4c86-bb0d-af26dbbf9931",
      "resource": {
        "resourceType": "Observation",
        "id": "ef1efb13-9774-4c86-bb0d-af26dbbf9931",
        "meta": {
          "profile": [
            "http://hl7.eu/fhir/laboratory/StructureDefinition/Observation-resultslab-eu-lab"
          ]
        },
        "performer": [
          {
            "display": "The Central European Lab"
          }
        ],
        "category": [
          {
            "coding": [
              {
                "system": "http://terminology.hl7.org/CodeSystem/observation-category",
                "code": "laboratory"
              }
            ]
          }
        ],
        "code": {
          "coding": [
            {
              "code": "2339-0",
              "system": "http://loinc.org",
              "display": "Glucose [Mass/volume] in Blood"
            }
          ],
          "text": "Glucose [Mass/volume] in Blood"
        },
        "valueQuantity": {
          "system": "http://unitsofmeasure.org",
          "value": 91.4,
          "unit": "mg/dL",
          "code": "mg/dL"
        },
        "referenceRange": [
          {
            "low": {
              "value": 70,
              "code": "mg/dL",
              "system": "http://unitsofmeasure.org"
            }
          },
          {
            "high": {
              "value": 100,
              "code": "mg/dL",
              "system": "http://unitsofmeasure.org"
            }
          }
        ],
        "text": {
          "status": "generated",
          "div": "<div xmlns=\"http://www.w3.org/1999/xhtml\"><table class=\"hl7__eu__lab__report\"><tr><th>Test</th><th>18-Oct-2022</th><th>Reference&#xA0;Range</th><th>Unit</th></tr><tr><td>Glucose [Mass/volume] in Blood</td><td>91.4</td><td>70 - 100</td><td></td><td>mg/dL</td></tr></table></div>"
        },
        "status": "final",
        "subject": {
          "reference": "urn:uuid:4be107f9-a74e-47f3-a2d9-78ced6ce6e73",
          "display": "Meaghan Neary"
        },
        "effectiveDateTime": "2022-10-17T22:11:04Z",
        "specimen": {
          "reference": "urn:uuid:57c37d68-47e0-4e2a-98f6-8275f40d3d8b"
        }
      }
    },
    {
      "fullUrl": "urn:uuid:ba193921-66a1-4187-a2e2-e7553be3cc52",
      "resource": {
        "resourceType": "Observation",
        "id": "ba193921-66a1-4187-a2e2-e7553be3cc52",
        "meta": {
          "profile": [
            "http://hl7.eu/fhir/laboratory/StructureDefinition/Observation-resultslab-eu-lab"
          ]
        },
        "performer": [
          {
            "display": "The Central European Lab"
          }
        ],
        "category": [
          {
            "coding": [
              {
                "system": "http://terminology.hl7.org/CodeSystem/observation-category",
                "code": "laboratory"
              }
            ]
          }
        ],
        "code": {
          "coding": [
            {
              "code": "6299-2",
              "system": "http://loinc.org",
              "display": "Urea nitrogen [Mass/volume] in Blood"
            }
          ],
          "text": "Urea nitrogen [Mass/volume] in Blood"
        },
        "valueQuantity": {
          "system": "http://unitsofmeasure.org",
          "value": 10.5,
          "unit": "mg/dL",
          "code": "mg/dL"
        },
        "referenceRange": [
          {
            "low": {
              "value": 7,
              "code": "mg/dL",
              "system": "http://unitsofmeasure.org"
            }
          },
          {
            "high": {
              "value": 43,
              "code": "mg/dL",
              "system": "http://unitsofmeasure.org"
            }
          }
        ],
        "text": {
          "status": "generated",
          "div": "<div xmlns=\"http://www.w3.org/1999/xhtml\"><table class=\"hl7__eu__lab__report\"><tr><th>Test</th><th>18-Oct-2022</th><th>Reference&#xA0;Range</th><th>Unit</th></tr><tr><td>Urea nitrogen [Mass/volume] in Blood</td><td>10.5</td><td>7 - 43</td><td></td><td>mg/dL</td></tr></table></div>"
        },
        "status": "final",
        "subject": {
          "reference": "urn:uuid:4be107f9-a74e-47f3-a2d9-78ced6ce6e73",
          "display": "Meaghan Neary"
        },
        "effectiveDateTime": "2022-10-17T22:11:04Z",
        "specimen": {
          "reference": "urn:uuid:57c37d68-47e0-4e2a-98f6-8275f40d3d8b"
        }
      }
    },
    {
      "fullUrl": "urn:uuid:0134ee70-0b9a-4e5f-8127-d7527b4bd14f",
      "resource": {
        "resourceType": "Observation",
        "id": "0134ee70-0b9a-4e5f-8127-d7527b4bd14f",
        "meta": {
          "profile": [
            "http://hl7.eu/fhir/laboratory/StructureDefinition/Observation-resultslab-eu-lab"
          ]
        },
        "performer": [
          {
            "display": "The Central European Lab"
          }
        ],
        "category": [
          {
            "coding": [
              {
                "system": "http://terminology.hl7.org/CodeSystem/observation-category",
                "code": "laboratory"
              }
            ]
          }
        ],
        "code": {
          "coding": [
            {
              "code": "38483-4",
              "system": "http://loinc.org",
              "display": "Creatinine [Mass/volume] in Blood"
            }
          ],
          "text": "Creatinine [Mass/volume] in Blood"
        },
        "valueQuantity": {
          "system": "http://unitsofmeasure.org",
          "value": 4,
          "unit": "mg/dL",
          "code": "mg/dL"
        },
        "referenceRange": [
          {
            "low": {
              "value": 0.6,
              "code": "mg/dL",
              "system": "http://unitsofmeasure.org"
            }
          },
          {
            "high": {
              "value": 1.1,
              "code": "mg/dL",
              "system": "http://unitsofmeasure.org"
            }
          }
        ],
        "interpretation": [
          {
            "coding": [
              {
                "code": "H",
                "system": "http://terminology.hl7.org/CodeSystem/v3-ObservationInterpretation",
                "display": "High"
              }
            ]
          }
        ],
        "text": {
          "status": "generated",
          "div": "<div xmlns=\"http://www.w3.org/1999/xhtml\"><table class=\"hl7__eu__lab__report\"><tr><th>Test</th><th>18-Oct-2022</th><th>Reference&#xA0;Range</th><th>Unit</th></tr><tr><td>Creatinine [Mass/volume] in Blood</td><td>4.0</td><td>0.6 - 1.1</td><td>H</td><td>mg/dL</td></tr></table></div>"
        },
        "status": "final",
        "subject": {
          "reference": "urn:uuid:4be107f9-a74e-47f3-a2d9-78ced6ce6e73",
          "display": "Meaghan Neary"
        },
        "effectiveDateTime": "2022-10-17T22:11:04Z",
        "specimen": {
          "reference": "urn:uuid:57c37d68-47e0-4e2a-98f6-8275f40d3d8b"
        }
      }
    },
    {
      "fullUrl": "urn:uuid:c170ff2c-ef50-47de-8d89-fbbf57c0111c",
      "resource": {
        "resourceType": "Observation",
        "id": "c170ff2c-ef50-47de-8d89-fbbf57c0111c",
        "meta": {
          "profile": [
            "http://hl7.eu/fhir/laboratory/StructureDefinition/Observation-resultslab-eu-lab"
          ]
        },
        "performer": [
          {
            "display": "The Central European Lab"
          }
        ],
        "category": [
          {
            "coding": [
              {
                "system": "http://terminology.hl7.org/CodeSystem/observation-category",
                "code": "laboratory"
              }
            ]
          }
        ],
        "code": {
          "coding": [
            {
              "code": "49765-1",
              "system": "http://loinc.org",
              "display": "Calcium [Mass/volume] in Blood"
            }
          ],
          "text": "Calcium [Mass/volume] in Blood"
        },
        "valueQuantity": {
          "system": "http://unitsofmeasure.org",
          "value": 8.9,
          "unit": "mg/dL",
          "code": "mg/dL"
        },
        "referenceRange": [
          {
            "low": {
              "value": 8.5,
              "code": "mg/dL",
              "system": "http://unitsofmeasure.org"
            }
          },
          {
            "high": {
              "value": 10.5,
              "code": "mg/dL",
              "system": "http://unitsofmeasure.org"
            }
          }
        ],
        "text": {
          "status": "generated",
          "div": "<div xmlns=\"http://www.w3.org/1999/xhtml\"><table class=\"hl7__eu__lab__report\"><tr><th>Test</th><th>18-Oct-2022</th><th>Reference&#xA0;Range</th><th>Unit</th></tr><tr><td>Calcium [Mass/volume] in Blood</td><td>8.9</td><td>8.5 - 10.5</td><td></td><td>mg/dL</td></tr></table></div>"
        },
        "status": "final",
        "subject": {
          "reference": "urn:uuid:4be107f9-a74e-47f3-a2d9-78ced6ce6e73",
          "display": "Meaghan Neary"
        },
        "effectiveDateTime": "2022-10-17T22:11:04Z",
        "specimen": {
          "reference": "urn:uuid:57c37d68-47e0-4e2a-98f6-8275f40d3d8b"
        }
      }
    },
    {
      "fullUrl": "urn:uuid:3faf5c83-daa0-426b-a30b-44aaaf05a32b",
      "resource": {
        "resourceType": "Observation",
        "id": "3faf5c83-daa0-426b-a30b-44aaaf05a32b",
        "meta": {
          "profile": [
            "http://hl7.eu/fhir/laboratory/StructureDefinition/Observation-resultslab-eu-lab"
          ]
        },
        "performer": [
          {
            "display": "The Central European Lab"
          }
        ],
        "category": [
          {
            "coding": [
              {
                "system": "http://terminology.hl7.org/CodeSystem/observation-category",
                "code": "laboratory"
              }
            ]
          }
        ],
        "code": {
          "coding": [
            {
              "code": "2947-0",
              "system": "http://loinc.org",
              "display": "Sodium [Moles/volume] in Blood"
            }
          ],
          "text": "Sodium [Moles/volume] in Blood"
        },
        "valueQuantity": {
          "system": "http://unitsofmeasure.org",
          "value": 137.5,
          "unit": "mmol/L",
          "code": "mmol/L"
        },
        "referenceRange": [
          {
            "low": {
              "value": 135,
              "code": "mmol/L",
              "system": "http://unitsofmeasure.org"
            }
          },
          {
            "high": {
              "value": 145,
              "code": "mmol/L",
              "system": "http://unitsofmeasure.org"
            }
          }
        ],
        "text": {
          "status": "generated",
          "div": "<div xmlns=\"http://www.w3.org/1999/xhtml\"><table class=\"hl7__eu__lab__report\"><tr><th>Test</th><th>18-Oct-2022</th><th>Reference&#xA0;Range</th><th>Unit</th></tr><tr><td>Sodium [Moles/volume] in Blood</td><td>137.5</td><td>135 - 145</td><td></td><td>mmol/L</td></tr></table></div>"
        },
        "status": "final",
        "subject": {
          "reference": "urn:uuid:4be107f9-a74e-47f3-a2d9-78ced6ce6e73",
          "display": "Meaghan Neary"
        },
        "effectiveDateTime": "2022-10-17T22:11:04Z",
        "specimen": {
          "reference": "urn:uuid:57c37d68-47e0-4e2a-98f6-8275f40d3d8b"
        }
      }
    },
    {
      "fullUrl": "urn:uuid:9622e63f-c1aa-41df-b816-b62cf29c6937",
      "resource": {
        "resourceType": "Observation",
        "id": "9622e63f-c1aa-41df-b816-b62cf29c6937",
        "meta": {
          "profile": [
            "http://hl7.eu/fhir/laboratory/StructureDefinition/Observation-resultslab-eu-lab"
          ]
        },
        "performer": [
          {
            "display": "The Central European Lab"
          }
        ],
        "category": [
          {
            "coding": [
              {
                "system": "http://terminology.hl7.org/CodeSystem/observation-category",
                "code": "laboratory"
              }
            ]
          }
        ],
        "code": {
          "coding": [
            {
              "code": "6298-4",
              "system": "http://loinc.org",
              "display": "Potassium [Moles/volume] in Blood"
            }
          ],
          "text": "Potassium [Moles/volume] in Blood"
        },
        "valueQuantity": {
          "system": "http://unitsofmeasure.org",
          "value": 5.1,
          "unit": "mmol/L",
          "code": "mmol/L"
        },
        "referenceRange": [
          {
            "low": {
              "value": 3.5,
              "code": "mmol/L",
              "system": "http://unitsofmeasure.org"
            }
          },
          {
            "high": {
              "value": 5.1,
              "code": "mmol/L",
              "system": "http://unitsofmeasure.org"
            }
          }
        ],
        "text": {
          "status": "generated",
          "div": "<div xmlns=\"http://www.w3.org/1999/xhtml\"><table class=\"hl7__eu__lab__report\"><tr><th>Test</th><th>18-Oct-2022</th><th>Reference&#xA0;Range</th><th>Unit</th></tr><tr><td>Potassium [Moles/volume] in Blood</td><td>5.1</td><td>3.5 - 5.1</td><td></td><td>mmol/L</td></tr></table></div>"
        },
        "status": "final",
        "subject": {
          "reference": "urn:uuid:4be107f9-a74e-47f3-a2d9-78ced6ce6e73",
          "display": "Meaghan Neary"
        },
        "effectiveDateTime": "2022-10-17T22:11:04Z",
        "specimen": {
          "reference": "urn:uuid:57c37d68-47e0-4e2a-98f6-8275f40d3d8b"
        }
      }
    },
    {
      "fullUrl": "urn:uuid:6bae0c79-c737-4597-928d-1782055981a0",
      "resource": {
        "resourceType": "Observation",
        "id": "6bae0c79-c737-4597-928d-1782055981a0",
        "meta": {
          "profile": [
            "http://hl7.eu/fhir/laboratory/StructureDefinition/Observation-resultslab-eu-lab"
          ]
        },
        "performer": [
          {
            "display": "The Central European Lab"
          }
        ],
        "category": [
          {
            "coding": [
              {
                "system": "http://terminology.hl7.org/CodeSystem/observation-category",
                "code": "laboratory"
              }
            ]
          }
        ],
        "code": {
          "coding": [
            {
              "code": "2069-3",
              "system": "http://loinc.org",
              "display": "Chloride [Moles/volume] in Blood"
            }
          ],
          "text": "Chloride [Moles/volume] in Blood"
        },
        "valueQuantity": {
          "system": "http://unitsofmeasure.org",
          "value": 107.3,
          "unit": "mmol/L",
          "code": "mmol/L"
        },
        "referenceRange": [
          {
            "low": {
              "value": 98,
              "code": "mmol/L",
              "system": "http://unitsofmeasure.org"
            }
          },
          {
            "high": {
              "value": 108,
              "code": "mmol/L",
              "system": "http://unitsofmeasure.org"
            }
          }
        ],
        "text": {
          "status": "generated",
          "div": "<div xmlns=\"http://www.w3.org/1999/xhtml\"><table class=\"hl7__eu__lab__report\"><tr><th>Test</th><th>18-Oct-2022</th><th>Reference&#xA0;Range</th><th>Unit</th></tr><tr><td>Chloride [Moles/volume] in Blood</td><td>107.3</td><td>98 - 108</td><td></td><td>mmol/L</td></tr></table></div>"
        },
        "status": "final",
        "subject": {
          "reference": "urn:uuid:4be107f9-a74e-47f3-a2d9-78ced6ce6e73",
          "display": "Meaghan Neary"
        },
        "effectiveDateTime": "2022-10-17T22:11:04Z",
        "specimen": {
          "reference": "urn:uuid:57c37d68-47e0-4e2a-98f6-8275f40d3d8b"
        }
      }
    },
    {
      "fullUrl": "urn:uuid:23e59ca7-4edb-4c64-939d-99e89ac22a1e",
      "resource": {
        "resourceType": "Observation",
        "id": "23e59ca7-4edb-4c64-939d-99e89ac22a1e",
        "meta": {
          "profile": [
            "http://hl7.eu/fhir/laboratory/StructureDefinition/Observation-resultslab-eu-lab"
          ]
        },
        "performer": [
          {
            "display": "The Central European Lab"
          }
        ],
        "category": [
          {
            "coding": [
              {
                "system": "http://terminology.hl7.org/CodeSystem/observation-category",
                "code": "laboratory"
              }
            ]
          }
        ],
        "code": {
          "coding": [
            {
              "code": "20565-8",
              "system": "http://loinc.org",
              "display": "Carbon dioxide, total [Moles/volume] in Blood"
            }
          ],
          "text": "Carbon dioxide, total [Moles/volume] in Blood"
        },
        "valueQuantity": {
          "system": "http://unitsofmeasure.org",
          "value": 27.9,
          "unit": "mmol/L",
          "code": "mmol/L"
        },
        "referenceRange": [
          {
            "low": {
              "value": 22,
              "code": "mmol/L",
              "system": "http://unitsofmeasure.org"
            }
          },
          {
            "high": {
              "value": 29,
              "code": "mmol/L",
              "system": "http://unitsofmeasure.org"
            }
          }
        ],
        "text": {
          "status": "generated",
          "div": "<div xmlns=\"http://www.w3.org/1999/xhtml\"><table class=\"hl7__eu__lab__report\"><tr><th>Test</th><th>18-Oct-2022</th><th>Reference&#xA0;Range</th><th>Unit</th></tr><tr><td>Carbon dioxide, total [Moles/volume] in Blood</td><td>27.9</td><td>22 - 29</td><td></td><td>mmol/L</td></tr></table></div>"
        },
        "status": "final",
        "subject": {
          "reference": "urn:uuid:4be107f9-a74e-47f3-a2d9-78ced6ce6e73",
          "display": "Meaghan Neary"
        },
        "effectiveDateTime": "2022-10-17T22:11:04Z",
        "specimen": {
          "reference": "urn:uuid:57c37d68-47e0-4e2a-98f6-8275f40d3d8b"
        }
      }
    },
    {
      "fullUrl": "urn:uuid:a889116f-1b38-43dd-a7fc-ac3a9743287a",
      "resource": {
        "resourceType": "Device",
        "id": "a889116f-1b38-43dd-a7fc-ac3a9743287a",
        "deviceName": [
          {
            "name": "SYNDERAI Synthetic Generator",
            "type": "manufacturer-name"
          }
        ],
        "version": [
          {
            "value": "5.0"
          }
        ],
        "text": {
          "status": "generated",
          "div": "<div xmlns=\"http://www.w3.org/1999/xhtml\">SYNDERAI Synthetic Generator v5.0</div>"
        },
        "status": "active\"",
        "distinctIdentifier": "synderai-generator-50",
        "manufacturer": "SYNDERAI Project"
      }
    },
    {
      "fullUrl": "urn:uuid:e390a94d-b65c-4956-acf8-d59bf9d63063",
      "resource": {
        "resourceType": "Provenance",
        "id": "e390a94d-b65c-4956-acf8-d59bf9d63063",
        "target": [
          {
            "reference": "Patient/4be107f9-a74e-47f3-a2d9-78ced6ce6e73"
          },
          {
            "reference": "Bundle/92301c6d-e3e2-413e-98ca-20a3b6f0fd98"
          },
          {
            "reference": "Composition/59f023a4-3725-4fe9-93a1-31d8adb3b041"
          },
          {
            "reference": "PractitionerRole/5ed6dc18-ce79-4f4a-b2b6-d0bfe26b26c6"
          },
          {
            "reference": "Practitioner/1c2a7624-5b4f-4719-a590-6c4a4a95ca4a"
          },
          {
            "reference": "PractitionerRole/b9fe97a2-6710-433c-9dd1-35a4e49a8b6d"
          },
          {
            "reference": "Organization/521a8a0b-049c-4c7f-b79d-f12ff0106f0b"
          }
        ],
        "activity": {
          "text": "Synthetic Example Data Generation"
        },
        "policy": [
          "https://synderai.net/synderai-synthetic-data-policy"
        ],
        "agent": [
          {
            "type": {
              "text": "author"
            },
            "who": {
              "reference": "Device/a889116f-1b38-43dd-a7fc-ac3a9743287a"
            }
          }
        ],
        "reason": [
          {
            "text": "Interoperability Testing and Training (non-clinical use)"
          }
        ],
        "text": {
          "status": "generated",
          "div": "<div xmlns=\"http://www.w3.org/1999/xhtml\">Provenance for SYNDERAI Synthetic Example Data Resource</div>"
        },
        "recorded": "2022-10-18T00:11:04Z"
      }
    },
    {
      "fullUrl": "urn:uuid:5ed6dc18-ce79-4f4a-b2b6-d0bfe26b26c6",
      "resource": {
        "resourceType": "PractitionerRole",
        "id": "5ed6dc18-ce79-4f4a-b2b6-d0bfe26b26c6",
        "meta": {
          "profile": [
            "http://hl7.eu/fhir/base/StructureDefinition/practitionerRole-eu"
          ]
        },
        "text": {
          "status": "generated",
          "div": "<div xmlns=\"http://www.w3.org/1999/xhtml\">Laboratory Role Id: 5ed6dc18-ce79-4f4a-b2b6-d0bfe26b26c6</div>"
        },
        "practitioner": {
          "reference": "urn:uuid:1c2a7624-5b4f-4719-a590-6c4a4a95ca4a"
        }
      }
    },
    {
      "fullUrl": "urn:uuid:1c2a7624-5b4f-4719-a590-6c4a4a95ca4a",
      "resource": {
        "resourceType": "Practitioner",
        "id": "1c2a7624-5b4f-4719-a590-6c4a4a95ca4a",
        "meta": {
          "profile": [
            "http://hl7.eu/fhir/base/StructureDefinition/practitioner-eu"
          ]
        },
        "identifier": [
          {
            "assigner": {
              "display": "HL7 Europe"
            },
            "system": "urn:oid:2.16.840.1.113883.2.51.999",
            "value": "9a5f60b0-742e-4d69-9ed2-7454a039b1a3"
          }
        ],
        "name": [
          {
            "prefix": [
              "dr"
            ],
            "given": [
              "Ex"
            ],
            "family": "Ample"
          }
        ],
        "address": [
          {
            "line": [
              "Laboratoire Central Europenne",
              "Boulevard du Jardin Botanique 32"
            ],
            "postalCode": "1000",
            "city": "Brussels",
            "country": "Belgium"
          }
        ],
        "text": {
          "status": "generated",
          "div": "<div xmlns=\"http://www.w3.org/1999/xhtml\">Laboratory: Laboratoire Central Europenne, 1000 Brussels, Belgium</div>"
        }
      }
    }
  ],
  "type": "document",
  "timestamp": "2022-10-18T00:11:04Z"
}
