{
  "resourceType": "Bundle",
  "id": "c85cf7f3-3a41-421d-8dac-3191095dc79f",
  "meta": {
    "profile": [
      "http://hl7.eu/fhir/laboratory/StructureDefinition/Bundle-eu-lab"
    ]
  },
  "identifier": {
    "assigner": {
      "display": "HL7 Europe"
    },
    "system": "urn:oid:2.16.840.1.113883.2.51.999",
    "value": "e3788947-4562-483d-9a67-a3288c303511"
  },
  "entry": [
    {
      "fullUrl": "urn:uuid:ca7321d1-4edc-4b9a-9529-3cf84dd2dd7d",
      "resource": {
        "resourceType": "Composition",
        "id": "ca7321d1-4edc-4b9a-9529-3cf84dd2dd7d",
        "meta": {
          "profile": [
            "http://hl7.eu/fhir/laboratory/StructureDefinition/Composition-eu-lab"
          ]
        },
        "identifier": {
          "assigner": {
            "display": "HL7 Europe"
          },
          "system": "urn:oid:2.16.840.1.113883.2.51.999",
          "value": "09e771c2-b1fb-45c9-bc2d-1a40dad5462f"
        },
        "author": [
          {
            "reference": "urn:uuid:6e028eac-270f-4f3f-b8e0-8c27d697926e"
          }
        ],
        "category": [
          {
            "coding": [
              {
                "code": "26436-6",
                "system": "http://loinc.org",
                "display": "Laboratory studies (set)"
              }
            ]
          }
        ],
        "type": {
          "coding": [
            {
              "code": "11502-2",
              "system": "http://loinc.org",
              "display": "Laboratory report"
            }
          ],
          "text": "Laboratory Report"
        },
        "section": [
          {
            "code": {
              "coding": [
                {
                  "code": "26436-6",
                  "system": "http://loinc.org",
                  "display": "Laboratory studies (set)"
                }
              ],
              "text": "Laboratory studies"
            },
            "section": [
              {
                "code": {
                  "coding": [
                    {
                      "code": "$18723-7",
                      "system": "http://loinc.org",
                      "display": "Hematology studies (set)"
                    }
                  ],
                  "text": "Hematology"
                },
                "entry": [
                  {
                    "reference": "urn:uuid:9aba1c4b-83a2-4edb-8c2c-5de7d1c8f9fa"
                  },
                  {
                    "reference": "urn:uuid:a238ec25-b2f0-4d8e-891f-bc387348e7db"
                  },
                  {
                    "reference": "urn:uuid:564e9da8-4dd2-45b4-b98a-beac77f12315"
                  },
                  {
                    "reference": "urn:uuid:445e849b-df3c-4a80-9a35-d97279e1131b"
                  },
                  {
                    "reference": "urn:uuid:e039762b-e7f3-423b-885a-1ef958b88863"
                  },
                  {
                    "reference": "urn:uuid:428f485d-0153-41db-bf17-a786f4a2c4a8"
                  },
                  {
                    "reference": "urn:uuid:6903e454-77dc-45af-a30d-3c7b2fa8b83c"
                  },
                  {
                    "reference": "urn:uuid:7721dc62-a54a-4766-9c61-18f3507b7f6d"
                  },
                  {
                    "reference": "urn:uuid:9e023adb-f19f-4df8-aff3-c4a80fa4d160"
                  },
                  {
                    "reference": "urn:uuid:79b0d123-fa81-4e5c-b98e-41aa930eff7c"
                  },
                  {
                    "reference": "urn:uuid:d7bd05aa-8e8f-4d53-9ff3-aa3d82cd301c"
                  }
                ],
                "text": {
                  "status": "generated",
                  "div": "<div xmlns=\"http://www.w3.org/1999/xhtml\"><h3>Hematology</h3><table class=\"hl7__eu__lab__report\"><thead><tr><th>Test</th><th>27-NOV-2015</th><th>Reference&#xA0;Range</th><th>Unit</th></tr></thead><tbody><tr><td>Leukocytes [#/volume] in Blood by Automated count</td><td>4.8</td><td>3.4 - 10.6</td><td>10*3/uL</td></tr><tr><td>Erythrocytes [#/volume] in Blood by Automated count</td><td>5.5</td><td>4.2 - 6.2</td><td>10*6/uL</td></tr><tr><td>Hemoglobin [Mass/volume] in Blood</td><td>15.9</td><td>13.8 - 17.5</td><td>g/dL</td></tr><tr><td>Hematocrit [Volume Fraction] of Blood by Automated count</td><td><strong>35.7 L</strong></td><td>38 - 50</td><td>%</td></tr><tr><td>MCV [Entitic volume] by Automated count</td><td>94.4</td><td>76 - 98</td><td>fL</td></tr><tr><td>MCH [Entitic mass] by Automated count</td><td>31.7</td><td>27 - 34</td><td>pg</td></tr><tr><td>MCHC [Mass/volume] by Automated count</td><td>35.9</td><td>31 - 37</td><td>g/dL</td></tr><tr><td>Erythrocyte distribution width [Entitic volume] by Automated count</td><td>39.4</td><td>36 - 56</td><td>fL</td></tr><tr><td>Platelets [#/volume] in Blood by Automated count</td><td><strong>423.0 H</strong></td><td>150 - 363</td><td>10*3/uL</td></tr><tr><td>Platelet distribution width [Entitic volume] in Blood by Automated count</td><td><strong>309.1 H</strong></td><td>13.4 - 17.4</td><td>fL</td></tr><tr><td>Platelet mean volume [Entitic volume] in Blood by Automated count</td><td>10.6</td><td>7.2 - 13.5</td><td>fL</td></tr></tbody></table></div>"
                },
                "title": "Hematology"
              },
              {
                "code": {
                  "coding": [
                    {
                      "code": "$18719-5",
                      "system": "http://loinc.org",
                      "display": "Chemistry studies (set)"
                    }
                  ],
                  "text": "Chemistry"
                },
                "entry": [
                  {
                    "reference": "urn:uuid:e0d927e1-1086-4f9f-ace3-0cb65599cd0d"
                  },
                  {
                    "reference": "urn:uuid:d0700c8c-f8b7-4e46-a94d-eeda848e1fcf"
                  },
                  {
                    "reference": "urn:uuid:a01cab32-b8d0-48f5-a62a-51214e4c9b52"
                  },
                  {
                    "reference": "urn:uuid:28525d4d-7585-4901-93b8-306157c1ef3f"
                  },
                  {
                    "reference": "urn:uuid:e2654a3c-4a1b-478c-9e50-6714da4bd83a"
                  },
                  {
                    "reference": "urn:uuid:76013297-c18b-47ee-8465-2e1c3c1a953e"
                  },
                  {
                    "reference": "urn:uuid:b39d5026-d424-48c9-9280-673de8fbc007"
                  },
                  {
                    "reference": "urn:uuid:22ed459a-668f-4a53-8531-949c814794f9"
                  },
                  {
                    "reference": "urn:uuid:2db1fe4c-d687-46b7-8406-8d00d79aea5c"
                  },
                  {
                    "reference": "urn:uuid:becd1076-c80a-4b0b-b84f-59f560c2778b"
                  },
                  {
                    "reference": "urn:uuid:b11c6e45-cd64-467a-8495-7280925653a9"
                  },
                  {
                    "reference": "urn:uuid:955267fd-9b25-4fd3-a357-9ae1b1ceb138"
                  },
                  {
                    "reference": "urn:uuid:a9c9a77f-c2b5-4336-9965-43555c562121"
                  },
                  {
                    "reference": "urn:uuid:1b23c12e-33d9-43d3-9c2a-9a81a05078ec"
                  },
                  {
                    "reference": "urn:uuid:419dee10-e840-4884-9705-b8af88ad406b"
                  },
                  {
                    "reference": "urn:uuid:2d77d23c-c9b1-41f6-96fb-46d4ee2e9e08"
                  },
                  {
                    "reference": "urn:uuid:2b865dba-b061-4fa3-821d-04e42ed8bb41"
                  },
                  {
                    "reference": "urn:uuid:bf7f236a-02b4-4901-aae2-02c9dbee49ca"
                  },
                  {
                    "reference": "urn:uuid:71333f55-470f-4776-b2d7-ec8cbb7e4200"
                  },
                  {
                    "reference": "urn:uuid:a5ea419f-aff4-49c3-a69e-e99419b942cd"
                  },
                  {
                    "reference": "urn:uuid:8bea5346-a67c-4b8c-a4c4-8ca2ec96004b"
                  },
                  {
                    "reference": "urn:uuid:defcac6e-661e-487f-be7b-215bf9c389f0"
                  }
                ],
                "text": {
                  "status": "generated",
                  "div": "<div xmlns=\"http://www.w3.org/1999/xhtml\"><h3>Chemistry</h3><table class=\"hl7__eu__lab__report\"><thead><tr><th>Test</th><th>27-NOV-2015</th><th>Reference&#xA0;Range</th><th>Unit</th></tr></thead><tbody><tr><td>Glucose [Mass/volume] in Serum or Plasma</td><td>70.0</td><td>70 - 140</td><td>mg/dL</td></tr><tr><td>Urea nitrogen [Mass/volume] in Serum or Plasma</td><td>11.8</td><td>7 - 20</td><td>mg/dL</td></tr><tr><td>Creatinine [Mass/volume] in Serum or Plasma</td><td><strong>2.0 H</strong></td><td>0.9 - 1.3</td><td>mg/dL</td></tr><tr><td>Calcium [Mass/volume] in Serum or Plasma</td><td>8.5</td><td>8.5 - 10.5</td><td>mg/dL</td></tr><tr><td>Sodium [Moles/volume] in Serum or Plasma</td><td>138.1</td><td>135 - 145</td><td>mmol/L</td></tr><tr><td>Potassium [Moles/volume] in Serum or Plasma</td><td>3.9</td><td>3.5 - 5.3</td><td>mmol/L</td></tr><tr><td>Chloride [Moles/volume] in Serum or Plasma</td><td>104.3</td><td>98 - 107</td><td>mmol/L</td></tr><tr><td>Carbon dioxide, total [Moles/volume] in Serum or Plasma</td><td>22.6</td><td>22 - 33</td><td>mmol/L</td></tr><tr><td>Ketones [Presence] in Urine by Test strip</td><td>Urine ketone test = +</td><td></td><td></td></tr><tr><td>Hemoglobin A1c/Hemoglobin.total in Blood</td><td><strong>2.9 L</strong></td><td>4.3 - 6</td><td>%</td></tr><tr><td>Glucose [Mass/volume] in Blood</td><td>70.0</td><td>70 - 140</td><td>mg/dL</td></tr><tr><td>Urea nitrogen [Mass/volume] in Blood</td><td>11.8</td><td>7 - 20</td><td>mg/dL</td></tr><tr><td>Creatinine [Mass/volume] in Blood</td><td><strong>2.3 H</strong></td><td>0.9 - 1.3</td><td>mg/dL</td></tr><tr><td>Calcium [Mass/volume] in Blood</td><td>8.5</td><td>8.5 - 10.5</td><td>mg/dL</td></tr><tr><td>Sodium [Moles/volume] in Blood</td><td>138.1</td><td>135 - 145</td><td>mmol/L</td></tr><tr><td>Potassium [Moles/volume] in Blood</td><td>3.9</td><td>3.5 - 5.1</td><td>mmol/L</td></tr><tr><td>Chloride [Moles/volume] in Blood</td><td>104.3</td><td>98 - 108</td><td>mmol/L</td></tr><tr><td>Carbon dioxide, total [Moles/volume] in Blood</td><td>22.6</td><td>22 - 29</td><td>mmol/L</td></tr><tr><td>Cholesterol [Mass/volume] in Serum or Plasma</td><td><strong>231.7 H</strong></td><td>0 - 200</td><td>mg/dL</td></tr><tr><td>Triglyceride [Mass/volume] in Serum or Plasma</td><td>126.6</td><td>0 - 199</td><td>mg/dL</td></tr><tr><td>Cholesterol in LDL [Mass/volume] in Serum or Plasma by Direct assay</td><td><strong>176.2 H</strong></td><td>0 - 130</td><td>mg/dL</td></tr><tr><td>Cholesterol in HDL [Mass/volume] in Serum or Plasma</td><td><strong>30.2 L</strong></td><td>40 - 100</td><td>mg/dL</td></tr></tbody></table></div>"
                },
                "title": "Chemistry"
              },
              {
                "code": {
                  "coding": [
                    {
                      "code": "$18729-4",
                      "system": "http://loinc.org",
                      "display": "Urinalysis studies (set)"
                    }
                  ],
                  "text": "Urinalysis"
                },
                "entry": [
                  {
                    "reference": "urn:uuid:3c314a65-c429-4ebd-8941-02d7592e7b84"
                  },
                  {
                    "reference": "urn:uuid:554c5dad-bf6a-44bf-bc2e-48cea77de980"
                  },
                  {
                    "reference": "urn:uuid:7b96fca5-e64f-49c9-8669-05fe0fb84b6e"
                  },
                  {
                    "reference": "urn:uuid:0ac01de3-4fba-4872-88b2-4182f835e3a8"
                  },
                  {
                    "reference": "urn:uuid:c91f7a0d-3738-4f7a-b249-46fc3575ee5b"
                  },
                  {
                    "reference": "urn:uuid:697f9037-789e-4b7d-9518-85cab7fc0adb"
                  },
                  {
                    "reference": "urn:uuid:7825fe5e-72cd-49b8-b104-2357bb323d88"
                  },
                  {
                    "reference": "urn:uuid:9dea0c18-8642-46dd-8fa7-c7a72e33adc2"
                  },
                  {
                    "reference": "urn:uuid:5a760881-16f6-4366-bd54-b774e32a17cb"
                  },
                  {
                    "reference": "urn:uuid:8a1b3d91-285e-468b-8f74-d14aaccf8644"
                  },
                  {
                    "reference": "urn:uuid:d2d349fc-f962-4913-ac72-117d9654a786"
                  },
                  {
                    "reference": "urn:uuid:b2aa917a-8614-4f23-81e3-20d905ea0c7e"
                  }
                ],
                "text": {
                  "status": "generated",
                  "div": "<div xmlns=\"http://www.w3.org/1999/xhtml\"><h3>Urinalysis</h3><table class=\"hl7__eu__lab__report\"><thead><tr><th>Test</th><th>27-NOV-2015</th><th>Reference&#xA0;Range</th><th>Unit</th></tr></thead><tbody><tr><td>Glucose [Mass/volume] in Urine by Test strip</td><td><strong>1.1 H</strong></td><td>0 - 0.8</td><td>mg/dL</td></tr><tr><td>Glucose [Presence] in Urine by Test strip</td><td>++</td><td></td><td></td></tr><tr><td>Bilirubin.total [Mass/volume] in Urine by Test strip</td><td>0.7</td><td>0 - 1.9</td><td>mg/dL</td></tr><tr><td>Bilirubin.total [Presence] in Urine by Test strip</td><td>Finding of bilirubin in urine</td><td></td><td></td></tr><tr><td>Ketones [Mass/volume] in Urine by Test strip</td><td><strong>4.0 H</strong></td><td>0 - 3</td><td>mg/dL</td></tr><tr><td>Specific gravity of Urine by Test strip</td><td><strong>1.0 L</strong></td><td>1.01 - 1.03</td><td>{nominal}</td></tr><tr><td>pH of Urine by Test strip</td><td>5.3</td><td>4.5 - 7.5</td><td>pH</td></tr><tr><td>Protein [Mass/volume] in Urine by Test strip</td><td><strong>158.6 H</strong></td><td>0 - 149</td><td>mg/dL</td></tr><tr><td>Protein [Presence] in Urine by Test strip</td><td>Urine protein test = ++</td><td></td><td></td></tr><tr><td>Nitrite [Presence] in Urine by Test strip</td><td>Urine nitrite negative</td><td></td><td></td></tr><tr><td>Hemoglobin [Presence] in Urine by Test strip</td><td>Urine blood test = negative</td><td></td><td></td></tr><tr><td>Leukocyte esterase [Presence] in Urine by Test strip</td><td>Urine leukocyte test negative</td><td></td><td></td></tr></tbody></table></div>"
                },
                "title": "Urinalysis"
              },
              {
                "code": {
                  "coding": [
                    {
                      "code": "$LP7846-1",
                      "system": "http://loinc.org",
                      "display": "Specimen information"
                    }
                  ],
                  "text": "Specimen information"
                },
                "entry": [
                  {
                    "reference": "urn:uuid:7fe55ef4-73f9-4640-a99d-1c808cf972a4"
                  },
                  {
                    "reference": "urn:uuid:47cf036e-bd58-4aa8-b404-daf138acdba7"
                  },
                  {
                    "reference": "urn:uuid:356b34a6-9867-42a8-943e-9a6851817f02"
                  },
                  {
                    "reference": "urn:uuid:0b17592a-66d3-4e09-a9f3-7c0e4990ec8c"
                  }
                ],
                "text": {
                  "status": "generated",
                  "div": "<div xmlns=\"http://www.w3.org/1999/xhtml\"><h3>Specimen information</h3><table class=\"hl7__eu__lab__report\"><thead><tr><th>Test</th><th>27-NOV-2015</th><th>Specimen</th><th></th></tr></thead><tbody><tr><td>Appearance of Urine</td><td>Cloudy urine</td><td>Urine</td><td></td></tr><tr><td>Odor of Urine</td><td>Urine smell ammoniacal</td><td>Urine</td><td></td></tr><tr><td>Clarity of Urine</td><td>Translucent</td><td>Urine</td><td></td></tr><tr><td>Color of Urine</td><td>Brown color</td><td>Urine</td><td></td></tr></tbody></table></div>"
                },
                "title": "Specimen information"
              }
            ],
            "title": "Laboratory Report"
          },
          {
            "text": {
              "status": "generated",
              "div": "<div xmlns=\"http://www.w3.org/1999/xhtml\"><h3>Annotation</h3><table class=\"hl7__eu__lab__report\"><tr><th>Conclusion and Recommendations based on this report and previous findings known to us</th></tr><tr><td>The patient shows impaired renal function (elevated creatinine), dyslipidemia (high total and LDL cholesterol, low HDL), mild proteinuria, glucosuria, and ketonuria with low urine specific gravity, but normal blood glucose and low HbA1c, suggesting possible renal glycosuria or laboratory artifact. Urine findings (cloudy, brown, ammoniacal) may indicate dehydration or underlying renal/urinary pathology. Mildly low hematocrit and elevated platelets are noted. Recommend further evaluation of renal function, urine abnormalities, and cardiovascular risk management.</td></tr></table></div>"
            },
            "code": {
              "coding": [
                {
                  "system": "http://loinc.org",
                  "code": "48767-8",
                  "display": "Annotation comment"
                }
              ]
            },
            "title": "Annotation comment"
          }
        ],
        "status": "final",
        "subject": {
          "reference": "urn:uuid:5d60230f-0856-4050-8693-a4e3f82e26fc",
          "display": "Victor Lagarde"
        },
        "date": "2015-11-27T05:48:18Z",
        "title": "Laboratory Report",
        "confidentiality": "N"
      }
    },
    {
      "fullUrl": "urn:uuid:642c334b-c791-4361-89e8-f901ae5f647f",
      "resource": {
        "resourceType": "DiagnosticReport",
        "id": "642c334b-c791-4361-89e8-f901ae5f647f",
        "meta": {
          "profile": [
            "http://hl7.eu/fhir/laboratory/StructureDefinition/DiagnosticReport-eu-lab"
          ]
        },
        "identifier": [
          {
            "assigner": {
              "display": "HL7 Europe"
            },
            "system": "urn:oid:2.16.840.1.113883.2.51.999",
            "value": "f41c24e0-cd36-478b-90e4-801c9279f4c3"
          }
        ],
        "extension": [
          {
            "url": "http://hl7.org/fhir/5.0/StructureDefinition/extension-DiagnosticReport.composition",
            "valueReference": {
              "reference": "urn:uuid:09e771c2-b1fb-45c9-bc2d-1a40dad5462f"
            }
          }
        ],
        "category": [
          {
            "coding": [
              {
                "code": "26436-6",
                "system": "http://loinc.org",
                "display": "Laboratory studies (set)"
              }
            ]
          }
        ],
        "specimen": [
          {
            "reference": "urn:uuid:f94cb808-0f0f-46fb-82f9-cd34a63a22f0"
          },
          {
            "reference": "urn:uuid:c242e2c8-c830-456e-9570-7a7c3a574627"
          },
          {
            "reference": "urn:uuid:9e0c3bc6-f15b-4896-a837-45fa51eba8f6"
          },
          {
            "reference": "urn:uuid:9e0c3bc6-f15b-4896-a837-45fa51eba8f6"
          }
        ],
        "result": [
          {
            "reference": "urn:uuid:e0d927e1-1086-4f9f-ace3-0cb65599cd0d"
          },
          {
            "reference": "urn:uuid:d0700c8c-f8b7-4e46-a94d-eeda848e1fcf"
          },
          {
            "reference": "urn:uuid:a01cab32-b8d0-48f5-a62a-51214e4c9b52"
          },
          {
            "reference": "urn:uuid:28525d4d-7585-4901-93b8-306157c1ef3f"
          },
          {
            "reference": "urn:uuid:e2654a3c-4a1b-478c-9e50-6714da4bd83a"
          },
          {
            "reference": "urn:uuid:76013297-c18b-47ee-8465-2e1c3c1a953e"
          },
          {
            "reference": "urn:uuid:b39d5026-d424-48c9-9280-673de8fbc007"
          },
          {
            "reference": "urn:uuid:22ed459a-668f-4a53-8531-949c814794f9"
          },
          {
            "reference": "urn:uuid:7fe55ef4-73f9-4640-a99d-1c808cf972a4"
          },
          {
            "reference": "urn:uuid:47cf036e-bd58-4aa8-b404-daf138acdba7"
          },
          {
            "reference": "urn:uuid:356b34a6-9867-42a8-943e-9a6851817f02"
          },
          {
            "reference": "urn:uuid:0b17592a-66d3-4e09-a9f3-7c0e4990ec8c"
          },
          {
            "reference": "urn:uuid:3c314a65-c429-4ebd-8941-02d7592e7b84"
          },
          {
            "reference": "urn:uuid:554c5dad-bf6a-44bf-bc2e-48cea77de980"
          },
          {
            "reference": "urn:uuid:7b96fca5-e64f-49c9-8669-05fe0fb84b6e"
          },
          {
            "reference": "urn:uuid:0ac01de3-4fba-4872-88b2-4182f835e3a8"
          },
          {
            "reference": "urn:uuid:c91f7a0d-3738-4f7a-b249-46fc3575ee5b"
          },
          {
            "reference": "urn:uuid:2db1fe4c-d687-46b7-8406-8d00d79aea5c"
          },
          {
            "reference": "urn:uuid:697f9037-789e-4b7d-9518-85cab7fc0adb"
          },
          {
            "reference": "urn:uuid:7825fe5e-72cd-49b8-b104-2357bb323d88"
          },
          {
            "reference": "urn:uuid:9dea0c18-8642-46dd-8fa7-c7a72e33adc2"
          },
          {
            "reference": "urn:uuid:5a760881-16f6-4366-bd54-b774e32a17cb"
          },
          {
            "reference": "urn:uuid:8a1b3d91-285e-468b-8f74-d14aaccf8644"
          },
          {
            "reference": "urn:uuid:d2d349fc-f962-4913-ac72-117d9654a786"
          },
          {
            "reference": "urn:uuid:b2aa917a-8614-4f23-81e3-20d905ea0c7e"
          },
          {
            "reference": "urn:uuid:becd1076-c80a-4b0b-b84f-59f560c2778b"
          },
          {
            "reference": "urn:uuid:b11c6e45-cd64-467a-8495-7280925653a9"
          },
          {
            "reference": "urn:uuid:955267fd-9b25-4fd3-a357-9ae1b1ceb138"
          },
          {
            "reference": "urn:uuid:a9c9a77f-c2b5-4336-9965-43555c562121"
          },
          {
            "reference": "urn:uuid:1b23c12e-33d9-43d3-9c2a-9a81a05078ec"
          },
          {
            "reference": "urn:uuid:419dee10-e840-4884-9705-b8af88ad406b"
          },
          {
            "reference": "urn:uuid:2d77d23c-c9b1-41f6-96fb-46d4ee2e9e08"
          },
          {
            "reference": "urn:uuid:2b865dba-b061-4fa3-821d-04e42ed8bb41"
          },
          {
            "reference": "urn:uuid:bf7f236a-02b4-4901-aae2-02c9dbee49ca"
          },
          {
            "reference": "urn:uuid:71333f55-470f-4776-b2d7-ec8cbb7e4200"
          },
          {
            "reference": "urn:uuid:a5ea419f-aff4-49c3-a69e-e99419b942cd"
          },
          {
            "reference": "urn:uuid:8bea5346-a67c-4b8c-a4c4-8ca2ec96004b"
          },
          {
            "reference": "urn:uuid:defcac6e-661e-487f-be7b-215bf9c389f0"
          },
          {
            "reference": "urn:uuid:9aba1c4b-83a2-4edb-8c2c-5de7d1c8f9fa"
          },
          {
            "reference": "urn:uuid:a238ec25-b2f0-4d8e-891f-bc387348e7db"
          },
          {
            "reference": "urn:uuid:564e9da8-4dd2-45b4-b98a-beac77f12315"
          },
          {
            "reference": "urn:uuid:445e849b-df3c-4a80-9a35-d97279e1131b"
          },
          {
            "reference": "urn:uuid:e039762b-e7f3-423b-885a-1ef958b88863"
          },
          {
            "reference": "urn:uuid:428f485d-0153-41db-bf17-a786f4a2c4a8"
          },
          {
            "reference": "urn:uuid:6903e454-77dc-45af-a30d-3c7b2fa8b83c"
          },
          {
            "reference": "urn:uuid:7721dc62-a54a-4766-9c61-18f3507b7f6d"
          },
          {
            "reference": "urn:uuid:9e023adb-f19f-4df8-aff3-c4a80fa4d160"
          },
          {
            "reference": "urn:uuid:79b0d123-fa81-4e5c-b98e-41aa930eff7c"
          },
          {
            "reference": "urn:uuid:d7bd05aa-8e8f-4d53-9ff3-aa3d82cd301c"
          }
        ],
        "status": "registered",
        "code": {
          "coding": [
            {
              "code": "11502-2",
              "system": "http://loinc.org",
              "display": "Laboratory report"
            }
          ]
        },
        "subject": {
          "reference": "urn:uuid:5d60230f-0856-4050-8693-a4e3f82e26fc",
          "display": "Victor Lagarde"
        }
      }
    },
    {
      "fullUrl": "urn:uuid:5d60230f-0856-4050-8693-a4e3f82e26fc",
      "resource": {
        "resourceType": "Patient",
        "id": "5d60230f-0856-4050-8693-a4e3f82e26fc",
        "meta": {
          "security": [
            {
              "system": "http://terminology.hl7.org/CodeSystem/v3-ActReason",
              "code": "HTEST"
            },
            {
              "system": "http://terminology.hl7.org/CodeSystem/v3-ActReason",
              "code": "TRAIN"
            }
          ],
          "tag": [
            {
              "system": "https://synderai.net/fhir/CodeSystem/tags",
              "code": "synthetic",
              "display": "SYNDERAI Synthetic data"
            }
          ],
          "profile": [
            "http://hl7.eu/fhir/base/StructureDefinition/patient-eu-core"
          ]
        },
        "identifier": [
          {
            "type": {
              "coding": [
                {
                  "code": "PT",
                  "system": "http://terminology.hl7.org/CodeSystem/v2-0203"
                }
              ]
            },
            "system": "http://ec.europa.eu/identifier/eci",
            "value": "9925-001801-9"
          },
          {
            "type": {
              "coding": [
                {
                  "code": "MR",
                  "system": "http://terminology.hl7.org/CodeSystem/v2-0203"
                }
              ]
            },
            "system": "http://local.setting.eu/identifier",
            "value": "22c2dfd0-ac57-8833-2532-848f180896a4"
          }
        ],
        "name": [
          {
            "family": "Lagarde"
          },
          {
            "given": [
              "Victor"
            ]
          },
          {
            "text": "Victor Lagarde"
          }
        ],
        "address": [
          {
            "line": [
              "avenue Robert"
            ],
            "use": "home",
            "type": "physical",
            "postalCode": "80300",
            "city": "Albert",
            "country": "France"
          }
        ],
        "telecom": [
          {
            "system": "phone",
            "value": "0177941801"
          }
        ],
        "extension": [
          {
            "url": "http://hl7.org/fhir/StructureDefinition/patient-nationality",
            "valueCodeableConcept": {
              "coding": [
                {
                  "code": "FR",
                  "system": "http://hl7.org/fhir/ValueSet/country"
                }
              ]
            }
          }
        ],
        "text": {
          "status": "generated",
          "div": "<div xmlns=\"http://www.w3.org/1999/xhtml\"><table class=\"hl7__ips\"><tr><td>Victor Lagarde</td><td>male</td><td>31-Aug-1939</td></tr></table></div>"
        },
        "gender": "male",
        "birthDate": "1939-08-31"
      }
    },
    {
      "fullUrl": "urn:uuid:627668b2-4d0a-4715-936d-9cf634128d97",
      "resource": {
        "resourceType": "ServiceRequest",
        "id": "627668b2-4d0a-4715-936d-9cf634128d97",
        "meta": {
          "profile": [
            "http://hl7.eu/fhir/laboratory/StructureDefinition/ServiceRequest-eu-lab"
          ]
        },
        "identifier": [
          {
            "system": "http://example.org",
            "value": "e58f2280-a8e8-4d4b-850f-6db5bce0bd68"
          }
        ],
        "specimen": [
          {
            "reference": "urn:uuid:f94cb808-0f0f-46fb-82f9-cd34a63a22f0"
          },
          {
            "reference": "urn:uuid:c242e2c8-c830-456e-9570-7a7c3a574627"
          },
          {
            "reference": "urn:uuid:9e0c3bc6-f15b-4896-a837-45fa51eba8f6"
          }
        ],
        "reasonCode": [
          {
            "coding": [
              {
                "code": "433144002",
                "system": "http://snomed.info/sct",
                "display": "Chronic kidney disease stage 3"
              }
            ]
          },
          {
            "coding": [
              {
                "code": "157141000119108",
                "system": "http://snomed.info/sct",
                "display": "Proteinuria due to type 2 diabetes mellitus"
              }
            ]
          },
          {
            "coding": [
              {
                "code": "431856006",
                "system": "http://snomed.info/sct",
                "display": "Chronic kidney disease stage 2"
              }
            ]
          },
          {
            "coding": [
              {
                "code": "90781000119102",
                "system": "http://snomed.info/sct",
                "display": "Microalbuminuria due to type 2 diabetes mellitus"
              }
            ]
          },
          {
            "coding": [
              {
                "code": "127013003",
                "system": "http://snomed.info/sct",
                "display": "Disorder of kidney due to diabetes mellitus"
              }
            ]
          },
          {
            "coding": [
              {
                "code": "431855005",
                "system": "http://snomed.info/sct",
                "display": "Chronic kidney disease stage 1"
              }
            ]
          },
          {
            "coding": [
              {
                "code": "55822004",
                "system": "http://snomed.info/sct",
                "display": "Hyperlipidemia"
              }
            ]
          },
          {
            "coding": [
              {
                "code": "59621000",
                "system": "http://snomed.info/sct",
                "display": "Essential hypertension"
              }
            ]
          },
          {
            "coding": [
              {
                "code": "237602007",
                "system": "http://snomed.info/sct",
                "display": "Metabolic syndrome X"
              }
            ]
          },
          {
            "coding": [
              {
                "code": "414545008",
                "system": "http://snomed.info/sct",
                "display": "Ischemic heart disease"
              }
            ]
          },
          {
            "coding": [
              {
                "code": "40055000",
                "system": "http://snomed.info/sct",
                "display": "Chronic sinusitis"
              }
            ]
          },
          {
            "coding": [
              {
                "code": "15777000",
                "system": "http://snomed.info/sct",
                "display": "Prediabetes"
              }
            ]
          },
          {
            "coding": [
              {
                "code": "271737000",
                "system": "http://snomed.info/sct",
                "display": "Anemia"
              }
            ]
          }
        ],
        "status": "active",
        "intent": "order",
        "code": {
          "coding": [
            {
              "code": "108252007",
              "system": "http://snomed.info/sct",
              "display": "Laboratory procedure"
            }
          ]
        },
        "subject": {
          "reference": "urn:uuid:5d60230f-0856-4050-8693-a4e3f82e26fc",
          "display": "Victor Lagarde"
        },
        "requester": {
          "reference": "urn:uuid:e3967ea9-f9f2-469c-a53b-77d404f47340"
        }
      }
    },
    {
      "fullUrl": "urn:uuid:e3967ea9-f9f2-469c-a53b-77d404f47340",
      "resource": {
        "resourceType": "PractitionerRole",
        "id": "e3967ea9-f9f2-469c-a53b-77d404f47340",
        "meta": {
          "profile": [
            "http://hl7.eu/fhir/base/StructureDefinition/practitionerRole-eu"
          ]
        },
        "text": {
          "status": "generated",
          "div": "<div xmlns=\"http://www.w3.org/1999/xhtml\">Provider Role Id: e3967ea9-f9f2-469c-a53b-77d404f47340</div>"
        },
        "organization": {
          "reference": "urn:uuid:8421796b-16d9-4ad2-aa81-7cc2e166dad7"
        }
      }
    },
    {
      "fullUrl": "urn:uuid:8421796b-16d9-4ad2-aa81-7cc2e166dad7",
      "resource": {
        "resourceType": "Organization",
        "id": "8421796b-16d9-4ad2-aa81-7cc2e166dad7",
        "meta": {
          "profile": [
            "http://hl7.eu/fhir/base/StructureDefinition/organization-eu"
          ]
        },
        "identifier": [
          {
            "assigner": {
              "display": "HL7 Europe"
            },
            "system": "urn:oid:2.16.840.1.113883.2.51.999",
            "value": "11a5a693-ceb0-464a-92e9-0625c48b8428"
          }
        ],
        "address": [
          {
            "city": "Auxerre",
            "postalCode": "89000",
            "country": "France"
          }
        ],
        "text": {
          "status": "generated",
          "div": "<div xmlns=\"http://www.w3.org/1999/xhtml\">Provider Organization: Thiriot Didier (Cardiologie)</div>"
        },
        "name": "Thiriot Didier (Cardiologie)"
      }
    },
    {
      "fullUrl": "urn:uuid:f94cb808-0f0f-46fb-82f9-cd34a63a22f0",
      "resource": {
        "resourceType": "Specimen",
        "id": "f94cb808-0f0f-46fb-82f9-cd34a63a22f0",
        "meta": {
          "profile": [
            "http://hl7.eu/fhir/laboratory/StructureDefinition/Specimen-eu-lab"
          ]
        },
        "collection": {
          "collectedDateTime": "2015-11-27"
        },
        "text": {
          "status": "generated",
          "div": "<div xmlns=\"http://www.w3.org/1999/xhtml\"><table class=\"hl7__eu__lab__report\"><tr><th>Specimen</th><th>Collection Date</th></tr><tr><td>Acellular blood (serum or plasma) specimen</td><td><span class=\"nb\">27-Nov-2015</span></td></tr></table></div>"
        },
        "type": {
          "coding": [
            {
              "code": "122592007",
              "system": "http://snomed.info/sct",
              "display": "Acellular blood (serum or plasma) specimen"
            }
          ]
        }
      }
    },
    {
      "fullUrl": "urn:uuid:c242e2c8-c830-456e-9570-7a7c3a574627",
      "resource": {
        "resourceType": "Specimen",
        "id": "c242e2c8-c830-456e-9570-7a7c3a574627",
        "meta": {
          "profile": [
            "http://hl7.eu/fhir/laboratory/StructureDefinition/Specimen-eu-lab"
          ]
        },
        "collection": {
          "collectedDateTime": "2015-11-27"
        },
        "text": {
          "status": "generated",
          "div": "<div xmlns=\"http://www.w3.org/1999/xhtml\"><table class=\"hl7__eu__lab__report\"><tr><th>Specimen</th><th>Collection Date</th></tr><tr><td>Urine specimen</td><td><span class=\"nb\">27-Nov-2015</span></td></tr></table></div>"
        },
        "type": {
          "coding": [
            {
              "code": "122575003",
              "system": "http://snomed.info/sct",
              "display": "Urine specimen"
            }
          ]
        }
      }
    },
    {
      "fullUrl": "urn:uuid:9e0c3bc6-f15b-4896-a837-45fa51eba8f6",
      "resource": {
        "resourceType": "Specimen",
        "id": "9e0c3bc6-f15b-4896-a837-45fa51eba8f6",
        "meta": {
          "profile": [
            "http://hl7.eu/fhir/laboratory/StructureDefinition/Specimen-eu-lab"
          ]
        },
        "collection": {
          "collectedDateTime": "2015-11-27"
        },
        "text": {
          "status": "generated",
          "div": "<div xmlns=\"http://www.w3.org/1999/xhtml\"><table class=\"hl7__eu__lab__report\"><tr><th>Specimen</th><th>Collection Date</th></tr><tr><td>Whole blood specimen (specimen)</td><td><span class=\"nb\">27-Nov-2015</span></td></tr></table></div>"
        },
        "type": {
          "coding": [
            {
              "code": "258580003",
              "system": "http://snomed.info/sct",
              "display": "Whole blood specimen (specimen)"
            }
          ]
        }
      }
    },
    {
      "fullUrl": "urn:uuid:9e0c3bc6-f15b-4896-a837-45fa51eba8f6",
      "resource": {
        "resourceType": "Specimen",
        "id": "9e0c3bc6-f15b-4896-a837-45fa51eba8f6",
        "meta": {
          "profile": [
            "http://hl7.eu/fhir/laboratory/StructureDefinition/Specimen-eu-lab"
          ]
        },
        "collection": {
          "collectedDateTime": "2015-11-27"
        },
        "text": {
          "status": "generated",
          "div": "<div xmlns=\"http://www.w3.org/1999/xhtml\"><table class=\"hl7__eu__lab__report\"><tr><th>Specimen</th><th>Collection Date</th></tr><tr><td>Whole blood specimen (specimen)</td><td><span class=\"nb\">27-Nov-2015</span></td></tr></table></div>"
        },
        "type": {
          "coding": [
            {
              "code": "258580003",
              "system": "http://snomed.info/sct",
              "display": "Whole blood specimen (specimen)"
            }
          ]
        }
      }
    },
    {
      "fullUrl": "urn:uuid:e0d927e1-1086-4f9f-ace3-0cb65599cd0d",
      "resource": {
        "resourceType": "Observation",
        "id": "e0d927e1-1086-4f9f-ace3-0cb65599cd0d",
        "meta": {
          "profile": [
            "http://hl7.eu/fhir/laboratory/StructureDefinition/Observation-resultslab-eu-lab"
          ]
        },
        "performer": [
          {
            "display": "The Central European Lab"
          }
        ],
        "category": [
          {
            "coding": [
              {
                "system": "http://terminology.hl7.org/CodeSystem/observation-category",
                "code": "laboratory"
              }
            ]
          }
        ],
        "code": {
          "coding": [
            {
              "code": "2345-7",
              "system": "http://loinc.org",
              "display": "Glucose [Mass/volume] in Serum or Plasma"
            }
          ],
          "text": "Glucose [Mass/volume] in Serum or Plasma"
        },
        "valueQuantity": {
          "system": "http://unitsofmeasure.org",
          "value": 70,
          "unit": "mg/dL",
          "code": "mg/dL"
        },
        "referenceRange": [
          {
            "low": {
              "value": 70,
              "code": "mg/dL",
              "system": "http://unitsofmeasure.org"
            }
          },
          {
            "high": {
              "value": 140,
              "code": "mg/dL",
              "system": "http://unitsofmeasure.org"
            }
          }
        ],
        "text": {
          "status": "generated",
          "div": "<div xmlns=\"http://www.w3.org/1999/xhtml\"><table class=\"hl7__eu__lab__report\"><tr><th>Test</th><th>27-Nov-2015</th><th>Reference&#xA0;Range</th><th>Unit</th></tr><tr><td>Glucose [Mass/volume] in Serum or Plasma</td><td>70.0</td><td>70 - 140</td><td></td><td>mg/dL</td></tr></table></div>"
        },
        "status": "final",
        "subject": {
          "reference": "urn:uuid:5d60230f-0856-4050-8693-a4e3f82e26fc",
          "display": "Victor Lagarde"
        },
        "effectiveDateTime": "2015-11-27T04:48:18Z",
        "specimen": {
          "reference": "urn:uuid:f94cb808-0f0f-46fb-82f9-cd34a63a22f0"
        }
      }
    },
    {
      "fullUrl": "urn:uuid:d0700c8c-f8b7-4e46-a94d-eeda848e1fcf",
      "resource": {
        "resourceType": "Observation",
        "id": "d0700c8c-f8b7-4e46-a94d-eeda848e1fcf",
        "meta": {
          "profile": [
            "http://hl7.eu/fhir/laboratory/StructureDefinition/Observation-resultslab-eu-lab"
          ]
        },
        "performer": [
          {
            "display": "The Central European Lab"
          }
        ],
        "category": [
          {
            "coding": [
              {
                "system": "http://terminology.hl7.org/CodeSystem/observation-category",
                "code": "laboratory"
              }
            ]
          }
        ],
        "code": {
          "coding": [
            {
              "code": "3094-0",
              "system": "http://loinc.org",
              "display": "Urea nitrogen [Mass/volume] in Serum or Plasma"
            }
          ],
          "text": "Urea nitrogen [Mass/volume] in Serum or Plasma"
        },
        "valueQuantity": {
          "system": "http://unitsofmeasure.org",
          "value": 11.8,
          "unit": "mg/dL",
          "code": "mg/dL"
        },
        "referenceRange": [
          {
            "low": {
              "value": 7,
              "code": "mg/dL",
              "system": "http://unitsofmeasure.org"
            }
          },
          {
            "high": {
              "value": 20,
              "code": "mg/dL",
              "system": "http://unitsofmeasure.org"
            }
          }
        ],
        "text": {
          "status": "generated",
          "div": "<div xmlns=\"http://www.w3.org/1999/xhtml\"><table class=\"hl7__eu__lab__report\"><tr><th>Test</th><th>27-Nov-2015</th><th>Reference&#xA0;Range</th><th>Unit</th></tr><tr><td>Urea nitrogen [Mass/volume] in Serum or Plasma</td><td>11.8</td><td>7 - 20</td><td></td><td>mg/dL</td></tr></table></div>"
        },
        "status": "final",
        "subject": {
          "reference": "urn:uuid:5d60230f-0856-4050-8693-a4e3f82e26fc",
          "display": "Victor Lagarde"
        },
        "effectiveDateTime": "2015-11-27T04:48:18Z",
        "specimen": {
          "reference": "urn:uuid:f94cb808-0f0f-46fb-82f9-cd34a63a22f0"
        }
      }
    },
    {
      "fullUrl": "urn:uuid:a01cab32-b8d0-48f5-a62a-51214e4c9b52",
      "resource": {
        "resourceType": "Observation",
        "id": "a01cab32-b8d0-48f5-a62a-51214e4c9b52",
        "meta": {
          "profile": [
            "http://hl7.eu/fhir/laboratory/StructureDefinition/Observation-resultslab-eu-lab"
          ]
        },
        "performer": [
          {
            "display": "The Central European Lab"
          }
        ],
        "category": [
          {
            "coding": [
              {
                "system": "http://terminology.hl7.org/CodeSystem/observation-category",
                "code": "laboratory"
              }
            ]
          }
        ],
        "code": {
          "coding": [
            {
              "code": "2160-0",
              "system": "http://loinc.org",
              "display": "Creatinine [Mass/volume] in Serum or Plasma"
            }
          ],
          "text": "Creatinine [Mass/volume] in Serum or Plasma"
        },
        "valueQuantity": {
          "system": "http://unitsofmeasure.org",
          "value": 2,
          "unit": "mg/dL",
          "code": "mg/dL"
        },
        "referenceRange": [
          {
            "low": {
              "value": 0.9,
              "code": "mg/dL",
              "system": "http://unitsofmeasure.org"
            }
          },
          {
            "high": {
              "value": 1.3,
              "code": "mg/dL",
              "system": "http://unitsofmeasure.org"
            }
          }
        ],
        "interpretation": [
          {
            "coding": [
              {
                "code": "H",
                "system": "http://terminology.hl7.org/CodeSystem/v3-ObservationInterpretation",
                "display": "High"
              }
            ]
          }
        ],
        "text": {
          "status": "generated",
          "div": "<div xmlns=\"http://www.w3.org/1999/xhtml\"><table class=\"hl7__eu__lab__report\"><tr><th>Test</th><th>27-Nov-2015</th><th>Reference&#xA0;Range</th><th>Unit</th></tr><tr><td>Creatinine [Mass/volume] in Serum or Plasma</td><td>2.0</td><td>0.9 - 1.3</td><td>H</td><td>mg/dL</td></tr></table></div>"
        },
        "status": "final",
        "subject": {
          "reference": "urn:uuid:5d60230f-0856-4050-8693-a4e3f82e26fc",
          "display": "Victor Lagarde"
        },
        "effectiveDateTime": "2015-11-27T04:48:18Z",
        "specimen": {
          "reference": "urn:uuid:f94cb808-0f0f-46fb-82f9-cd34a63a22f0"
        }
      }
    },
    {
      "fullUrl": "urn:uuid:28525d4d-7585-4901-93b8-306157c1ef3f",
      "resource": {
        "resourceType": "Observation",
        "id": "28525d4d-7585-4901-93b8-306157c1ef3f",
        "meta": {
          "profile": [
            "http://hl7.eu/fhir/laboratory/StructureDefinition/Observation-resultslab-eu-lab"
          ]
        },
        "performer": [
          {
            "display": "The Central European Lab"
          }
        ],
        "category": [
          {
            "coding": [
              {
                "system": "http://terminology.hl7.org/CodeSystem/observation-category",
                "code": "laboratory"
              }
            ]
          }
        ],
        "code": {
          "coding": [
            {
              "code": "17861-6",
              "system": "http://loinc.org",
              "display": "Calcium [Mass/volume] in Serum or Plasma"
            }
          ],
          "text": "Calcium [Mass/volume] in Serum or Plasma"
        },
        "valueQuantity": {
          "system": "http://unitsofmeasure.org",
          "value": 8.5,
          "unit": "mg/dL",
          "code": "mg/dL"
        },
        "referenceRange": [
          {
            "low": {
              "value": 8.5,
              "code": "mg/dL",
              "system": "http://unitsofmeasure.org"
            }
          },
          {
            "high": {
              "value": 10.5,
              "code": "mg/dL",
              "system": "http://unitsofmeasure.org"
            }
          }
        ],
        "text": {
          "status": "generated",
          "div": "<div xmlns=\"http://www.w3.org/1999/xhtml\"><table class=\"hl7__eu__lab__report\"><tr><th>Test</th><th>27-Nov-2015</th><th>Reference&#xA0;Range</th><th>Unit</th></tr><tr><td>Calcium [Mass/volume] in Serum or Plasma</td><td>8.5</td><td>8.5 - 10.5</td><td></td><td>mg/dL</td></tr></table></div>"
        },
        "status": "final",
        "subject": {
          "reference": "urn:uuid:5d60230f-0856-4050-8693-a4e3f82e26fc",
          "display": "Victor Lagarde"
        },
        "effectiveDateTime": "2015-11-27T04:48:18Z",
        "specimen": {
          "reference": "urn:uuid:f94cb808-0f0f-46fb-82f9-cd34a63a22f0"
        }
      }
    },
    {
      "fullUrl": "urn:uuid:e2654a3c-4a1b-478c-9e50-6714da4bd83a",
      "resource": {
        "resourceType": "Observation",
        "id": "e2654a3c-4a1b-478c-9e50-6714da4bd83a",
        "meta": {
          "profile": [
            "http://hl7.eu/fhir/laboratory/StructureDefinition/Observation-resultslab-eu-lab"
          ]
        },
        "performer": [
          {
            "display": "The Central European Lab"
          }
        ],
        "category": [
          {
            "coding": [
              {
                "system": "http://terminology.hl7.org/CodeSystem/observation-category",
                "code": "laboratory"
              }
            ]
          }
        ],
        "code": {
          "coding": [
            {
              "code": "2951-2",
              "system": "http://loinc.org",
              "display": "Sodium [Moles/volume] in Serum or Plasma"
            }
          ],
          "text": "Sodium [Moles/volume] in Serum or Plasma"
        },
        "valueQuantity": {
          "system": "http://unitsofmeasure.org",
          "value": 138.1,
          "unit": "mmol/L",
          "code": "mmol/L"
        },
        "referenceRange": [
          {
            "low": {
              "value": 135,
              "code": "mmol/L",
              "system": "http://unitsofmeasure.org"
            }
          },
          {
            "high": {
              "value": 145,
              "code": "mmol/L",
              "system": "http://unitsofmeasure.org"
            }
          }
        ],
        "text": {
          "status": "generated",
          "div": "<div xmlns=\"http://www.w3.org/1999/xhtml\"><table class=\"hl7__eu__lab__report\"><tr><th>Test</th><th>27-Nov-2015</th><th>Reference&#xA0;Range</th><th>Unit</th></tr><tr><td>Sodium [Moles/volume] in Serum or Plasma</td><td>138.1</td><td>135 - 145</td><td></td><td>mmol/L</td></tr></table></div>"
        },
        "status": "final",
        "subject": {
          "reference": "urn:uuid:5d60230f-0856-4050-8693-a4e3f82e26fc",
          "display": "Victor Lagarde"
        },
        "effectiveDateTime": "2015-11-27T04:48:18Z",
        "specimen": {
          "reference": "urn:uuid:f94cb808-0f0f-46fb-82f9-cd34a63a22f0"
        }
      }
    },
    {
      "fullUrl": "urn:uuid:76013297-c18b-47ee-8465-2e1c3c1a953e",
      "resource": {
        "resourceType": "Observation",
        "id": "76013297-c18b-47ee-8465-2e1c3c1a953e",
        "meta": {
          "profile": [
            "http://hl7.eu/fhir/laboratory/StructureDefinition/Observation-resultslab-eu-lab"
          ]
        },
        "performer": [
          {
            "display": "The Central European Lab"
          }
        ],
        "category": [
          {
            "coding": [
              {
                "system": "http://terminology.hl7.org/CodeSystem/observation-category",
                "code": "laboratory"
              }
            ]
          }
        ],
        "code": {
          "coding": [
            {
              "code": "2823-3",
              "system": "http://loinc.org",
              "display": "Potassium [Moles/volume] in Serum or Plasma"
            }
          ],
          "text": "Potassium [Moles/volume] in Serum or Plasma"
        },
        "valueQuantity": {
          "system": "http://unitsofmeasure.org",
          "value": 3.9,
          "unit": "mmol/L",
          "code": "mmol/L"
        },
        "referenceRange": [
          {
            "low": {
              "value": 3.5,
              "code": "mmol/L",
              "system": "http://unitsofmeasure.org"
            }
          },
          {
            "high": {
              "value": 5.3,
              "code": "mmol/L",
              "system": "http://unitsofmeasure.org"
            }
          }
        ],
        "text": {
          "status": "generated",
          "div": "<div xmlns=\"http://www.w3.org/1999/xhtml\"><table class=\"hl7__eu__lab__report\"><tr><th>Test</th><th>27-Nov-2015</th><th>Reference&#xA0;Range</th><th>Unit</th></tr><tr><td>Potassium [Moles/volume] in Serum or Plasma</td><td>3.9</td><td>3.5 - 5.3</td><td></td><td>mmol/L</td></tr></table></div>"
        },
        "status": "final",
        "subject": {
          "reference": "urn:uuid:5d60230f-0856-4050-8693-a4e3f82e26fc",
          "display": "Victor Lagarde"
        },
        "effectiveDateTime": "2015-11-27T04:48:18Z",
        "specimen": {
          "reference": "urn:uuid:f94cb808-0f0f-46fb-82f9-cd34a63a22f0"
        }
      }
    },
    {
      "fullUrl": "urn:uuid:b39d5026-d424-48c9-9280-673de8fbc007",
      "resource": {
        "resourceType": "Observation",
        "id": "b39d5026-d424-48c9-9280-673de8fbc007",
        "meta": {
          "profile": [
            "http://hl7.eu/fhir/laboratory/StructureDefinition/Observation-resultslab-eu-lab"
          ]
        },
        "performer": [
          {
            "display": "The Central European Lab"
          }
        ],
        "category": [
          {
            "coding": [
              {
                "system": "http://terminology.hl7.org/CodeSystem/observation-category",
                "code": "laboratory"
              }
            ]
          }
        ],
        "code": {
          "coding": [
            {
              "code": "2075-0",
              "system": "http://loinc.org",
              "display": "Chloride [Moles/volume] in Serum or Plasma"
            }
          ],
          "text": "Chloride [Moles/volume] in Serum or Plasma"
        },
        "valueQuantity": {
          "system": "http://unitsofmeasure.org",
          "value": 104.3,
          "unit": "mmol/L",
          "code": "mmol/L"
        },
        "referenceRange": [
          {
            "low": {
              "value": 98,
              "code": "mmol/L",
              "system": "http://unitsofmeasure.org"
            }
          },
          {
            "high": {
              "value": 107,
              "code": "mmol/L",
              "system": "http://unitsofmeasure.org"
            }
          }
        ],
        "text": {
          "status": "generated",
          "div": "<div xmlns=\"http://www.w3.org/1999/xhtml\"><table class=\"hl7__eu__lab__report\"><tr><th>Test</th><th>27-Nov-2015</th><th>Reference&#xA0;Range</th><th>Unit</th></tr><tr><td>Chloride [Moles/volume] in Serum or Plasma</td><td>104.3</td><td>98 - 107</td><td></td><td>mmol/L</td></tr></table></div>"
        },
        "status": "final",
        "subject": {
          "reference": "urn:uuid:5d60230f-0856-4050-8693-a4e3f82e26fc",
          "display": "Victor Lagarde"
        },
        "effectiveDateTime": "2015-11-27T04:48:18Z",
        "specimen": {
          "reference": "urn:uuid:f94cb808-0f0f-46fb-82f9-cd34a63a22f0"
        }
      }
    },
    {
      "fullUrl": "urn:uuid:22ed459a-668f-4a53-8531-949c814794f9",
      "resource": {
        "resourceType": "Observation",
        "id": "22ed459a-668f-4a53-8531-949c814794f9",
        "meta": {
          "profile": [
            "http://hl7.eu/fhir/laboratory/StructureDefinition/Observation-resultslab-eu-lab"
          ]
        },
        "performer": [
          {
            "display": "The Central European Lab"
          }
        ],
        "category": [
          {
            "coding": [
              {
                "system": "http://terminology.hl7.org/CodeSystem/observation-category",
                "code": "laboratory"
              }
            ]
          }
        ],
        "code": {
          "coding": [
            {
              "code": "2028-9",
              "system": "http://loinc.org",
              "display": "Carbon dioxide, total [Moles/volume] in Serum or Plasma"
            }
          ],
          "text": "Carbon dioxide, total [Moles/volume] in Serum or Plasma"
        },
        "valueQuantity": {
          "system": "http://unitsofmeasure.org",
          "value": 22.6,
          "unit": "mmol/L",
          "code": "mmol/L"
        },
        "referenceRange": [
          {
            "low": {
              "value": 22,
              "code": "mmol/L",
              "system": "http://unitsofmeasure.org"
            }
          },
          {
            "high": {
              "value": 33,
              "code": "mmol/L",
              "system": "http://unitsofmeasure.org"
            }
          }
        ],
        "text": {
          "status": "generated",
          "div": "<div xmlns=\"http://www.w3.org/1999/xhtml\"><table class=\"hl7__eu__lab__report\"><tr><th>Test</th><th>27-Nov-2015</th><th>Reference&#xA0;Range</th><th>Unit</th></tr><tr><td>Carbon dioxide, total [Moles/volume] in Serum or Plasma</td><td>22.6</td><td>22 - 33</td><td></td><td>mmol/L</td></tr></table></div>"
        },
        "status": "final",
        "subject": {
          "reference": "urn:uuid:5d60230f-0856-4050-8693-a4e3f82e26fc",
          "display": "Victor Lagarde"
        },
        "effectiveDateTime": "2015-11-27T04:48:18Z",
        "specimen": {
          "reference": "urn:uuid:f94cb808-0f0f-46fb-82f9-cd34a63a22f0"
        }
      }
    },
    {
      "fullUrl": "urn:uuid:7fe55ef4-73f9-4640-a99d-1c808cf972a4",
      "resource": {
        "resourceType": "Observation",
        "id": "7fe55ef4-73f9-4640-a99d-1c808cf972a4",
        "meta": {
          "profile": [
            "http://hl7.eu/fhir/laboratory/StructureDefinition/Observation-resultslab-eu-lab"
          ]
        },
        "performer": [
          {
            "display": "The Central European Lab"
          }
        ],
        "category": [
          {
            "coding": [
              {
                "system": "http://terminology.hl7.org/CodeSystem/observation-category",
                "code": "laboratory"
              }
            ]
          }
        ],
        "code": {
          "coding": [
            {
              "code": "5767-9",
              "system": "http://loinc.org",
              "display": "Appearance of Urine"
            }
          ],
          "text": "Appearance of Urine"
        },
        "text": {
          "status": "generated",
          "div": "<div xmlns=\"http://www.w3.org/1999/xhtml\"><table class=\"hl7__eu__lab__report\"><tr><th>Test</th><th>27-Nov-2015</th><th>Reference&#xA0;Range</th><th>Unit</th></tr><tr><td>Appearance of Urine</td></tr></table></div>"
        },
        "status": "final",
        "subject": {
          "reference": "urn:uuid:5d60230f-0856-4050-8693-a4e3f82e26fc",
          "display": "Victor Lagarde"
        },
        "effectiveDateTime": "2015-11-27T04:48:18Z",
        "specimen": {
          "reference": "urn:uuid:c242e2c8-c830-456e-9570-7a7c3a574627"
        }
      }
    },
    {
      "fullUrl": "urn:uuid:47cf036e-bd58-4aa8-b404-daf138acdba7",
      "resource": {
        "resourceType": "Observation",
        "id": "47cf036e-bd58-4aa8-b404-daf138acdba7",
        "meta": {
          "profile": [
            "http://hl7.eu/fhir/laboratory/StructureDefinition/Observation-resultslab-eu-lab"
          ]
        },
        "performer": [
          {
            "display": "The Central European Lab"
          }
        ],
        "category": [
          {
            "coding": [
              {
                "system": "http://terminology.hl7.org/CodeSystem/observation-category",
                "code": "laboratory"
              }
            ]
          }
        ],
        "code": {
          "coding": [
            {
              "code": "34533-0",
              "system": "http://loinc.org",
              "display": "Odor of Urine"
            }
          ],
          "text": "Odor of Urine"
        },
        "text": {
          "status": "generated",
          "div": "<div xmlns=\"http://www.w3.org/1999/xhtml\"><table class=\"hl7__eu__lab__report\"><tr><th>Test</th><th>27-Nov-2015</th><th>Reference&#xA0;Range</th><th>Unit</th></tr><tr><td>Odor of Urine</td></tr></table></div>"
        },
        "status": "final",
        "subject": {
          "reference": "urn:uuid:5d60230f-0856-4050-8693-a4e3f82e26fc",
          "display": "Victor Lagarde"
        },
        "effectiveDateTime": "2015-11-27T04:48:18Z",
        "specimen": {
          "reference": "urn:uuid:c242e2c8-c830-456e-9570-7a7c3a574627"
        }
      }
    },
    {
      "fullUrl": "urn:uuid:356b34a6-9867-42a8-943e-9a6851817f02",
      "resource": {
        "resourceType": "Observation",
        "id": "356b34a6-9867-42a8-943e-9a6851817f02",
        "meta": {
          "profile": [
            "http://hl7.eu/fhir/laboratory/StructureDefinition/Observation-resultslab-eu-lab"
          ]
        },
        "performer": [
          {
            "display": "The Central European Lab"
          }
        ],
        "category": [
          {
            "coding": [
              {
                "system": "http://terminology.hl7.org/CodeSystem/observation-category",
                "code": "laboratory"
              }
            ]
          }
        ],
        "code": {
          "coding": [
            {
              "code": "32167-9",
              "system": "http://loinc.org",
              "display": "Clarity of Urine"
            }
          ],
          "text": "Clarity of Urine"
        },
        "text": {
          "status": "generated",
          "div": "<div xmlns=\"http://www.w3.org/1999/xhtml\"><table class=\"hl7__eu__lab__report\"><tr><th>Test</th><th>27-Nov-2015</th><th>Reference&#xA0;Range</th><th>Unit</th></tr><tr><td>Clarity of Urine</td></tr></table></div>"
        },
        "status": "final",
        "subject": {
          "reference": "urn:uuid:5d60230f-0856-4050-8693-a4e3f82e26fc",
          "display": "Victor Lagarde"
        },
        "effectiveDateTime": "2015-11-27T04:48:18Z",
        "specimen": {
          "reference": "urn:uuid:c242e2c8-c830-456e-9570-7a7c3a574627"
        }
      }
    },
    {
      "fullUrl": "urn:uuid:0b17592a-66d3-4e09-a9f3-7c0e4990ec8c",
      "resource": {
        "resourceType": "Observation",
        "id": "0b17592a-66d3-4e09-a9f3-7c0e4990ec8c",
        "meta": {
          "profile": [
            "http://hl7.eu/fhir/laboratory/StructureDefinition/Observation-resultslab-eu-lab"
          ]
        },
        "performer": [
          {
            "display": "The Central European Lab"
          }
        ],
        "category": [
          {
            "coding": [
              {
                "system": "http://terminology.hl7.org/CodeSystem/observation-category",
                "code": "laboratory"
              }
            ]
          }
        ],
        "code": {
          "coding": [
            {
              "code": "5778-6",
              "system": "http://loinc.org",
              "display": "Color of Urine"
            }
          ],
          "text": "Color of Urine"
        },
        "text": {
          "status": "generated",
          "div": "<div xmlns=\"http://www.w3.org/1999/xhtml\"><table class=\"hl7__eu__lab__report\"><tr><th>Test</th><th>27-Nov-2015</th><th>Reference&#xA0;Range</th><th>Unit</th></tr><tr><td>Color of Urine</td></tr></table></div>"
        },
        "status": "final",
        "subject": {
          "reference": "urn:uuid:5d60230f-0856-4050-8693-a4e3f82e26fc",
          "display": "Victor Lagarde"
        },
        "effectiveDateTime": "2015-11-27T04:48:18Z",
        "specimen": {
          "reference": "urn:uuid:c242e2c8-c830-456e-9570-7a7c3a574627"
        }
      }
    },
    {
      "fullUrl": "urn:uuid:3c314a65-c429-4ebd-8941-02d7592e7b84",
      "resource": {
        "resourceType": "Observation",
        "id": "3c314a65-c429-4ebd-8941-02d7592e7b84",
        "meta": {
          "profile": [
            "http://hl7.eu/fhir/laboratory/StructureDefinition/Observation-resultslab-eu-lab"
          ]
        },
        "performer": [
          {
            "display": "The Central European Lab"
          }
        ],
        "category": [
          {
            "coding": [
              {
                "system": "http://terminology.hl7.org/CodeSystem/observation-category",
                "code": "laboratory"
              }
            ]
          }
        ],
        "code": {
          "coding": [
            {
              "code": "5792-7",
              "system": "http://loinc.org",
              "display": "Glucose [Mass/volume] in Urine by Test strip"
            }
          ],
          "text": "Glucose [Mass/volume] in Urine by Test strip"
        },
        "valueQuantity": {
          "system": "http://unitsofmeasure.org",
          "value": 1.1,
          "unit": "mg/dL",
          "code": "mg/dL"
        },
        "referenceRange": [
          {
            "low": {
              "value": 0,
              "code": "mg/dL",
              "system": "http://unitsofmeasure.org"
            }
          },
          {
            "high": {
              "value": 0.8,
              "code": "mg/dL",
              "system": "http://unitsofmeasure.org"
            }
          }
        ],
        "interpretation": [
          {
            "coding": [
              {
                "code": "H",
                "system": "http://terminology.hl7.org/CodeSystem/v3-ObservationInterpretation",
                "display": "High"
              }
            ]
          }
        ],
        "text": {
          "status": "generated",
          "div": "<div xmlns=\"http://www.w3.org/1999/xhtml\"><table class=\"hl7__eu__lab__report\"><tr><th>Test</th><th>27-Nov-2015</th><th>Reference&#xA0;Range</th><th>Unit</th></tr><tr><td>Glucose [Mass/volume] in Urine by Test strip</td><td>1.1</td><td>0 - 0.8</td><td>H</td><td>mg/dL</td></tr></table></div>"
        },
        "status": "final",
        "subject": {
          "reference": "urn:uuid:5d60230f-0856-4050-8693-a4e3f82e26fc",
          "display": "Victor Lagarde"
        },
        "effectiveDateTime": "2015-11-27T04:48:18Z",
        "specimen": {
          "reference": "urn:uuid:c242e2c8-c830-456e-9570-7a7c3a574627"
        }
      }
    },
    {
      "fullUrl": "urn:uuid:554c5dad-bf6a-44bf-bc2e-48cea77de980",
      "resource": {
        "resourceType": "Observation",
        "id": "554c5dad-bf6a-44bf-bc2e-48cea77de980",
        "meta": {
          "profile": [
            "http://hl7.eu/fhir/laboratory/StructureDefinition/Observation-resultslab-eu-lab"
          ]
        },
        "performer": [
          {
            "display": "The Central European Lab"
          }
        ],
        "category": [
          {
            "coding": [
              {
                "system": "http://terminology.hl7.org/CodeSystem/observation-category",
                "code": "laboratory"
              }
            ]
          }
        ],
        "code": {
          "coding": [
            {
              "code": "25428-4",
              "system": "http://loinc.org",
              "display": "Glucose [Presence] in Urine by Test strip"
            }
          ],
          "text": "Glucose [Presence] in Urine by Test strip"
        },
        "text": {
          "status": "generated",
          "div": "<div xmlns=\"http://www.w3.org/1999/xhtml\"><table class=\"hl7__eu__lab__report\"><tr><th>Test</th><th>27-Nov-2015</th><th>Reference&#xA0;Range</th><th>Unit</th></tr><tr><td>Glucose [Presence] in Urine by Test strip</td></tr></table></div>"
        },
        "status": "final",
        "subject": {
          "reference": "urn:uuid:5d60230f-0856-4050-8693-a4e3f82e26fc",
          "display": "Victor Lagarde"
        },
        "effectiveDateTime": "2015-11-27T04:48:18Z",
        "specimen": {
          "reference": "urn:uuid:c242e2c8-c830-456e-9570-7a7c3a574627"
        }
      }
    },
    {
      "fullUrl": "urn:uuid:7b96fca5-e64f-49c9-8669-05fe0fb84b6e",
      "resource": {
        "resourceType": "Observation",
        "id": "7b96fca5-e64f-49c9-8669-05fe0fb84b6e",
        "meta": {
          "profile": [
            "http://hl7.eu/fhir/laboratory/StructureDefinition/Observation-resultslab-eu-lab"
          ]
        },
        "performer": [
          {
            "display": "The Central European Lab"
          }
        ],
        "category": [
          {
            "coding": [
              {
                "system": "http://terminology.hl7.org/CodeSystem/observation-category",
                "code": "laboratory"
              }
            ]
          }
        ],
        "code": {
          "coding": [
            {
              "code": "20505-4",
              "system": "http://loinc.org",
              "display": "Bilirubin.total [Mass/volume] in Urine by Test strip"
            }
          ],
          "text": "Bilirubin.total [Mass/volume] in Urine by Test strip"
        },
        "valueQuantity": {
          "system": "http://unitsofmeasure.org",
          "value": 0.7,
          "unit": "mg/dL",
          "code": "mg/dL"
        },
        "referenceRange": [
          {
            "low": {
              "value": 0,
              "code": "mg/dL",
              "system": "http://unitsofmeasure.org"
            }
          },
          {
            "high": {
              "value": 1.9,
              "code": "mg/dL",
              "system": "http://unitsofmeasure.org"
            }
          }
        ],
        "text": {
          "status": "generated",
          "div": "<div xmlns=\"http://www.w3.org/1999/xhtml\"><table class=\"hl7__eu__lab__report\"><tr><th>Test</th><th>27-Nov-2015</th><th>Reference&#xA0;Range</th><th>Unit</th></tr><tr><td>Bilirubin.total [Mass/volume] in Urine by Test strip</td><td>0.7</td><td>0 - 1.9</td><td></td><td>mg/dL</td></tr></table></div>"
        },
        "status": "final",
        "subject": {
          "reference": "urn:uuid:5d60230f-0856-4050-8693-a4e3f82e26fc",
          "display": "Victor Lagarde"
        },
        "effectiveDateTime": "2015-11-27T04:48:18Z",
        "specimen": {
          "reference": "urn:uuid:c242e2c8-c830-456e-9570-7a7c3a574627"
        }
      }
    },
    {
      "fullUrl": "urn:uuid:0ac01de3-4fba-4872-88b2-4182f835e3a8",
      "resource": {
        "resourceType": "Observation",
        "id": "0ac01de3-4fba-4872-88b2-4182f835e3a8",
        "meta": {
          "profile": [
            "http://hl7.eu/fhir/laboratory/StructureDefinition/Observation-resultslab-eu-lab"
          ]
        },
        "performer": [
          {
            "display": "The Central European Lab"
          }
        ],
        "category": [
          {
            "coding": [
              {
                "system": "http://terminology.hl7.org/CodeSystem/observation-category",
                "code": "laboratory"
              }
            ]
          }
        ],
        "code": {
          "coding": [
            {
              "code": "5770-3",
              "system": "http://loinc.org",
              "display": "Bilirubin.total [Presence] in Urine by Test strip"
            }
          ],
          "text": "Bilirubin.total [Presence] in Urine by Test strip"
        },
        "text": {
          "status": "generated",
          "div": "<div xmlns=\"http://www.w3.org/1999/xhtml\"><table class=\"hl7__eu__lab__report\"><tr><th>Test</th><th>27-Nov-2015</th><th>Reference&#xA0;Range</th><th>Unit</th></tr><tr><td>Bilirubin.total [Presence] in Urine by Test strip</td></tr></table></div>"
        },
        "status": "final",
        "subject": {
          "reference": "urn:uuid:5d60230f-0856-4050-8693-a4e3f82e26fc",
          "display": "Victor Lagarde"
        },
        "effectiveDateTime": "2015-11-27T04:48:18Z",
        "specimen": {
          "reference": "urn:uuid:c242e2c8-c830-456e-9570-7a7c3a574627"
        }
      }
    },
    {
      "fullUrl": "urn:uuid:c91f7a0d-3738-4f7a-b249-46fc3575ee5b",
      "resource": {
        "resourceType": "Observation",
        "id": "c91f7a0d-3738-4f7a-b249-46fc3575ee5b",
        "meta": {
          "profile": [
            "http://hl7.eu/fhir/laboratory/StructureDefinition/Observation-resultslab-eu-lab"
          ]
        },
        "performer": [
          {
            "display": "The Central European Lab"
          }
        ],
        "category": [
          {
            "coding": [
              {
                "system": "http://terminology.hl7.org/CodeSystem/observation-category",
                "code": "laboratory"
              }
            ]
          }
        ],
        "code": {
          "coding": [
            {
              "code": "5797-6",
              "system": "http://loinc.org",
              "display": "Ketones [Mass/volume] in Urine by Test strip"
            }
          ],
          "text": "Ketones [Mass/volume] in Urine by Test strip"
        },
        "valueQuantity": {
          "system": "http://unitsofmeasure.org",
          "value": 4,
          "unit": "mg/dL",
          "code": "mg/dL"
        },
        "referenceRange": [
          {
            "low": {
              "value": 0,
              "code": "mg/dL",
              "system": "http://unitsofmeasure.org"
            }
          },
          {
            "high": {
              "value": 3,
              "code": "mg/dL",
              "system": "http://unitsofmeasure.org"
            }
          }
        ],
        "interpretation": [
          {
            "coding": [
              {
                "code": "H",
                "system": "http://terminology.hl7.org/CodeSystem/v3-ObservationInterpretation",
                "display": "High"
              }
            ]
          }
        ],
        "text": {
          "status": "generated",
          "div": "<div xmlns=\"http://www.w3.org/1999/xhtml\"><table class=\"hl7__eu__lab__report\"><tr><th>Test</th><th>27-Nov-2015</th><th>Reference&#xA0;Range</th><th>Unit</th></tr><tr><td>Ketones [Mass/volume] in Urine by Test strip</td><td>4.0</td><td>0 - 3</td><td>H</td><td>mg/dL</td></tr></table></div>"
        },
        "status": "final",
        "subject": {
          "reference": "urn:uuid:5d60230f-0856-4050-8693-a4e3f82e26fc",
          "display": "Victor Lagarde"
        },
        "effectiveDateTime": "2015-11-27T04:48:18Z",
        "specimen": {
          "reference": "urn:uuid:c242e2c8-c830-456e-9570-7a7c3a574627"
        }
      }
    },
    {
      "fullUrl": "urn:uuid:2db1fe4c-d687-46b7-8406-8d00d79aea5c",
      "resource": {
        "resourceType": "Observation",
        "id": "2db1fe4c-d687-46b7-8406-8d00d79aea5c",
        "meta": {
          "profile": [
            "http://hl7.eu/fhir/laboratory/StructureDefinition/Observation-resultslab-eu-lab"
          ]
        },
        "performer": [
          {
            "display": "The Central European Lab"
          }
        ],
        "category": [
          {
            "coding": [
              {
                "system": "http://terminology.hl7.org/CodeSystem/observation-category",
                "code": "laboratory"
              }
            ]
          }
        ],
        "code": {
          "coding": [
            {
              "code": "2514-8",
              "system": "http://loinc.org",
              "display": "Ketones [Presence] in Urine by Test strip"
            }
          ],
          "text": "Ketones [Presence] in Urine by Test strip"
        },
        "text": {
          "status": "generated",
          "div": "<div xmlns=\"http://www.w3.org/1999/xhtml\"><table class=\"hl7__eu__lab__report\"><tr><th>Test</th><th>27-Nov-2015</th><th>Reference&#xA0;Range</th><th>Unit</th></tr><tr><td>Ketones [Presence] in Urine by Test strip</td></tr></table></div>"
        },
        "status": "final",
        "subject": {
          "reference": "urn:uuid:5d60230f-0856-4050-8693-a4e3f82e26fc",
          "display": "Victor Lagarde"
        },
        "effectiveDateTime": "2015-11-27T04:48:18Z",
        "specimen": {
          "reference": "urn:uuid:c242e2c8-c830-456e-9570-7a7c3a574627"
        }
      }
    },
    {
      "fullUrl": "urn:uuid:697f9037-789e-4b7d-9518-85cab7fc0adb",
      "resource": {
        "resourceType": "Observation",
        "id": "697f9037-789e-4b7d-9518-85cab7fc0adb",
        "meta": {
          "profile": [
            "http://hl7.eu/fhir/laboratory/StructureDefinition/Observation-resultslab-eu-lab"
          ]
        },
        "performer": [
          {
            "display": "The Central European Lab"
          }
        ],
        "category": [
          {
            "coding": [
              {
                "system": "http://terminology.hl7.org/CodeSystem/observation-category",
                "code": "laboratory"
              }
            ]
          }
        ],
        "code": {
          "coding": [
            {
              "code": "5811-5",
              "system": "http://loinc.org",
              "display": "Specific gravity of Urine by Test strip"
            }
          ],
          "text": "Specific gravity of Urine by Test strip"
        },
        "valueQuantity": {
          "system": "http://unitsofmeasure.org",
          "value": 1,
          "unit": "{nominal}",
          "code": "{nominal}"
        },
        "referenceRange": [
          {
            "low": {
              "value": 1.01,
              "code": "g/mL",
              "system": "http://unitsofmeasure.org"
            }
          },
          {
            "high": {
              "value": 1.03,
              "code": "g/mL",
              "system": "http://unitsofmeasure.org"
            }
          }
        ],
        "interpretation": [
          {
            "coding": [
              {
                "code": "L",
                "system": "http://terminology.hl7.org/CodeSystem/v3-ObservationInterpretation",
                "display": "Low"
              }
            ]
          }
        ],
        "text": {
          "status": "generated",
          "div": "<div xmlns=\"http://www.w3.org/1999/xhtml\"><table class=\"hl7__eu__lab__report\"><tr><th>Test</th><th>27-Nov-2015</th><th>Reference&#xA0;Range</th><th>Unit</th></tr><tr><td>Specific gravity of Urine by Test strip</td><td>1.0</td><td>1.01 - 1.03</td><td>L</td><td>{nominal}</td></tr></table></div>"
        },
        "status": "final",
        "subject": {
          "reference": "urn:uuid:5d60230f-0856-4050-8693-a4e3f82e26fc",
          "display": "Victor Lagarde"
        },
        "effectiveDateTime": "2015-11-27T04:48:18Z",
        "specimen": {
          "reference": "urn:uuid:c242e2c8-c830-456e-9570-7a7c3a574627"
        }
      }
    },
    {
      "fullUrl": "urn:uuid:7825fe5e-72cd-49b8-b104-2357bb323d88",
      "resource": {
        "resourceType": "Observation",
        "id": "7825fe5e-72cd-49b8-b104-2357bb323d88",
        "meta": {
          "profile": [
            "http://hl7.eu/fhir/laboratory/StructureDefinition/Observation-resultslab-eu-lab"
          ]
        },
        "performer": [
          {
            "display": "The Central European Lab"
          }
        ],
        "category": [
          {
            "coding": [
              {
                "system": "http://terminology.hl7.org/CodeSystem/observation-category",
                "code": "laboratory"
              }
            ]
          }
        ],
        "code": {
          "coding": [
            {
              "code": "5803-2",
              "system": "http://loinc.org",
              "display": "pH of Urine by Test strip"
            }
          ],
          "text": "pH of Urine by Test strip"
        },
        "valueQuantity": {
          "system": "http://unitsofmeasure.org",
          "value": 5.3,
          "unit": "pH",
          "code": "pH"
        },
        "referenceRange": [
          {
            "low": {
              "value": 4.5,
              "code": "pH",
              "system": "http://unitsofmeasure.org"
            }
          },
          {
            "high": {
              "value": 7.5,
              "code": "pH",
              "system": "http://unitsofmeasure.org"
            }
          }
        ],
        "text": {
          "status": "generated",
          "div": "<div xmlns=\"http://www.w3.org/1999/xhtml\"><table class=\"hl7__eu__lab__report\"><tr><th>Test</th><th>27-Nov-2015</th><th>Reference&#xA0;Range</th><th>Unit</th></tr><tr><td>pH of Urine by Test strip</td><td>5.3</td><td>4.5 - 7.5</td><td></td><td>pH</td></tr></table></div>"
        },
        "status": "final",
        "subject": {
          "reference": "urn:uuid:5d60230f-0856-4050-8693-a4e3f82e26fc",
          "display": "Victor Lagarde"
        },
        "effectiveDateTime": "2015-11-27T04:48:18Z",
        "specimen": {
          "reference": "urn:uuid:c242e2c8-c830-456e-9570-7a7c3a574627"
        }
      }
    },
    {
      "fullUrl": "urn:uuid:9dea0c18-8642-46dd-8fa7-c7a72e33adc2",
      "resource": {
        "resourceType": "Observation",
        "id": "9dea0c18-8642-46dd-8fa7-c7a72e33adc2",
        "meta": {
          "profile": [
            "http://hl7.eu/fhir/laboratory/StructureDefinition/Observation-resultslab-eu-lab"
          ]
        },
        "performer": [
          {
            "display": "The Central European Lab"
          }
        ],
        "category": [
          {
            "coding": [
              {
                "system": "http://terminology.hl7.org/CodeSystem/observation-category",
                "code": "laboratory"
              }
            ]
          }
        ],
        "code": {
          "coding": [
            {
              "code": "5804-0",
              "system": "http://loinc.org",
              "display": "Protein [Mass/volume] in Urine by Test strip"
            }
          ],
          "text": "Protein [Mass/volume] in Urine by Test strip"
        },
        "valueQuantity": {
          "system": "http://unitsofmeasure.org",
          "value": 158.6,
          "unit": "mg/dL",
          "code": "mg/dL"
        },
        "referenceRange": [
          {
            "low": {
              "value": 0,
              "code": "mg/dL",
              "system": "http://unitsofmeasure.org"
            }
          },
          {
            "high": {
              "value": 149,
              "code": "mg/dL",
              "system": "http://unitsofmeasure.org"
            }
          }
        ],
        "interpretation": [
          {
            "coding": [
              {
                "code": "H",
                "system": "http://terminology.hl7.org/CodeSystem/v3-ObservationInterpretation",
                "display": "High"
              }
            ]
          }
        ],
        "text": {
          "status": "generated",
          "div": "<div xmlns=\"http://www.w3.org/1999/xhtml\"><table class=\"hl7__eu__lab__report\"><tr><th>Test</th><th>27-Nov-2015</th><th>Reference&#xA0;Range</th><th>Unit</th></tr><tr><td>Protein [Mass/volume] in Urine by Test strip</td><td>158.6</td><td>0 - 149</td><td>H</td><td>mg/dL</td></tr></table></div>"
        },
        "status": "final",
        "subject": {
          "reference": "urn:uuid:5d60230f-0856-4050-8693-a4e3f82e26fc",
          "display": "Victor Lagarde"
        },
        "effectiveDateTime": "2015-11-27T04:48:18Z",
        "specimen": {
          "reference": "urn:uuid:c242e2c8-c830-456e-9570-7a7c3a574627"
        }
      }
    },
    {
      "fullUrl": "urn:uuid:5a760881-16f6-4366-bd54-b774e32a17cb",
      "resource": {
        "resourceType": "Observation",
        "id": "5a760881-16f6-4366-bd54-b774e32a17cb",
        "meta": {
          "profile": [
            "http://hl7.eu/fhir/laboratory/StructureDefinition/Observation-resultslab-eu-lab"
          ]
        },
        "performer": [
          {
            "display": "The Central European Lab"
          }
        ],
        "category": [
          {
            "coding": [
              {
                "system": "http://terminology.hl7.org/CodeSystem/observation-category",
                "code": "laboratory"
              }
            ]
          }
        ],
        "code": {
          "coding": [
            {
              "code": "20454-5",
              "system": "http://loinc.org",
              "display": "Protein [Presence] in Urine by Test strip"
            }
          ],
          "text": "Protein [Presence] in Urine by Test strip"
        },
        "text": {
          "status": "generated",
          "div": "<div xmlns=\"http://www.w3.org/1999/xhtml\"><table class=\"hl7__eu__lab__report\"><tr><th>Test</th><th>27-Nov-2015</th><th>Reference&#xA0;Range</th><th>Unit</th></tr><tr><td>Protein [Presence] in Urine by Test strip</td></tr></table></div>"
        },
        "status": "final",
        "subject": {
          "reference": "urn:uuid:5d60230f-0856-4050-8693-a4e3f82e26fc",
          "display": "Victor Lagarde"
        },
        "effectiveDateTime": "2015-11-27T04:48:18Z",
        "specimen": {
          "reference": "urn:uuid:c242e2c8-c830-456e-9570-7a7c3a574627"
        }
      }
    },
    {
      "fullUrl": "urn:uuid:8a1b3d91-285e-468b-8f74-d14aaccf8644",
      "resource": {
        "resourceType": "Observation",
        "id": "8a1b3d91-285e-468b-8f74-d14aaccf8644",
        "meta": {
          "profile": [
            "http://hl7.eu/fhir/laboratory/StructureDefinition/Observation-resultslab-eu-lab"
          ]
        },
        "performer": [
          {
            "display": "The Central European Lab"
          }
        ],
        "category": [
          {
            "coding": [
              {
                "system": "http://terminology.hl7.org/CodeSystem/observation-category",
                "code": "laboratory"
              }
            ]
          }
        ],
        "code": {
          "coding": [
            {
              "code": "5802-4",
              "system": "http://loinc.org",
              "display": "Nitrite [Presence] in Urine by Test strip"
            }
          ],
          "text": "Nitrite [Presence] in Urine by Test strip"
        },
        "text": {
          "status": "generated",
          "div": "<div xmlns=\"http://www.w3.org/1999/xhtml\"><table class=\"hl7__eu__lab__report\"><tr><th>Test</th><th>27-Nov-2015</th><th>Reference&#xA0;Range</th><th>Unit</th></tr><tr><td>Nitrite [Presence] in Urine by Test strip</td></tr></table></div>"
        },
        "status": "final",
        "subject": {
          "reference": "urn:uuid:5d60230f-0856-4050-8693-a4e3f82e26fc",
          "display": "Victor Lagarde"
        },
        "effectiveDateTime": "2015-11-27T04:48:18Z",
        "specimen": {
          "reference": "urn:uuid:c242e2c8-c830-456e-9570-7a7c3a574627"
        }
      }
    },
    {
      "fullUrl": "urn:uuid:d2d349fc-f962-4913-ac72-117d9654a786",
      "resource": {
        "resourceType": "Observation",
        "id": "d2d349fc-f962-4913-ac72-117d9654a786",
        "meta": {
          "profile": [
            "http://hl7.eu/fhir/laboratory/StructureDefinition/Observation-resultslab-eu-lab"
          ]
        },
        "performer": [
          {
            "display": "The Central European Lab"
          }
        ],
        "category": [
          {
            "coding": [
              {
                "system": "http://terminology.hl7.org/CodeSystem/observation-category",
                "code": "laboratory"
              }
            ]
          }
        ],
        "code": {
          "coding": [
            {
              "code": "5794-3",
              "system": "http://loinc.org",
              "display": "Hemoglobin [Presence] in Urine by Test strip"
            }
          ],
          "text": "Hemoglobin [Presence] in Urine by Test strip"
        },
        "text": {
          "status": "generated",
          "div": "<div xmlns=\"http://www.w3.org/1999/xhtml\"><table class=\"hl7__eu__lab__report\"><tr><th>Test</th><th>27-Nov-2015</th><th>Reference&#xA0;Range</th><th>Unit</th></tr><tr><td>Hemoglobin [Presence] in Urine by Test strip</td></tr></table></div>"
        },
        "status": "final",
        "subject": {
          "reference": "urn:uuid:5d60230f-0856-4050-8693-a4e3f82e26fc",
          "display": "Victor Lagarde"
        },
        "effectiveDateTime": "2015-11-27T04:48:18Z",
        "specimen": {
          "reference": "urn:uuid:c242e2c8-c830-456e-9570-7a7c3a574627"
        }
      }
    },
    {
      "fullUrl": "urn:uuid:b2aa917a-8614-4f23-81e3-20d905ea0c7e",
      "resource": {
        "resourceType": "Observation",
        "id": "b2aa917a-8614-4f23-81e3-20d905ea0c7e",
        "meta": {
          "profile": [
            "http://hl7.eu/fhir/laboratory/StructureDefinition/Observation-resultslab-eu-lab"
          ]
        },
        "performer": [
          {
            "display": "The Central European Lab"
          }
        ],
        "category": [
          {
            "coding": [
              {
                "system": "http://terminology.hl7.org/CodeSystem/observation-category",
                "code": "laboratory"
              }
            ]
          }
        ],
        "code": {
          "coding": [
            {
              "code": "5799-2",
              "system": "http://loinc.org",
              "display": "Leukocyte esterase [Presence] in Urine by Test strip"
            }
          ],
          "text": "Leukocyte esterase [Presence] in Urine by Test strip"
        },
        "text": {
          "status": "generated",
          "div": "<div xmlns=\"http://www.w3.org/1999/xhtml\"><table class=\"hl7__eu__lab__report\"><tr><th>Test</th><th>27-Nov-2015</th><th>Reference&#xA0;Range</th><th>Unit</th></tr><tr><td>Leukocyte esterase [Presence] in Urine by Test strip</td></tr></table></div>"
        },
        "status": "final",
        "subject": {
          "reference": "urn:uuid:5d60230f-0856-4050-8693-a4e3f82e26fc",
          "display": "Victor Lagarde"
        },
        "effectiveDateTime": "2015-11-27T04:48:18Z",
        "specimen": {
          "reference": "urn:uuid:c242e2c8-c830-456e-9570-7a7c3a574627"
        }
      }
    },
    {
      "fullUrl": "urn:uuid:becd1076-c80a-4b0b-b84f-59f560c2778b",
      "resource": {
        "resourceType": "Observation",
        "id": "becd1076-c80a-4b0b-b84f-59f560c2778b",
        "meta": {
          "profile": [
            "http://hl7.eu/fhir/laboratory/StructureDefinition/Observation-resultslab-eu-lab"
          ]
        },
        "performer": [
          {
            "display": "The Central European Lab"
          }
        ],
        "category": [
          {
            "coding": [
              {
                "system": "http://terminology.hl7.org/CodeSystem/observation-category",
                "code": "laboratory"
              }
            ]
          }
        ],
        "code": {
          "coding": [
            {
              "code": "4548-4",
              "system": "http://loinc.org",
              "display": "Hemoglobin A1c/Hemoglobin.total in Blood"
            }
          ],
          "text": "Hemoglobin A1c/Hemoglobin.total in Blood"
        },
        "valueQuantity": {
          "system": "http://unitsofmeasure.org",
          "value": 2.9,
          "unit": "%",
          "code": "%"
        },
        "referenceRange": [
          {
            "low": {
              "value": 4.3,
              "code": "%",
              "system": "http://unitsofmeasure.org"
            }
          },
          {
            "high": {
              "value": 6,
              "code": "%",
              "system": "http://unitsofmeasure.org"
            }
          }
        ],
        "interpretation": [
          {
            "coding": [
              {
                "code": "L",
                "system": "http://terminology.hl7.org/CodeSystem/v3-ObservationInterpretation",
                "display": "Low"
              }
            ]
          }
        ],
        "text": {
          "status": "generated",
          "div": "<div xmlns=\"http://www.w3.org/1999/xhtml\"><table class=\"hl7__eu__lab__report\"><tr><th>Test</th><th>27-Nov-2015</th><th>Reference&#xA0;Range</th><th>Unit</th></tr><tr><td>Hemoglobin A1c/Hemoglobin.total in Blood</td><td>2.9</td><td>4.3 - 6</td><td>L</td><td>%</td></tr></table></div>"
        },
        "status": "final",
        "subject": {
          "reference": "urn:uuid:5d60230f-0856-4050-8693-a4e3f82e26fc",
          "display": "Victor Lagarde"
        },
        "effectiveDateTime": "2015-11-27T04:48:18Z",
        "specimen": {
          "reference": "urn:uuid:9e0c3bc6-f15b-4896-a837-45fa51eba8f6"
        }
      }
    },
    {
      "fullUrl": "urn:uuid:b11c6e45-cd64-467a-8495-7280925653a9",
      "resource": {
        "resourceType": "Observation",
        "id": "b11c6e45-cd64-467a-8495-7280925653a9",
        "meta": {
          "profile": [
            "http://hl7.eu/fhir/laboratory/StructureDefinition/Observation-resultslab-eu-lab"
          ]
        },
        "performer": [
          {
            "display": "The Central European Lab"
          }
        ],
        "category": [
          {
            "coding": [
              {
                "system": "http://terminology.hl7.org/CodeSystem/observation-category",
                "code": "laboratory"
              }
            ]
          }
        ],
        "code": {
          "coding": [
            {
              "code": "2339-0",
              "system": "http://loinc.org",
              "display": "Glucose [Mass/volume] in Blood"
            }
          ],
          "text": "Glucose [Mass/volume] in Blood"
        },
        "valueQuantity": {
          "system": "http://unitsofmeasure.org",
          "value": 70,
          "unit": "mg/dL",
          "code": "mg/dL"
        },
        "referenceRange": [
          {
            "low": {
              "value": 70,
              "code": "mg/dL",
              "system": "http://unitsofmeasure.org"
            }
          },
          {
            "high": {
              "value": 140,
              "code": "mg/dL",
              "system": "http://unitsofmeasure.org"
            }
          }
        ],
        "text": {
          "status": "generated",
          "div": "<div xmlns=\"http://www.w3.org/1999/xhtml\"><table class=\"hl7__eu__lab__report\"><tr><th>Test</th><th>27-Nov-2015</th><th>Reference&#xA0;Range</th><th>Unit</th></tr><tr><td>Glucose [Mass/volume] in Blood</td><td>70.0</td><td>70 - 140</td><td></td><td>mg/dL</td></tr></table></div>"
        },
        "status": "final",
        "subject": {
          "reference": "urn:uuid:5d60230f-0856-4050-8693-a4e3f82e26fc",
          "display": "Victor Lagarde"
        },
        "effectiveDateTime": "2015-11-27T04:48:18Z",
        "specimen": {
          "reference": "urn:uuid:9e0c3bc6-f15b-4896-a837-45fa51eba8f6"
        }
      }
    },
    {
      "fullUrl": "urn:uuid:955267fd-9b25-4fd3-a357-9ae1b1ceb138",
      "resource": {
        "resourceType": "Observation",
        "id": "955267fd-9b25-4fd3-a357-9ae1b1ceb138",
        "meta": {
          "profile": [
            "http://hl7.eu/fhir/laboratory/StructureDefinition/Observation-resultslab-eu-lab"
          ]
        },
        "performer": [
          {
            "display": "The Central European Lab"
          }
        ],
        "category": [
          {
            "coding": [
              {
                "system": "http://terminology.hl7.org/CodeSystem/observation-category",
                "code": "laboratory"
              }
            ]
          }
        ],
        "code": {
          "coding": [
            {
              "code": "6299-2",
              "system": "http://loinc.org",
              "display": "Urea nitrogen [Mass/volume] in Blood"
            }
          ],
          "text": "Urea nitrogen [Mass/volume] in Blood"
        },
        "valueQuantity": {
          "system": "http://unitsofmeasure.org",
          "value": 11.8,
          "unit": "mg/dL",
          "code": "mg/dL"
        },
        "referenceRange": [
          {
            "low": {
              "value": 7,
              "code": "mg/dL",
              "system": "http://unitsofmeasure.org"
            }
          },
          {
            "high": {
              "value": 20,
              "code": "mg/dL",
              "system": "http://unitsofmeasure.org"
            }
          }
        ],
        "text": {
          "status": "generated",
          "div": "<div xmlns=\"http://www.w3.org/1999/xhtml\"><table class=\"hl7__eu__lab__report\"><tr><th>Test</th><th>27-Nov-2015</th><th>Reference&#xA0;Range</th><th>Unit</th></tr><tr><td>Urea nitrogen [Mass/volume] in Blood</td><td>11.8</td><td>7 - 20</td><td></td><td>mg/dL</td></tr></table></div>"
        },
        "status": "final",
        "subject": {
          "reference": "urn:uuid:5d60230f-0856-4050-8693-a4e3f82e26fc",
          "display": "Victor Lagarde"
        },
        "effectiveDateTime": "2015-11-27T04:48:18Z",
        "specimen": {
          "reference": "urn:uuid:9e0c3bc6-f15b-4896-a837-45fa51eba8f6"
        }
      }
    },
    {
      "fullUrl": "urn:uuid:a9c9a77f-c2b5-4336-9965-43555c562121",
      "resource": {
        "resourceType": "Observation",
        "id": "a9c9a77f-c2b5-4336-9965-43555c562121",
        "meta": {
          "profile": [
            "http://hl7.eu/fhir/laboratory/StructureDefinition/Observation-resultslab-eu-lab"
          ]
        },
        "performer": [
          {
            "display": "The Central European Lab"
          }
        ],
        "category": [
          {
            "coding": [
              {
                "system": "http://terminology.hl7.org/CodeSystem/observation-category",
                "code": "laboratory"
              }
            ]
          }
        ],
        "code": {
          "coding": [
            {
              "code": "38483-4",
              "system": "http://loinc.org",
              "display": "Creatinine [Mass/volume] in Blood"
            }
          ],
          "text": "Creatinine [Mass/volume] in Blood"
        },
        "valueQuantity": {
          "system": "http://unitsofmeasure.org",
          "value": 2.3,
          "unit": "mg/dL",
          "code": "mg/dL"
        },
        "referenceRange": [
          {
            "low": {
              "value": 0.9,
              "code": "mg/dL",
              "system": "http://unitsofmeasure.org"
            }
          },
          {
            "high": {
              "value": 1.3,
              "code": "mg/dL",
              "system": "http://unitsofmeasure.org"
            }
          }
        ],
        "interpretation": [
          {
            "coding": [
              {
                "code": "H",
                "system": "http://terminology.hl7.org/CodeSystem/v3-ObservationInterpretation",
                "display": "High"
              }
            ]
          }
        ],
        "text": {
          "status": "generated",
          "div": "<div xmlns=\"http://www.w3.org/1999/xhtml\"><table class=\"hl7__eu__lab__report\"><tr><th>Test</th><th>27-Nov-2015</th><th>Reference&#xA0;Range</th><th>Unit</th></tr><tr><td>Creatinine [Mass/volume] in Blood</td><td>2.3</td><td>0.9 - 1.3</td><td>H</td><td>mg/dL</td></tr></table></div>"
        },
        "status": "final",
        "subject": {
          "reference": "urn:uuid:5d60230f-0856-4050-8693-a4e3f82e26fc",
          "display": "Victor Lagarde"
        },
        "effectiveDateTime": "2015-11-27T04:48:18Z",
        "specimen": {
          "reference": "urn:uuid:9e0c3bc6-f15b-4896-a837-45fa51eba8f6"
        }
      }
    },
    {
      "fullUrl": "urn:uuid:1b23c12e-33d9-43d3-9c2a-9a81a05078ec",
      "resource": {
        "resourceType": "Observation",
        "id": "1b23c12e-33d9-43d3-9c2a-9a81a05078ec",
        "meta": {
          "profile": [
            "http://hl7.eu/fhir/laboratory/StructureDefinition/Observation-resultslab-eu-lab"
          ]
        },
        "performer": [
          {
            "display": "The Central European Lab"
          }
        ],
        "category": [
          {
            "coding": [
              {
                "system": "http://terminology.hl7.org/CodeSystem/observation-category",
                "code": "laboratory"
              }
            ]
          }
        ],
        "code": {
          "coding": [
            {
              "code": "49765-1",
              "system": "http://loinc.org",
              "display": "Calcium [Mass/volume] in Blood"
            }
          ],
          "text": "Calcium [Mass/volume] in Blood"
        },
        "valueQuantity": {
          "system": "http://unitsofmeasure.org",
          "value": 8.5,
          "unit": "mg/dL",
          "code": "mg/dL"
        },
        "referenceRange": [
          {
            "low": {
              "value": 8.5,
              "code": "mg/dL",
              "system": "http://unitsofmeasure.org"
            }
          },
          {
            "high": {
              "value": 10.5,
              "code": "mg/dL",
              "system": "http://unitsofmeasure.org"
            }
          }
        ],
        "text": {
          "status": "generated",
          "div": "<div xmlns=\"http://www.w3.org/1999/xhtml\"><table class=\"hl7__eu__lab__report\"><tr><th>Test</th><th>27-Nov-2015</th><th>Reference&#xA0;Range</th><th>Unit</th></tr><tr><td>Calcium [Mass/volume] in Blood</td><td>8.5</td><td>8.5 - 10.5</td><td></td><td>mg/dL</td></tr></table></div>"
        },
        "status": "final",
        "subject": {
          "reference": "urn:uuid:5d60230f-0856-4050-8693-a4e3f82e26fc",
          "display": "Victor Lagarde"
        },
        "effectiveDateTime": "2015-11-27T04:48:18Z",
        "specimen": {
          "reference": "urn:uuid:9e0c3bc6-f15b-4896-a837-45fa51eba8f6"
        }
      }
    },
    {
      "fullUrl": "urn:uuid:419dee10-e840-4884-9705-b8af88ad406b",
      "resource": {
        "resourceType": "Observation",
        "id": "419dee10-e840-4884-9705-b8af88ad406b",
        "meta": {
          "profile": [
            "http://hl7.eu/fhir/laboratory/StructureDefinition/Observation-resultslab-eu-lab"
          ]
        },
        "performer": [
          {
            "display": "The Central European Lab"
          }
        ],
        "category": [
          {
            "coding": [
              {
                "system": "http://terminology.hl7.org/CodeSystem/observation-category",
                "code": "laboratory"
              }
            ]
          }
        ],
        "code": {
          "coding": [
            {
              "code": "2947-0",
              "system": "http://loinc.org",
              "display": "Sodium [Moles/volume] in Blood"
            }
          ],
          "text": "Sodium [Moles/volume] in Blood"
        },
        "valueQuantity": {
          "system": "http://unitsofmeasure.org",
          "value": 138.1,
          "unit": "mmol/L",
          "code": "mmol/L"
        },
        "referenceRange": [
          {
            "low": {
              "value": 135,
              "code": "mmol/L",
              "system": "http://unitsofmeasure.org"
            }
          },
          {
            "high": {
              "value": 145,
              "code": "mmol/L",
              "system": "http://unitsofmeasure.org"
            }
          }
        ],
        "text": {
          "status": "generated",
          "div": "<div xmlns=\"http://www.w3.org/1999/xhtml\"><table class=\"hl7__eu__lab__report\"><tr><th>Test</th><th>27-Nov-2015</th><th>Reference&#xA0;Range</th><th>Unit</th></tr><tr><td>Sodium [Moles/volume] in Blood</td><td>138.1</td><td>135 - 145</td><td></td><td>mmol/L</td></tr></table></div>"
        },
        "status": "final",
        "subject": {
          "reference": "urn:uuid:5d60230f-0856-4050-8693-a4e3f82e26fc",
          "display": "Victor Lagarde"
        },
        "effectiveDateTime": "2015-11-27T04:48:18Z",
        "specimen": {
          "reference": "urn:uuid:9e0c3bc6-f15b-4896-a837-45fa51eba8f6"
        }
      }
    },
    {
      "fullUrl": "urn:uuid:2d77d23c-c9b1-41f6-96fb-46d4ee2e9e08",
      "resource": {
        "resourceType": "Observation",
        "id": "2d77d23c-c9b1-41f6-96fb-46d4ee2e9e08",
        "meta": {
          "profile": [
            "http://hl7.eu/fhir/laboratory/StructureDefinition/Observation-resultslab-eu-lab"
          ]
        },
        "performer": [
          {
            "display": "The Central European Lab"
          }
        ],
        "category": [
          {
            "coding": [
              {
                "system": "http://terminology.hl7.org/CodeSystem/observation-category",
                "code": "laboratory"
              }
            ]
          }
        ],
        "code": {
          "coding": [
            {
              "code": "6298-4",
              "system": "http://loinc.org",
              "display": "Potassium [Moles/volume] in Blood"
            }
          ],
          "text": "Potassium [Moles/volume] in Blood"
        },
        "valueQuantity": {
          "system": "http://unitsofmeasure.org",
          "value": 3.9,
          "unit": "mmol/L",
          "code": "mmol/L"
        },
        "referenceRange": [
          {
            "low": {
              "value": 3.5,
              "code": "mmol/L",
              "system": "http://unitsofmeasure.org"
            }
          },
          {
            "high": {
              "value": 5.1,
              "code": "mmol/L",
              "system": "http://unitsofmeasure.org"
            }
          }
        ],
        "text": {
          "status": "generated",
          "div": "<div xmlns=\"http://www.w3.org/1999/xhtml\"><table class=\"hl7__eu__lab__report\"><tr><th>Test</th><th>27-Nov-2015</th><th>Reference&#xA0;Range</th><th>Unit</th></tr><tr><td>Potassium [Moles/volume] in Blood</td><td>3.9</td><td>3.5 - 5.1</td><td></td><td>mmol/L</td></tr></table></div>"
        },
        "status": "final",
        "subject": {
          "reference": "urn:uuid:5d60230f-0856-4050-8693-a4e3f82e26fc",
          "display": "Victor Lagarde"
        },
        "effectiveDateTime": "2015-11-27T04:48:18Z",
        "specimen": {
          "reference": "urn:uuid:9e0c3bc6-f15b-4896-a837-45fa51eba8f6"
        }
      }
    },
    {
      "fullUrl": "urn:uuid:2b865dba-b061-4fa3-821d-04e42ed8bb41",
      "resource": {
        "resourceType": "Observation",
        "id": "2b865dba-b061-4fa3-821d-04e42ed8bb41",
        "meta": {
          "profile": [
            "http://hl7.eu/fhir/laboratory/StructureDefinition/Observation-resultslab-eu-lab"
          ]
        },
        "performer": [
          {
            "display": "The Central European Lab"
          }
        ],
        "category": [
          {
            "coding": [
              {
                "system": "http://terminology.hl7.org/CodeSystem/observation-category",
                "code": "laboratory"
              }
            ]
          }
        ],
        "code": {
          "coding": [
            {
              "code": "2069-3",
              "system": "http://loinc.org",
              "display": "Chloride [Moles/volume] in Blood"
            }
          ],
          "text": "Chloride [Moles/volume] in Blood"
        },
        "valueQuantity": {
          "system": "http://unitsofmeasure.org",
          "value": 104.3,
          "unit": "mmol/L",
          "code": "mmol/L"
        },
        "referenceRange": [
          {
            "low": {
              "value": 98,
              "code": "mmol/L",
              "system": "http://unitsofmeasure.org"
            }
          },
          {
            "high": {
              "value": 108,
              "code": "mmol/L",
              "system": "http://unitsofmeasure.org"
            }
          }
        ],
        "text": {
          "status": "generated",
          "div": "<div xmlns=\"http://www.w3.org/1999/xhtml\"><table class=\"hl7__eu__lab__report\"><tr><th>Test</th><th>27-Nov-2015</th><th>Reference&#xA0;Range</th><th>Unit</th></tr><tr><td>Chloride [Moles/volume] in Blood</td><td>104.3</td><td>98 - 108</td><td></td><td>mmol/L</td></tr></table></div>"
        },
        "status": "final",
        "subject": {
          "reference": "urn:uuid:5d60230f-0856-4050-8693-a4e3f82e26fc",
          "display": "Victor Lagarde"
        },
        "effectiveDateTime": "2015-11-27T04:48:18Z",
        "specimen": {
          "reference": "urn:uuid:9e0c3bc6-f15b-4896-a837-45fa51eba8f6"
        }
      }
    },
    {
      "fullUrl": "urn:uuid:bf7f236a-02b4-4901-aae2-02c9dbee49ca",
      "resource": {
        "resourceType": "Observation",
        "id": "bf7f236a-02b4-4901-aae2-02c9dbee49ca",
        "meta": {
          "profile": [
            "http://hl7.eu/fhir/laboratory/StructureDefinition/Observation-resultslab-eu-lab"
          ]
        },
        "performer": [
          {
            "display": "The Central European Lab"
          }
        ],
        "category": [
          {
            "coding": [
              {
                "system": "http://terminology.hl7.org/CodeSystem/observation-category",
                "code": "laboratory"
              }
            ]
          }
        ],
        "code": {
          "coding": [
            {
              "code": "20565-8",
              "system": "http://loinc.org",
              "display": "Carbon dioxide, total [Moles/volume] in Blood"
            }
          ],
          "text": "Carbon dioxide, total [Moles/volume] in Blood"
        },
        "valueQuantity": {
          "system": "http://unitsofmeasure.org",
          "value": 22.6,
          "unit": "mmol/L",
          "code": "mmol/L"
        },
        "referenceRange": [
          {
            "low": {
              "value": 22,
              "code": "mmol/L",
              "system": "http://unitsofmeasure.org"
            }
          },
          {
            "high": {
              "value": 29,
              "code": "mmol/L",
              "system": "http://unitsofmeasure.org"
            }
          }
        ],
        "text": {
          "status": "generated",
          "div": "<div xmlns=\"http://www.w3.org/1999/xhtml\"><table class=\"hl7__eu__lab__report\"><tr><th>Test</th><th>27-Nov-2015</th><th>Reference&#xA0;Range</th><th>Unit</th></tr><tr><td>Carbon dioxide, total [Moles/volume] in Blood</td><td>22.6</td><td>22 - 29</td><td></td><td>mmol/L</td></tr></table></div>"
        },
        "status": "final",
        "subject": {
          "reference": "urn:uuid:5d60230f-0856-4050-8693-a4e3f82e26fc",
          "display": "Victor Lagarde"
        },
        "effectiveDateTime": "2015-11-27T04:48:18Z",
        "specimen": {
          "reference": "urn:uuid:9e0c3bc6-f15b-4896-a837-45fa51eba8f6"
        }
      }
    },
    {
      "fullUrl": "urn:uuid:71333f55-470f-4776-b2d7-ec8cbb7e4200",
      "resource": {
        "resourceType": "Observation",
        "id": "71333f55-470f-4776-b2d7-ec8cbb7e4200",
        "meta": {
          "profile": [
            "http://hl7.eu/fhir/laboratory/StructureDefinition/Observation-resultslab-eu-lab"
          ]
        },
        "performer": [
          {
            "display": "The Central European Lab"
          }
        ],
        "category": [
          {
            "coding": [
              {
                "system": "http://terminology.hl7.org/CodeSystem/observation-category",
                "code": "laboratory"
              }
            ]
          }
        ],
        "code": {
          "coding": [
            {
              "code": "2093-3",
              "system": "http://loinc.org",
              "display": "Cholesterol [Mass/volume] in Serum or Plasma"
            }
          ],
          "text": "Cholesterol [Mass/volume] in Serum or Plasma"
        },
        "valueQuantity": {
          "system": "http://unitsofmeasure.org",
          "value": 231.7,
          "unit": "mg/dL",
          "code": "mg/dL"
        },
        "referenceRange": [
          {
            "low": {
              "value": 0,
              "code": "mg/dL",
              "system": "http://unitsofmeasure.org"
            }
          },
          {
            "high": {
              "value": 200,
              "code": "mg/dL",
              "system": "http://unitsofmeasure.org"
            }
          }
        ],
        "interpretation": [
          {
            "coding": [
              {
                "code": "H",
                "system": "http://terminology.hl7.org/CodeSystem/v3-ObservationInterpretation",
                "display": "High"
              }
            ]
          }
        ],
        "text": {
          "status": "generated",
          "div": "<div xmlns=\"http://www.w3.org/1999/xhtml\"><table class=\"hl7__eu__lab__report\"><tr><th>Test</th><th>27-Nov-2015</th><th>Reference&#xA0;Range</th><th>Unit</th></tr><tr><td>Cholesterol [Mass/volume] in Serum or Plasma</td><td>231.7</td><td>0 - 200</td><td>H</td><td>mg/dL</td></tr></table></div>"
        },
        "status": "final",
        "subject": {
          "reference": "urn:uuid:5d60230f-0856-4050-8693-a4e3f82e26fc",
          "display": "Victor Lagarde"
        },
        "effectiveDateTime": "2015-11-27T04:48:18Z",
        "specimen": {
          "reference": "urn:uuid:f94cb808-0f0f-46fb-82f9-cd34a63a22f0"
        }
      }
    },
    {
      "fullUrl": "urn:uuid:a5ea419f-aff4-49c3-a69e-e99419b942cd",
      "resource": {
        "resourceType": "Observation",
        "id": "a5ea419f-aff4-49c3-a69e-e99419b942cd",
        "meta": {
          "profile": [
            "http://hl7.eu/fhir/laboratory/StructureDefinition/Observation-resultslab-eu-lab"
          ]
        },
        "performer": [
          {
            "display": "The Central European Lab"
          }
        ],
        "category": [
          {
            "coding": [
              {
                "system": "http://terminology.hl7.org/CodeSystem/observation-category",
                "code": "laboratory"
              }
            ]
          }
        ],
        "code": {
          "coding": [
            {
              "code": "2571-8",
              "system": "http://loinc.org",
              "display": "Triglyceride [Mass/volume] in Serum or Plasma"
            }
          ],
          "text": "Triglyceride [Mass/volume] in Serum or Plasma"
        },
        "valueQuantity": {
          "system": "http://unitsofmeasure.org",
          "value": 126.6,
          "unit": "mg/dL",
          "code": "mg/dL"
        },
        "referenceRange": [
          {
            "low": {
              "value": 0,
              "code": "mg/dL",
              "system": "http://unitsofmeasure.org"
            }
          },
          {
            "high": {
              "value": 199,
              "code": "mg/dL",
              "system": "http://unitsofmeasure.org"
            }
          }
        ],
        "text": {
          "status": "generated",
          "div": "<div xmlns=\"http://www.w3.org/1999/xhtml\"><table class=\"hl7__eu__lab__report\"><tr><th>Test</th><th>27-Nov-2015</th><th>Reference&#xA0;Range</th><th>Unit</th></tr><tr><td>Triglyceride [Mass/volume] in Serum or Plasma</td><td>126.6</td><td>0 - 199</td><td></td><td>mg/dL</td></tr></table></div>"
        },
        "status": "final",
        "subject": {
          "reference": "urn:uuid:5d60230f-0856-4050-8693-a4e3f82e26fc",
          "display": "Victor Lagarde"
        },
        "effectiveDateTime": "2015-11-27T04:48:18Z",
        "specimen": {
          "reference": "urn:uuid:f94cb808-0f0f-46fb-82f9-cd34a63a22f0"
        }
      }
    },
    {
      "fullUrl": "urn:uuid:8bea5346-a67c-4b8c-a4c4-8ca2ec96004b",
      "resource": {
        "resourceType": "Observation",
        "id": "8bea5346-a67c-4b8c-a4c4-8ca2ec96004b",
        "meta": {
          "profile": [
            "http://hl7.eu/fhir/laboratory/StructureDefinition/Observation-resultslab-eu-lab"
          ]
        },
        "performer": [
          {
            "display": "The Central European Lab"
          }
        ],
        "category": [
          {
            "coding": [
              {
                "system": "http://terminology.hl7.org/CodeSystem/observation-category",
                "code": "laboratory"
              }
            ]
          }
        ],
        "code": {
          "coding": [
            {
              "code": "18262-6",
              "system": "http://loinc.org",
              "display": "Cholesterol in LDL [Mass/volume] in Serum or Plasma by Direct assay"
            }
          ],
          "text": "Cholesterol in LDL [Mass/volume] in Serum or Plasma by Direct assay"
        },
        "valueQuantity": {
          "system": "http://unitsofmeasure.org",
          "value": 176.2,
          "unit": "mg/dL",
          "code": "mg/dL"
        },
        "referenceRange": [
          {
            "low": {
              "value": 0,
              "code": "mg/dL",
              "system": "http://unitsofmeasure.org"
            }
          },
          {
            "high": {
              "value": 130,
              "code": "mg/dL",
              "system": "http://unitsofmeasure.org"
            }
          }
        ],
        "interpretation": [
          {
            "coding": [
              {
                "code": "H",
                "system": "http://terminology.hl7.org/CodeSystem/v3-ObservationInterpretation",
                "display": "High"
              }
            ]
          }
        ],
        "text": {
          "status": "generated",
          "div": "<div xmlns=\"http://www.w3.org/1999/xhtml\"><table class=\"hl7__eu__lab__report\"><tr><th>Test</th><th>27-Nov-2015</th><th>Reference&#xA0;Range</th><th>Unit</th></tr><tr><td>Cholesterol in LDL [Mass/volume] in Serum or Plasma by Direct assay</td><td>176.2</td><td>0 - 130</td><td>H</td><td>mg/dL</td></tr></table></div>"
        },
        "status": "final",
        "subject": {
          "reference": "urn:uuid:5d60230f-0856-4050-8693-a4e3f82e26fc",
          "display": "Victor Lagarde"
        },
        "effectiveDateTime": "2015-11-27T04:48:18Z",
        "specimen": {
          "reference": "urn:uuid:f94cb808-0f0f-46fb-82f9-cd34a63a22f0"
        }
      }
    },
    {
      "fullUrl": "urn:uuid:defcac6e-661e-487f-be7b-215bf9c389f0",
      "resource": {
        "resourceType": "Observation",
        "id": "defcac6e-661e-487f-be7b-215bf9c389f0",
        "meta": {
          "profile": [
            "http://hl7.eu/fhir/laboratory/StructureDefinition/Observation-resultslab-eu-lab"
          ]
        },
        "performer": [
          {
            "display": "The Central European Lab"
          }
        ],
        "category": [
          {
            "coding": [
              {
                "system": "http://terminology.hl7.org/CodeSystem/observation-category",
                "code": "laboratory"
              }
            ]
          }
        ],
        "code": {
          "coding": [
            {
              "code": "2085-9",
              "system": "http://loinc.org",
              "display": "Cholesterol in HDL [Mass/volume] in Serum or Plasma"
            }
          ],
          "text": "Cholesterol in HDL [Mass/volume] in Serum or Plasma"
        },
        "valueQuantity": {
          "system": "http://unitsofmeasure.org",
          "value": 30.2,
          "unit": "mg/dL",
          "code": "mg/dL"
        },
        "referenceRange": [
          {
            "low": {
              "value": 40,
              "code": "mg/dL",
              "system": "http://unitsofmeasure.org"
            }
          },
          {
            "high": {
              "value": 100,
              "code": "mg/dL",
              "system": "http://unitsofmeasure.org"
            }
          }
        ],
        "interpretation": [
          {
            "coding": [
              {
                "code": "L",
                "system": "http://terminology.hl7.org/CodeSystem/v3-ObservationInterpretation",
                "display": "Low"
              }
            ]
          }
        ],
        "text": {
          "status": "generated",
          "div": "<div xmlns=\"http://www.w3.org/1999/xhtml\"><table class=\"hl7__eu__lab__report\"><tr><th>Test</th><th>27-Nov-2015</th><th>Reference&#xA0;Range</th><th>Unit</th></tr><tr><td>Cholesterol in HDL [Mass/volume] in Serum or Plasma</td><td>30.2</td><td>40 - 100</td><td>L</td><td>mg/dL</td></tr></table></div>"
        },
        "status": "final",
        "subject": {
          "reference": "urn:uuid:5d60230f-0856-4050-8693-a4e3f82e26fc",
          "display": "Victor Lagarde"
        },
        "effectiveDateTime": "2015-11-27T04:48:18Z",
        "specimen": {
          "reference": "urn:uuid:f94cb808-0f0f-46fb-82f9-cd34a63a22f0"
        }
      }
    },
    {
      "fullUrl": "urn:uuid:9aba1c4b-83a2-4edb-8c2c-5de7d1c8f9fa",
      "resource": {
        "resourceType": "Observation",
        "id": "9aba1c4b-83a2-4edb-8c2c-5de7d1c8f9fa",
        "meta": {
          "profile": [
            "http://hl7.eu/fhir/laboratory/StructureDefinition/Observation-resultslab-eu-lab"
          ]
        },
        "performer": [
          {
            "display": "The Central European Lab"
          }
        ],
        "category": [
          {
            "coding": [
              {
                "system": "http://terminology.hl7.org/CodeSystem/observation-category",
                "code": "laboratory"
              }
            ]
          }
        ],
        "code": {
          "coding": [
            {
              "code": "6690-2",
              "system": "http://loinc.org",
              "display": "Leukocytes [#/volume] in Blood by Automated count"
            }
          ],
          "text": "Leukocytes [#/volume] in Blood by Automated count"
        },
        "valueQuantity": {
          "system": "http://unitsofmeasure.org",
          "value": 4.8,
          "unit": "10*3/uL",
          "code": "10*3/uL"
        },
        "referenceRange": [
          {
            "low": {
              "value": 3.4,
              "code": "10*3/uL",
              "system": "http://unitsofmeasure.org"
            }
          },
          {
            "high": {
              "value": 10.6,
              "code": "10*3/uL",
              "system": "http://unitsofmeasure.org"
            }
          }
        ],
        "text": {
          "status": "generated",
          "div": "<div xmlns=\"http://www.w3.org/1999/xhtml\"><table class=\"hl7__eu__lab__report\"><tr><th>Test</th><th>27-Nov-2015</th><th>Reference&#xA0;Range</th><th>Unit</th></tr><tr><td>Leukocytes [#/volume] in Blood by Automated count</td><td>4.8</td><td>3.4 - 10.6</td><td></td><td>10*3/uL</td></tr></table></div>"
        },
        "status": "final",
        "subject": {
          "reference": "urn:uuid:5d60230f-0856-4050-8693-a4e3f82e26fc",
          "display": "Victor Lagarde"
        },
        "effectiveDateTime": "2015-11-27T04:48:18Z",
        "specimen": {
          "reference": "urn:uuid:9e0c3bc6-f15b-4896-a837-45fa51eba8f6"
        }
      }
    },
    {
      "fullUrl": "urn:uuid:a238ec25-b2f0-4d8e-891f-bc387348e7db",
      "resource": {
        "resourceType": "Observation",
        "id": "a238ec25-b2f0-4d8e-891f-bc387348e7db",
        "meta": {
          "profile": [
            "http://hl7.eu/fhir/laboratory/StructureDefinition/Observation-resultslab-eu-lab"
          ]
        },
        "performer": [
          {
            "display": "The Central European Lab"
          }
        ],
        "category": [
          {
            "coding": [
              {
                "system": "http://terminology.hl7.org/CodeSystem/observation-category",
                "code": "laboratory"
              }
            ]
          }
        ],
        "code": {
          "coding": [
            {
              "code": "789-8",
              "system": "http://loinc.org",
              "display": "Erythrocytes [#/volume] in Blood by Automated count"
            }
          ],
          "text": "Erythrocytes [#/volume] in Blood by Automated count"
        },
        "valueQuantity": {
          "system": "http://unitsofmeasure.org",
          "value": 5.5,
          "unit": "10*6/uL",
          "code": "10*6/uL"
        },
        "referenceRange": [
          {
            "low": {
              "value": 4.2,
              "code": "10*6/uL",
              "system": "http://unitsofmeasure.org"
            }
          },
          {
            "high": {
              "value": 6.2,
              "code": "10*6/uL",
              "system": "http://unitsofmeasure.org"
            }
          }
        ],
        "text": {
          "status": "generated",
          "div": "<div xmlns=\"http://www.w3.org/1999/xhtml\"><table class=\"hl7__eu__lab__report\"><tr><th>Test</th><th>27-Nov-2015</th><th>Reference&#xA0;Range</th><th>Unit</th></tr><tr><td>Erythrocytes [#/volume] in Blood by Automated count</td><td>5.5</td><td>4.2 - 6.2</td><td></td><td>10*6/uL</td></tr></table></div>"
        },
        "status": "final",
        "subject": {
          "reference": "urn:uuid:5d60230f-0856-4050-8693-a4e3f82e26fc",
          "display": "Victor Lagarde"
        },
        "effectiveDateTime": "2015-11-27T04:48:18Z",
        "specimen": {
          "reference": "urn:uuid:9e0c3bc6-f15b-4896-a837-45fa51eba8f6"
        }
      }
    },
    {
      "fullUrl": "urn:uuid:564e9da8-4dd2-45b4-b98a-beac77f12315",
      "resource": {
        "resourceType": "Observation",
        "id": "564e9da8-4dd2-45b4-b98a-beac77f12315",
        "meta": {
          "profile": [
            "http://hl7.eu/fhir/laboratory/StructureDefinition/Observation-resultslab-eu-lab"
          ]
        },
        "performer": [
          {
            "display": "The Central European Lab"
          }
        ],
        "category": [
          {
            "coding": [
              {
                "system": "http://terminology.hl7.org/CodeSystem/observation-category",
                "code": "laboratory"
              }
            ]
          }
        ],
        "code": {
          "coding": [
            {
              "code": "718-7",
              "system": "http://loinc.org",
              "display": "Hemoglobin [Mass/volume] in Blood"
            }
          ],
          "text": "Hemoglobin [Mass/volume] in Blood"
        },
        "valueQuantity": {
          "system": "http://unitsofmeasure.org",
          "value": 15.9,
          "unit": "g/dL",
          "code": "g/dL"
        },
        "referenceRange": [
          {
            "low": {
              "value": 13.8,
              "code": "g/dL",
              "system": "http://unitsofmeasure.org"
            }
          },
          {
            "high": {
              "value": 17.5,
              "code": "g/dL",
              "system": "http://unitsofmeasure.org"
            }
          }
        ],
        "text": {
          "status": "generated",
          "div": "<div xmlns=\"http://www.w3.org/1999/xhtml\"><table class=\"hl7__eu__lab__report\"><tr><th>Test</th><th>27-Nov-2015</th><th>Reference&#xA0;Range</th><th>Unit</th></tr><tr><td>Hemoglobin [Mass/volume] in Blood</td><td>15.9</td><td>13.8 - 17.5</td><td></td><td>g/dL</td></tr></table></div>"
        },
        "status": "final",
        "subject": {
          "reference": "urn:uuid:5d60230f-0856-4050-8693-a4e3f82e26fc",
          "display": "Victor Lagarde"
        },
        "effectiveDateTime": "2015-11-27T04:48:18Z",
        "specimen": {
          "reference": "urn:uuid:9e0c3bc6-f15b-4896-a837-45fa51eba8f6"
        }
      }
    },
    {
      "fullUrl": "urn:uuid:445e849b-df3c-4a80-9a35-d97279e1131b",
      "resource": {
        "resourceType": "Observation",
        "id": "445e849b-df3c-4a80-9a35-d97279e1131b",
        "meta": {
          "profile": [
            "http://hl7.eu/fhir/laboratory/StructureDefinition/Observation-resultslab-eu-lab"
          ]
        },
        "performer": [
          {
            "display": "The Central European Lab"
          }
        ],
        "category": [
          {
            "coding": [
              {
                "system": "http://terminology.hl7.org/CodeSystem/observation-category",
                "code": "laboratory"
              }
            ]
          }
        ],
        "code": {
          "coding": [
            {
              "code": "4544-3",
              "system": "http://loinc.org",
              "display": "Hematocrit [Volume Fraction] of Blood by Automated count"
            }
          ],
          "text": "Hematocrit [Volume Fraction] of Blood by Automated count"
        },
        "valueQuantity": {
          "system": "http://unitsofmeasure.org",
          "value": 35.7,
          "unit": "%",
          "code": "%"
        },
        "referenceRange": [
          {
            "low": {
              "value": 38,
              "code": "%",
              "system": "http://unitsofmeasure.org"
            }
          },
          {
            "high": {
              "value": 50,
              "code": "%",
              "system": "http://unitsofmeasure.org"
            }
          }
        ],
        "interpretation": [
          {
            "coding": [
              {
                "code": "L",
                "system": "http://terminology.hl7.org/CodeSystem/v3-ObservationInterpretation",
                "display": "Low"
              }
            ]
          }
        ],
        "text": {
          "status": "generated",
          "div": "<div xmlns=\"http://www.w3.org/1999/xhtml\"><table class=\"hl7__eu__lab__report\"><tr><th>Test</th><th>27-Nov-2015</th><th>Reference&#xA0;Range</th><th>Unit</th></tr><tr><td>Hematocrit [Volume Fraction] of Blood by Automated count</td><td>35.7</td><td>38 - 50</td><td>L</td><td>%</td></tr></table></div>"
        },
        "status": "final",
        "subject": {
          "reference": "urn:uuid:5d60230f-0856-4050-8693-a4e3f82e26fc",
          "display": "Victor Lagarde"
        },
        "effectiveDateTime": "2015-11-27T04:48:18Z",
        "specimen": {
          "reference": "urn:uuid:9e0c3bc6-f15b-4896-a837-45fa51eba8f6"
        }
      }
    },
    {
      "fullUrl": "urn:uuid:e039762b-e7f3-423b-885a-1ef958b88863",
      "resource": {
        "resourceType": "Observation",
        "id": "e039762b-e7f3-423b-885a-1ef958b88863",
        "meta": {
          "profile": [
            "http://hl7.eu/fhir/laboratory/StructureDefinition/Observation-resultslab-eu-lab"
          ]
        },
        "performer": [
          {
            "display": "The Central European Lab"
          }
        ],
        "category": [
          {
            "coding": [
              {
                "system": "http://terminology.hl7.org/CodeSystem/observation-category",
                "code": "laboratory"
              }
            ]
          }
        ],
        "code": {
          "coding": [
            {
              "code": "787-2",
              "system": "http://loinc.org",
              "display": "MCV [Entitic volume] by Automated count"
            }
          ],
          "text": "MCV [Entitic volume] by Automated count"
        },
        "valueQuantity": {
          "system": "http://unitsofmeasure.org",
          "value": 94.4,
          "unit": "fL",
          "code": "fL"
        },
        "referenceRange": [
          {
            "low": {
              "value": 76,
              "code": "fL",
              "system": "http://unitsofmeasure.org"
            }
          },
          {
            "high": {
              "value": 98,
              "code": "fL",
              "system": "http://unitsofmeasure.org"
            }
          }
        ],
        "text": {
          "status": "generated",
          "div": "<div xmlns=\"http://www.w3.org/1999/xhtml\"><table class=\"hl7__eu__lab__report\"><tr><th>Test</th><th>27-Nov-2015</th><th>Reference&#xA0;Range</th><th>Unit</th></tr><tr><td>MCV [Entitic volume] by Automated count</td><td>94.4</td><td>76 - 98</td><td></td><td>fL</td></tr></table></div>"
        },
        "status": "final",
        "subject": {
          "reference": "urn:uuid:5d60230f-0856-4050-8693-a4e3f82e26fc",
          "display": "Victor Lagarde"
        },
        "effectiveDateTime": "2015-11-27T04:48:18Z",
        "specimen": {
          "reference": "urn:uuid:9e0c3bc6-f15b-4896-a837-45fa51eba8f6"
        }
      }
    },
    {
      "fullUrl": "urn:uuid:428f485d-0153-41db-bf17-a786f4a2c4a8",
      "resource": {
        "resourceType": "Observation",
        "id": "428f485d-0153-41db-bf17-a786f4a2c4a8",
        "meta": {
          "profile": [
            "http://hl7.eu/fhir/laboratory/StructureDefinition/Observation-resultslab-eu-lab"
          ]
        },
        "performer": [
          {
            "display": "The Central European Lab"
          }
        ],
        "category": [
          {
            "coding": [
              {
                "system": "http://terminology.hl7.org/CodeSystem/observation-category",
                "code": "laboratory"
              }
            ]
          }
        ],
        "code": {
          "coding": [
            {
              "code": "785-6",
              "system": "http://loinc.org",
              "display": "MCH [Entitic mass] by Automated count"
            }
          ],
          "text": "MCH [Entitic mass] by Automated count"
        },
        "valueQuantity": {
          "system": "http://unitsofmeasure.org",
          "value": 31.7,
          "unit": "pg",
          "code": "pg"
        },
        "referenceRange": [
          {
            "low": {
              "value": 27,
              "code": "pg",
              "system": "http://unitsofmeasure.org"
            }
          },
          {
            "high": {
              "value": 34,
              "code": "pg",
              "system": "http://unitsofmeasure.org"
            }
          }
        ],
        "text": {
          "status": "generated",
          "div": "<div xmlns=\"http://www.w3.org/1999/xhtml\"><table class=\"hl7__eu__lab__report\"><tr><th>Test</th><th>27-Nov-2015</th><th>Reference&#xA0;Range</th><th>Unit</th></tr><tr><td>MCH [Entitic mass] by Automated count</td><td>31.7</td><td>27 - 34</td><td></td><td>pg</td></tr></table></div>"
        },
        "status": "final",
        "subject": {
          "reference": "urn:uuid:5d60230f-0856-4050-8693-a4e3f82e26fc",
          "display": "Victor Lagarde"
        },
        "effectiveDateTime": "2015-11-27T04:48:18Z",
        "specimen": {
          "reference": "urn:uuid:9e0c3bc6-f15b-4896-a837-45fa51eba8f6"
        }
      }
    },
    {
      "fullUrl": "urn:uuid:6903e454-77dc-45af-a30d-3c7b2fa8b83c",
      "resource": {
        "resourceType": "Observation",
        "id": "6903e454-77dc-45af-a30d-3c7b2fa8b83c",
        "meta": {
          "profile": [
            "http://hl7.eu/fhir/laboratory/StructureDefinition/Observation-resultslab-eu-lab"
          ]
        },
        "performer": [
          {
            "display": "The Central European Lab"
          }
        ],
        "category": [
          {
            "coding": [
              {
                "system": "http://terminology.hl7.org/CodeSystem/observation-category",
                "code": "laboratory"
              }
            ]
          }
        ],
        "code": {
          "coding": [
            {
              "code": "786-4",
              "system": "http://loinc.org",
              "display": "MCHC [Mass/volume] by Automated count"
            }
          ],
          "text": "MCHC [Mass/volume] by Automated count"
        },
        "valueQuantity": {
          "system": "http://unitsofmeasure.org",
          "value": 35.9,
          "unit": "g/dL",
          "code": "g/dL"
        },
        "referenceRange": [
          {
            "low": {
              "value": 31,
              "code": "g/dL",
              "system": "http://unitsofmeasure.org"
            }
          },
          {
            "high": {
              "value": 37,
              "code": "g/dL",
              "system": "http://unitsofmeasure.org"
            }
          }
        ],
        "text": {
          "status": "generated",
          "div": "<div xmlns=\"http://www.w3.org/1999/xhtml\"><table class=\"hl7__eu__lab__report\"><tr><th>Test</th><th>27-Nov-2015</th><th>Reference&#xA0;Range</th><th>Unit</th></tr><tr><td>MCHC [Mass/volume] by Automated count</td><td>35.9</td><td>31 - 37</td><td></td><td>g/dL</td></tr></table></div>"
        },
        "status": "final",
        "subject": {
          "reference": "urn:uuid:5d60230f-0856-4050-8693-a4e3f82e26fc",
          "display": "Victor Lagarde"
        },
        "effectiveDateTime": "2015-11-27T04:48:18Z",
        "specimen": {
          "reference": "urn:uuid:9e0c3bc6-f15b-4896-a837-45fa51eba8f6"
        }
      }
    },
    {
      "fullUrl": "urn:uuid:7721dc62-a54a-4766-9c61-18f3507b7f6d",
      "resource": {
        "resourceType": "Observation",
        "id": "7721dc62-a54a-4766-9c61-18f3507b7f6d",
        "meta": {
          "profile": [
            "http://hl7.eu/fhir/laboratory/StructureDefinition/Observation-resultslab-eu-lab"
          ]
        },
        "performer": [
          {
            "display": "The Central European Lab"
          }
        ],
        "category": [
          {
            "coding": [
              {
                "system": "http://terminology.hl7.org/CodeSystem/observation-category",
                "code": "laboratory"
              }
            ]
          }
        ],
        "code": {
          "coding": [
            {
              "code": "21000-5",
              "system": "http://loinc.org",
              "display": "Erythrocyte distribution width [Entitic volume] by Automated count"
            }
          ],
          "text": "Erythrocyte distribution width [Entitic volume] by Automated count"
        },
        "valueQuantity": {
          "system": "http://unitsofmeasure.org",
          "value": 39.4,
          "unit": "fL",
          "code": "fL"
        },
        "referenceRange": [
          {
            "low": {
              "value": 36,
              "code": "fL",
              "system": "http://unitsofmeasure.org"
            }
          },
          {
            "high": {
              "value": 56,
              "code": "fL",
              "system": "http://unitsofmeasure.org"
            }
          }
        ],
        "text": {
          "status": "generated",
          "div": "<div xmlns=\"http://www.w3.org/1999/xhtml\"><table class=\"hl7__eu__lab__report\"><tr><th>Test</th><th>27-Nov-2015</th><th>Reference&#xA0;Range</th><th>Unit</th></tr><tr><td>Erythrocyte distribution width [Entitic volume] by Automated count</td><td>39.4</td><td>36 - 56</td><td></td><td>fL</td></tr></table></div>"
        },
        "status": "final",
        "subject": {
          "reference": "urn:uuid:5d60230f-0856-4050-8693-a4e3f82e26fc",
          "display": "Victor Lagarde"
        },
        "effectiveDateTime": "2015-11-27T04:48:18Z",
        "specimen": {
          "reference": "urn:uuid:9e0c3bc6-f15b-4896-a837-45fa51eba8f6"
        }
      }
    },
    {
      "fullUrl": "urn:uuid:9e023adb-f19f-4df8-aff3-c4a80fa4d160",
      "resource": {
        "resourceType": "Observation",
        "id": "9e023adb-f19f-4df8-aff3-c4a80fa4d160",
        "meta": {
          "profile": [
            "http://hl7.eu/fhir/laboratory/StructureDefinition/Observation-resultslab-eu-lab"
          ]
        },
        "performer": [
          {
            "display": "The Central European Lab"
          }
        ],
        "category": [
          {
            "coding": [
              {
                "system": "http://terminology.hl7.org/CodeSystem/observation-category",
                "code": "laboratory"
              }
            ]
          }
        ],
        "code": {
          "coding": [
            {
              "code": "777-3",
              "system": "http://loinc.org",
              "display": "Platelets [#/volume] in Blood by Automated count"
            }
          ],
          "text": "Platelets [#/volume] in Blood by Automated count"
        },
        "valueQuantity": {
          "system": "http://unitsofmeasure.org",
          "value": 423,
          "unit": "10*3/uL",
          "code": "10*3/uL"
        },
        "referenceRange": [
          {
            "low": {
              "value": 150,
              "code": "10*3/uL",
              "system": "http://unitsofmeasure.org"
            }
          },
          {
            "high": {
              "value": 363,
              "code": "10*3/uL",
              "system": "http://unitsofmeasure.org"
            }
          }
        ],
        "interpretation": [
          {
            "coding": [
              {
                "code": "H",
                "system": "http://terminology.hl7.org/CodeSystem/v3-ObservationInterpretation",
                "display": "High"
              }
            ]
          }
        ],
        "text": {
          "status": "generated",
          "div": "<div xmlns=\"http://www.w3.org/1999/xhtml\"><table class=\"hl7__eu__lab__report\"><tr><th>Test</th><th>27-Nov-2015</th><th>Reference&#xA0;Range</th><th>Unit</th></tr><tr><td>Platelets [#/volume] in Blood by Automated count</td><td>423.0</td><td>150 - 363</td><td>H</td><td>10*3/uL</td></tr></table></div>"
        },
        "status": "final",
        "subject": {
          "reference": "urn:uuid:5d60230f-0856-4050-8693-a4e3f82e26fc",
          "display": "Victor Lagarde"
        },
        "effectiveDateTime": "2015-11-27T04:48:18Z",
        "specimen": {
          "reference": "urn:uuid:9e0c3bc6-f15b-4896-a837-45fa51eba8f6"
        }
      }
    },
    {
      "fullUrl": "urn:uuid:79b0d123-fa81-4e5c-b98e-41aa930eff7c",
      "resource": {
        "resourceType": "Observation",
        "id": "79b0d123-fa81-4e5c-b98e-41aa930eff7c",
        "meta": {
          "profile": [
            "http://hl7.eu/fhir/laboratory/StructureDefinition/Observation-resultslab-eu-lab"
          ]
        },
        "performer": [
          {
            "display": "The Central European Lab"
          }
        ],
        "category": [
          {
            "coding": [
              {
                "system": "http://terminology.hl7.org/CodeSystem/observation-category",
                "code": "laboratory"
              }
            ]
          }
        ],
        "code": {
          "coding": [
            {
              "code": "32207-3",
              "system": "http://loinc.org",
              "display": "Platelet distribution width [Entitic volume] in Blood by Automated count"
            }
          ],
          "text": "Platelet distribution width [Entitic volume] in Blood by Automated count"
        },
        "valueQuantity": {
          "system": "http://unitsofmeasure.org",
          "value": 309.1,
          "unit": "fL",
          "code": "fL"
        },
        "referenceRange": [
          {
            "low": {
              "value": 13.4,
              "code": "fL",
              "system": "http://unitsofmeasure.org"
            }
          },
          {
            "high": {
              "value": 17.4,
              "code": "fL",
              "system": "http://unitsofmeasure.org"
            }
          }
        ],
        "interpretation": [
          {
            "coding": [
              {
                "code": "H",
                "system": "http://terminology.hl7.org/CodeSystem/v3-ObservationInterpretation",
                "display": "High"
              }
            ]
          }
        ],
        "text": {
          "status": "generated",
          "div": "<div xmlns=\"http://www.w3.org/1999/xhtml\"><table class=\"hl7__eu__lab__report\"><tr><th>Test</th><th>27-Nov-2015</th><th>Reference&#xA0;Range</th><th>Unit</th></tr><tr><td>Platelet distribution width [Entitic volume] in Blood by Automated count</td><td>309.1</td><td>13.4 - 17.4</td><td>H</td><td>fL</td></tr></table></div>"
        },
        "status": "final",
        "subject": {
          "reference": "urn:uuid:5d60230f-0856-4050-8693-a4e3f82e26fc",
          "display": "Victor Lagarde"
        },
        "effectiveDateTime": "2015-11-27T04:48:18Z",
        "specimen": {
          "reference": "urn:uuid:9e0c3bc6-f15b-4896-a837-45fa51eba8f6"
        }
      }
    },
    {
      "fullUrl": "urn:uuid:d7bd05aa-8e8f-4d53-9ff3-aa3d82cd301c",
      "resource": {
        "resourceType": "Observation",
        "id": "d7bd05aa-8e8f-4d53-9ff3-aa3d82cd301c",
        "meta": {
          "profile": [
            "http://hl7.eu/fhir/laboratory/StructureDefinition/Observation-resultslab-eu-lab"
          ]
        },
        "performer": [
          {
            "display": "The Central European Lab"
          }
        ],
        "category": [
          {
            "coding": [
              {
                "system": "http://terminology.hl7.org/CodeSystem/observation-category",
                "code": "laboratory"
              }
            ]
          }
        ],
        "code": {
          "coding": [
            {
              "code": "32623-1",
              "system": "http://loinc.org",
              "display": "Platelet mean volume [Entitic volume] in Blood by Automated count"
            }
          ],
          "text": "Platelet mean volume [Entitic volume] in Blood by Automated count"
        },
        "valueQuantity": {
          "system": "http://unitsofmeasure.org",
          "value": 10.6,
          "unit": "fL",
          "code": "fL"
        },
        "referenceRange": [
          {
            "low": {
              "value": 7.2,
              "code": "fL",
              "system": "http://unitsofmeasure.org"
            }
          },
          {
            "high": {
              "value": 13.5,
              "code": "fL",
              "system": "http://unitsofmeasure.org"
            }
          }
        ],
        "text": {
          "status": "generated",
          "div": "<div xmlns=\"http://www.w3.org/1999/xhtml\"><table class=\"hl7__eu__lab__report\"><tr><th>Test</th><th>27-Nov-2015</th><th>Reference&#xA0;Range</th><th>Unit</th></tr><tr><td>Platelet mean volume [Entitic volume] in Blood by Automated count</td><td>10.6</td><td>7.2 - 13.5</td><td></td><td>fL</td></tr></table></div>"
        },
        "status": "final",
        "subject": {
          "reference": "urn:uuid:5d60230f-0856-4050-8693-a4e3f82e26fc",
          "display": "Victor Lagarde"
        },
        "effectiveDateTime": "2015-11-27T04:48:18Z",
        "specimen": {
          "reference": "urn:uuid:9e0c3bc6-f15b-4896-a837-45fa51eba8f6"
        }
      }
    },
    {
      "fullUrl": "urn:uuid:db8e5af6-0d0a-450f-bdf5-2dbd1a820ef6",
      "resource": {
        "resourceType": "Device",
        "id": "db8e5af6-0d0a-450f-bdf5-2dbd1a820ef6",
        "deviceName": [
          {
            "name": "SYNDERAI Synthetic Generator",
            "type": "manufacturer-name"
          }
        ],
        "version": [
          {
            "value": "5.0"
          }
        ],
        "text": {
          "status": "generated",
          "div": "<div xmlns=\"http://www.w3.org/1999/xhtml\">SYNDERAI Synthetic Generator v5.0</div>"
        },
        "status": "active\"",
        "distinctIdentifier": "synderai-generator-50",
        "manufacturer": "SYNDERAI Project"
      }
    },
    {
      "fullUrl": "urn:uuid:f34dd4b7-6509-4c23-b34a-9093586fc6ca",
      "resource": {
        "resourceType": "Provenance",
        "id": "f34dd4b7-6509-4c23-b34a-9093586fc6ca",
        "target": [
          {
            "reference": "Patient/5d60230f-0856-4050-8693-a4e3f82e26fc"
          },
          {
            "reference": "Bundle/c85cf7f3-3a41-421d-8dac-3191095dc79f"
          },
          {
            "reference": "Composition/ca7321d1-4edc-4b9a-9529-3cf84dd2dd7d"
          },
          {
            "reference": "PractitionerRole/6e028eac-270f-4f3f-b8e0-8c27d697926e"
          },
          {
            "reference": "Practitioner/60cd7219-198b-4a1c-bd88-a3f245c24527"
          },
          {
            "reference": "PractitionerRole/e3967ea9-f9f2-469c-a53b-77d404f47340"
          },
          {
            "reference": "Organization/8421796b-16d9-4ad2-aa81-7cc2e166dad7"
          }
        ],
        "activity": {
          "text": "Synthetic Example Data Generation"
        },
        "policy": [
          "https://synderai.net/synderai-synthetic-data-policy"
        ],
        "agent": [
          {
            "type": {
              "text": "author"
            },
            "who": {
              "reference": "Device/db8e5af6-0d0a-450f-bdf5-2dbd1a820ef6"
            }
          }
        ],
        "reason": [
          {
            "text": "Interoperability Testing and Training (non-clinical use)"
          }
        ],
        "text": {
          "status": "generated",
          "div": "<div xmlns=\"http://www.w3.org/1999/xhtml\">Provenance for SYNDERAI Synthetic Example Data Resource</div>"
        },
        "recorded": "2015-11-27T05:48:18Z"
      }
    },
    {
      "fullUrl": "urn:uuid:6e028eac-270f-4f3f-b8e0-8c27d697926e",
      "resource": {
        "resourceType": "PractitionerRole",
        "id": "6e028eac-270f-4f3f-b8e0-8c27d697926e",
        "meta": {
          "profile": [
            "http://hl7.eu/fhir/base/StructureDefinition/practitionerRole-eu"
          ]
        },
        "text": {
          "status": "generated",
          "div": "<div xmlns=\"http://www.w3.org/1999/xhtml\">Laboratory Role Id: 6e028eac-270f-4f3f-b8e0-8c27d697926e</div>"
        },
        "practitioner": {
          "reference": "urn:uuid:60cd7219-198b-4a1c-bd88-a3f245c24527"
        }
      }
    },
    {
      "fullUrl": "urn:uuid:60cd7219-198b-4a1c-bd88-a3f245c24527",
      "resource": {
        "resourceType": "Practitioner",
        "id": "60cd7219-198b-4a1c-bd88-a3f245c24527",
        "meta": {
          "profile": [
            "http://hl7.eu/fhir/base/StructureDefinition/practitioner-eu"
          ]
        },
        "identifier": [
          {
            "assigner": {
              "display": "HL7 Europe"
            },
            "system": "urn:oid:2.16.840.1.113883.2.51.999",
            "value": "ec51c610-224a-4df1-8e23-77a46d99dc81"
          }
        ],
        "name": [
          {
            "prefix": [
              "dr"
            ],
            "given": [
              "Ex"
            ],
            "family": "Ample"
          }
        ],
        "address": [
          {
            "line": [
              "Laboratoire Central Europenne",
              "Boulevard du Jardin Botanique 32"
            ],
            "postalCode": "1000",
            "city": "Brussels",
            "country": "Belgium"
          }
        ],
        "text": {
          "status": "generated",
          "div": "<div xmlns=\"http://www.w3.org/1999/xhtml\">Laboratory: Laboratoire Central Europenne, 1000 Brussels, Belgium</div>"
        }
      }
    }
  ],
  "type": "document",
  "timestamp": "2015-11-27T05:48:18Z"
}
