{
  "resourceType": "Bundle",
  "id": "799fb776-cc56-45d0-99f1-8301bf27d466",
  "meta": {
    "profile": [
      "http://hl7.eu/fhir/laboratory/StructureDefinition/Bundle-eu-lab"
    ]
  },
  "identifier": {
    "assigner": {
      "display": "HL7 Europe"
    },
    "system": "urn:oid:2.16.840.1.113883.2.51.999",
    "value": "c9a5d1b6-123d-44ef-8b0b-d76552f589c2"
  },
  "entry": [
    {
      "fullUrl": "urn:uuid:1ac90e5b-4ef4-455c-a750-679fd1457a57",
      "resource": {
        "resourceType": "Composition",
        "id": "1ac90e5b-4ef4-455c-a750-679fd1457a57",
        "meta": {
          "profile": [
            "http://hl7.eu/fhir/laboratory/StructureDefinition/Composition-eu-lab"
          ]
        },
        "identifier": {
          "assigner": {
            "display": "HL7 Europe"
          },
          "system": "urn:oid:2.16.840.1.113883.2.51.999",
          "value": "c9e45eb7-f45b-4416-9600-fc546fd185ed"
        },
        "author": [
          {
            "reference": "urn:uuid:d8e3ed10-73b7-4784-8182-5ed58c1840a9"
          }
        ],
        "category": [
          {
            "coding": [
              {
                "code": "26436-6",
                "system": "http://loinc.org",
                "display": "Laboratory studies (set)"
              }
            ]
          }
        ],
        "type": {
          "coding": [
            {
              "code": "11502-2",
              "system": "http://loinc.org",
              "display": "Laboratory report"
            }
          ],
          "text": "Laboratory Report"
        },
        "section": [
          {
            "code": {
              "coding": [
                {
                  "code": "26436-6",
                  "system": "http://loinc.org",
                  "display": "Laboratory studies (set)"
                }
              ],
              "text": "Laboratory studies"
            },
            "section": [
              {
                "code": {
                  "coding": [
                    {
                      "code": "$18723-7",
                      "system": "http://loinc.org",
                      "display": "Hematology studies (set)"
                    }
                  ],
                  "text": "Hematology"
                },
                "entry": [
                  {
                    "reference": "urn:uuid:609e6d68-bc21-40cc-983c-619c454bcafb"
                  },
                  {
                    "reference": "urn:uuid:7bb030e3-57c5-4e42-b6fd-884d5baacbcb"
                  },
                  {
                    "reference": "urn:uuid:a6dedba9-e1e5-4aaa-827f-f93f2b9049d6"
                  },
                  {
                    "reference": "urn:uuid:04d7264b-ed2e-4a28-8769-bafdf9b3cebc"
                  },
                  {
                    "reference": "urn:uuid:fbb0d7c9-8de3-4c9a-b1af-126c65c21589"
                  },
                  {
                    "reference": "urn:uuid:57061a2b-da4b-47b3-bbfd-7c1cbbabbff7"
                  },
                  {
                    "reference": "urn:uuid:324a953f-74ea-4fd7-baeb-5b93cbe29262"
                  },
                  {
                    "reference": "urn:uuid:22e9c672-2df7-4b76-b26b-7e0eb07df82e"
                  },
                  {
                    "reference": "urn:uuid:58681ed9-8c84-41bc-98f4-ebe657a16202"
                  },
                  {
                    "reference": "urn:uuid:0a369a6c-5dfe-444f-9435-ab6a1d985d2d"
                  },
                  {
                    "reference": "urn:uuid:8f15511c-118a-441f-9b7e-1959e6bfe8be"
                  }
                ],
                "text": {
                  "status": "generated",
                  "div": "<div xmlns=\"http://www.w3.org/1999/xhtml\"><h3>Hematology</h3><table class=\"hl7__eu__lab__report\"><thead><tr><th>Test</th><th>23-MAY-2020</th><th>Reference&#xA0;Range</th><th>Unit</th></tr></thead><tbody><tr><td>Leukocytes [#/volume] in Blood by Automated count</td><td>6.0</td><td>4 - 11</td><td>10*3/uL</td></tr><tr><td>Erythrocytes [#/volume] in Blood by Automated count</td><td>5.1</td><td>3.8 - 5.7</td><td>10*6/uL</td></tr><tr><td>Hemoglobin [Mass/volume] in Blood</td><td>15.7</td><td>12 - 16</td><td>g/dL</td></tr><tr><td>Hematocrit [Volume Fraction] of Blood by Automated count</td><td>44.3</td><td>38 - 56</td><td>%</td></tr><tr><td>MCV [Entitic volume] by Automated count</td><td>87.6</td><td>78 - 98</td><td>fL</td></tr><tr><td>MCH [Entitic mass] by Automated count</td><td>31.7</td><td>27 - 34</td><td>pg</td></tr><tr><td>MCHC [Mass/volume] by Automated count</td><td><strong>35.2 H</strong></td><td>32 - 35</td><td>g/dL</td></tr><tr><td>Erythrocyte distribution width [Entitic volume] by Automated count</td><td>39.8</td><td>36 - 55</td><td>fL</td></tr><tr><td>Platelets [#/volume] in Blood by Automated count</td><td><strong>435.2 H</strong></td><td>157 - 415</td><td>10*3/uL</td></tr><tr><td>Platelet distribution width [Entitic volume] in Blood by Automated count</td><td><strong>245.0 H</strong></td><td>13.4 - 17.4</td><td>fL</td></tr><tr><td>Platelet mean volume [Entitic volume] in Blood by Automated count</td><td>9.6</td><td>7.4 - 12</td><td>fL</td></tr></tbody></table></div>"
                },
                "title": "Hematology"
              },
              {
                "code": {
                  "coding": [
                    {
                      "code": "$18719-5",
                      "system": "http://loinc.org",
                      "display": "Chemistry studies (set)"
                    }
                  ],
                  "text": "Chemistry"
                },
                "entry": [
                  {
                    "reference": "urn:uuid:1febaf45-2278-4df3-8dc4-03759c1bfe60"
                  },
                  {
                    "reference": "urn:uuid:77800215-756a-4959-a197-7acb114c3676"
                  },
                  {
                    "reference": "urn:uuid:1029a745-cb32-4fa7-98c4-4f5205a5d4fb"
                  },
                  {
                    "reference": "urn:uuid:dbe620cb-158e-4e0c-8a73-1461a42459ce"
                  }
                ],
                "text": {
                  "status": "generated",
                  "div": "<div xmlns=\"http://www.w3.org/1999/xhtml\"><h3>Chemistry</h3><table class=\"hl7__eu__lab__report\"><thead><tr><th>Test</th><th>23-MAY-2020</th><th>Reference&#xA0;Range</th><th>Unit</th></tr></thead><tbody><tr><td>Cholesterol [Mass/volume] in Serum or Plasma</td><td><strong>268.3 H</strong></td><td>130 - 200</td><td>mg/dL</td></tr><tr><td>Triglyceride [Mass/volume] in Serum or Plasma</td><td>141.6</td><td>0 - 199</td><td>mg/dL</td></tr><tr><td>Cholesterol in LDL [Mass/volume] in Serum or Plasma by Direct assay</td><td><strong>185.2 H</strong></td><td>0 - 130</td><td>mg/dL</td></tr><tr><td>Cholesterol in HDL [Mass/volume] in Serum or Plasma</td><td>54.8</td><td>50 - 100</td><td>mg/dL</td></tr></tbody></table></div>"
                },
                "title": "Chemistry"
              }
            ],
            "title": "Laboratory Report"
          },
          {
            "text": {
              "status": "generated",
              "div": "<div xmlns=\"http://www.w3.org/1999/xhtml\"><h3>Annotation</h3><table class=\"hl7__eu__lab__report\"><tr><th>Conclusion and Recommendations based on this report and previous findings known to us</th></tr><tr><td>The patient shows elevated total and LDL cholesterol, indicating increased cardiovascular risk. Platelet count and platelet distribution width are also elevated, which may suggest reactive thrombocytosis or underlying inflammation but should be correlated clinically. Other hematological parameters are within normal limits. Lipid management and further evaluation of platelet abnormalities are recommended.</td></tr></table></div>"
            },
            "code": {
              "coding": [
                {
                  "system": "http://loinc.org",
                  "code": "48767-8",
                  "display": "Annotation comment"
                }
              ]
            },
            "title": "Annotation comment"
          }
        ],
        "status": "final",
        "subject": {
          "reference": "urn:uuid:4ffc12f6-3d70-4590-861f-95a1155f7ee7",
          "display": "Aniela Prażmo"
        },
        "date": "2020-05-23T15:25:25Z",
        "title": "Laboratory Report",
        "confidentiality": "N"
      }
    },
    {
      "fullUrl": "urn:uuid:0fa03b71-4380-43a1-81d8-4324b273379c",
      "resource": {
        "resourceType": "DiagnosticReport",
        "id": "0fa03b71-4380-43a1-81d8-4324b273379c",
        "meta": {
          "profile": [
            "http://hl7.eu/fhir/laboratory/StructureDefinition/DiagnosticReport-eu-lab"
          ]
        },
        "identifier": [
          {
            "assigner": {
              "display": "HL7 Europe"
            },
            "system": "urn:oid:2.16.840.1.113883.2.51.999",
            "value": "be707bf6-d623-44c2-bbd5-894a783685a7"
          }
        ],
        "extension": [
          {
            "url": "http://hl7.org/fhir/5.0/StructureDefinition/extension-DiagnosticReport.composition",
            "valueReference": {
              "reference": "urn:uuid:c9e45eb7-f45b-4416-9600-fc546fd185ed"
            }
          }
        ],
        "category": [
          {
            "coding": [
              {
                "code": "26436-6",
                "system": "http://loinc.org",
                "display": "Laboratory studies (set)"
              }
            ]
          }
        ],
        "specimen": [
          {
            "reference": "urn:uuid:42f9ebca-fd3d-45aa-9c29-b8af572e31e6"
          },
          {
            "reference": "urn:uuid:212bacce-419d-4d38-b186-ec313ecb6d31"
          },
          {
            "reference": "urn:uuid:212bacce-419d-4d38-b186-ec313ecb6d31"
          }
        ],
        "result": [
          {
            "reference": "urn:uuid:1febaf45-2278-4df3-8dc4-03759c1bfe60"
          },
          {
            "reference": "urn:uuid:77800215-756a-4959-a197-7acb114c3676"
          },
          {
            "reference": "urn:uuid:1029a745-cb32-4fa7-98c4-4f5205a5d4fb"
          },
          {
            "reference": "urn:uuid:dbe620cb-158e-4e0c-8a73-1461a42459ce"
          },
          {
            "reference": "urn:uuid:609e6d68-bc21-40cc-983c-619c454bcafb"
          },
          {
            "reference": "urn:uuid:7bb030e3-57c5-4e42-b6fd-884d5baacbcb"
          },
          {
            "reference": "urn:uuid:a6dedba9-e1e5-4aaa-827f-f93f2b9049d6"
          },
          {
            "reference": "urn:uuid:04d7264b-ed2e-4a28-8769-bafdf9b3cebc"
          },
          {
            "reference": "urn:uuid:fbb0d7c9-8de3-4c9a-b1af-126c65c21589"
          },
          {
            "reference": "urn:uuid:57061a2b-da4b-47b3-bbfd-7c1cbbabbff7"
          },
          {
            "reference": "urn:uuid:324a953f-74ea-4fd7-baeb-5b93cbe29262"
          },
          {
            "reference": "urn:uuid:22e9c672-2df7-4b76-b26b-7e0eb07df82e"
          },
          {
            "reference": "urn:uuid:58681ed9-8c84-41bc-98f4-ebe657a16202"
          },
          {
            "reference": "urn:uuid:0a369a6c-5dfe-444f-9435-ab6a1d985d2d"
          },
          {
            "reference": "urn:uuid:8f15511c-118a-441f-9b7e-1959e6bfe8be"
          }
        ],
        "status": "registered",
        "code": {
          "coding": [
            {
              "code": "11502-2",
              "system": "http://loinc.org",
              "display": "Laboratory report"
            }
          ]
        },
        "subject": {
          "reference": "urn:uuid:4ffc12f6-3d70-4590-861f-95a1155f7ee7",
          "display": "Aniela Prażmo"
        }
      }
    },
    {
      "fullUrl": "urn:uuid:4ffc12f6-3d70-4590-861f-95a1155f7ee7",
      "resource": {
        "resourceType": "Patient",
        "id": "4ffc12f6-3d70-4590-861f-95a1155f7ee7",
        "meta": {
          "security": [
            {
              "system": "http://terminology.hl7.org/CodeSystem/v3-ActReason",
              "code": "HTEST"
            },
            {
              "system": "http://terminology.hl7.org/CodeSystem/v3-ActReason",
              "code": "TRAIN"
            }
          ],
          "tag": [
            {
              "system": "https://synderai.net/fhir/CodeSystem/tags",
              "code": "synthetic",
              "display": "SYNDERAI Synthetic data"
            }
          ],
          "profile": [
            "http://hl7.eu/fhir/base/StructureDefinition/patient-eu-core"
          ]
        },
        "identifier": [
          {
            "type": {
              "coding": [
                {
                  "code": "PT",
                  "system": "http://terminology.hl7.org/CodeSystem/v2-0203"
                }
              ]
            },
            "system": "http://ec.europa.eu/identifier/eci",
            "value": "9657-869171-7"
          },
          {
            "type": {
              "coding": [
                {
                  "code": "MR",
                  "system": "http://terminology.hl7.org/CodeSystem/v2-0203"
                }
              ]
            },
            "system": "http://local.setting.eu/identifier",
            "value": "ab00158c-e2d0-01e4-6cf5-730949937551"
          }
        ],
        "name": [
          {
            "family": "Prażmo"
          },
          {
            "given": [
              "Aniela"
            ]
          },
          {
            "text": "Aniela Prażmo"
          }
        ],
        "address": [
          {
            "line": [
              "pl. Kołłątaja 62/43"
            ],
            "use": "home",
            "type": "physical",
            "postalCode": "97-200",
            "city": "Tomaszów Mazowiecki",
            "country": "Poland"
          }
        ],
        "telecom": [
          {
            "system": "phone",
            "value": "+48 782 809 233"
          }
        ],
        "extension": [
          {
            "url": "http://hl7.org/fhir/StructureDefinition/patient-nationality",
            "valueCodeableConcept": {
              "coding": [
                {
                  "code": "PL",
                  "system": "http://hl7.org/fhir/ValueSet/country"
                }
              ]
            }
          }
        ],
        "text": {
          "status": "generated",
          "div": "<div xmlns=\"http://www.w3.org/1999/xhtml\"><table class=\"hl7__ips\"><tr><td>Aniela Prażmo</td><td>female</td><td>08-Feb-1941</td></tr></table></div>"
        },
        "gender": "female",
        "birthDate": "1941-02-08"
      }
    },
    {
      "fullUrl": "urn:uuid:a04c578d-5f44-4313-8daa-fce9854bc369",
      "resource": {
        "resourceType": "ServiceRequest",
        "id": "a04c578d-5f44-4313-8daa-fce9854bc369",
        "meta": {
          "profile": [
            "http://hl7.eu/fhir/laboratory/StructureDefinition/ServiceRequest-eu-lab"
          ]
        },
        "identifier": [
          {
            "system": "http://example.org",
            "value": "c7b2588d-d628-4fb0-8d64-5532efd66c1b"
          }
        ],
        "specimen": [
          {
            "reference": "urn:uuid:42f9ebca-fd3d-45aa-9c29-b8af572e31e6"
          },
          {
            "reference": "urn:uuid:212bacce-419d-4d38-b186-ec313ecb6d31"
          }
        ],
        "reasonCode": [
          {
            "coding": [
              {
                "code": "64859006",
                "system": "http://snomed.info/sct",
                "display": "Osteoporosis"
              }
            ]
          },
          {
            "coding": [
              {
                "code": "55822004",
                "system": "http://snomed.info/sct",
                "display": "Hyperlipidemia"
              }
            ]
          },
          {
            "coding": [
              {
                "code": "414545008",
                "system": "http://snomed.info/sct",
                "display": "Ischemic heart disease"
              }
            ]
          },
          {
            "coding": [
              {
                "code": "59621000",
                "system": "http://snomed.info/sct",
                "display": "Essential hypertension"
              }
            ]
          },
          {
            "coding": [
              {
                "code": "40055000",
                "system": "http://snomed.info/sct",
                "display": "Chronic sinusitis"
              }
            ]
          }
        ],
        "status": "active",
        "intent": "order",
        "code": {
          "coding": [
            {
              "code": "108252007",
              "system": "http://snomed.info/sct",
              "display": "Laboratory procedure"
            }
          ]
        },
        "subject": {
          "reference": "urn:uuid:4ffc12f6-3d70-4590-861f-95a1155f7ee7",
          "display": "Aniela Prażmo"
        },
        "requester": {
          "reference": "urn:uuid:c1fcf8a3-41dc-4f1f-8d12-be838eee07af"
        }
      }
    },
    {
      "fullUrl": "urn:uuid:c1fcf8a3-41dc-4f1f-8d12-be838eee07af",
      "resource": {
        "resourceType": "PractitionerRole",
        "id": "c1fcf8a3-41dc-4f1f-8d12-be838eee07af",
        "meta": {
          "profile": [
            "http://hl7.eu/fhir/base/StructureDefinition/practitionerRole-eu"
          ]
        },
        "text": {
          "status": "generated",
          "div": "<div xmlns=\"http://www.w3.org/1999/xhtml\">Provider Role Id: c1fcf8a3-41dc-4f1f-8d12-be838eee07af</div>"
        },
        "organization": {
          "reference": "urn:uuid:24cae12a-f90a-41a0-abd4-a8b4464d98e4"
        }
      }
    },
    {
      "fullUrl": "urn:uuid:24cae12a-f90a-41a0-abd4-a8b4464d98e4",
      "resource": {
        "resourceType": "Organization",
        "id": "24cae12a-f90a-41a0-abd4-a8b4464d98e4",
        "meta": {
          "profile": [
            "http://hl7.eu/fhir/base/StructureDefinition/organization-eu"
          ]
        },
        "identifier": [
          {
            "assigner": {
              "display": "HL7 Europe"
            },
            "system": "urn:oid:2.16.840.1.113883.2.51.999",
            "value": "844eaa03-ee36-4b5f-8113-995531678c29"
          }
        ],
        "address": [
          {
            "city": "Tomaszów Mazowiecki",
            "postalCode": "97-200",
            "country": "Poland"
          }
        ],
        "text": {
          "status": "generated",
          "div": "<div xmlns=\"http://www.w3.org/1999/xhtml\">Provider Organization: Poradnia rehabilitacyjna</div>"
        },
        "name": "Poradnia rehabilitacyjna"
      }
    },
    {
      "fullUrl": "urn:uuid:42f9ebca-fd3d-45aa-9c29-b8af572e31e6",
      "resource": {
        "resourceType": "Specimen",
        "id": "42f9ebca-fd3d-45aa-9c29-b8af572e31e6",
        "meta": {
          "profile": [
            "http://hl7.eu/fhir/laboratory/StructureDefinition/Specimen-eu-lab"
          ]
        },
        "collection": {
          "collectedDateTime": "2020-05-23"
        },
        "text": {
          "status": "generated",
          "div": "<div xmlns=\"http://www.w3.org/1999/xhtml\"><table class=\"hl7__eu__lab__report\"><tr><th>Specimen</th><th>Collection Date</th></tr><tr><td>Acellular blood (serum or plasma) specimen</td><td><span class=\"nb\">23-May-2020</span></td></tr></table></div>"
        },
        "type": {
          "coding": [
            {
              "code": "122592007",
              "system": "http://snomed.info/sct",
              "display": "Acellular blood (serum or plasma) specimen"
            }
          ]
        }
      }
    },
    {
      "fullUrl": "urn:uuid:212bacce-419d-4d38-b186-ec313ecb6d31",
      "resource": {
        "resourceType": "Specimen",
        "id": "212bacce-419d-4d38-b186-ec313ecb6d31",
        "meta": {
          "profile": [
            "http://hl7.eu/fhir/laboratory/StructureDefinition/Specimen-eu-lab"
          ]
        },
        "collection": {
          "collectedDateTime": "2020-05-23"
        },
        "text": {
          "status": "generated",
          "div": "<div xmlns=\"http://www.w3.org/1999/xhtml\"><table class=\"hl7__eu__lab__report\"><tr><th>Specimen</th><th>Collection Date</th></tr><tr><td>Whole blood specimen (specimen)</td><td><span class=\"nb\">23-May-2020</span></td></tr></table></div>"
        },
        "type": {
          "coding": [
            {
              "code": "258580003",
              "system": "http://snomed.info/sct",
              "display": "Whole blood specimen (specimen)"
            }
          ]
        }
      }
    },
    {
      "fullUrl": "urn:uuid:212bacce-419d-4d38-b186-ec313ecb6d31",
      "resource": {
        "resourceType": "Specimen",
        "id": "212bacce-419d-4d38-b186-ec313ecb6d31",
        "meta": {
          "profile": [
            "http://hl7.eu/fhir/laboratory/StructureDefinition/Specimen-eu-lab"
          ]
        },
        "collection": {
          "collectedDateTime": "2020-05-23"
        },
        "text": {
          "status": "generated",
          "div": "<div xmlns=\"http://www.w3.org/1999/xhtml\"><table class=\"hl7__eu__lab__report\"><tr><th>Specimen</th><th>Collection Date</th></tr><tr><td>Whole blood specimen (specimen)</td><td><span class=\"nb\">23-May-2020</span></td></tr></table></div>"
        },
        "type": {
          "coding": [
            {
              "code": "258580003",
              "system": "http://snomed.info/sct",
              "display": "Whole blood specimen (specimen)"
            }
          ]
        }
      }
    },
    {
      "fullUrl": "urn:uuid:1febaf45-2278-4df3-8dc4-03759c1bfe60",
      "resource": {
        "resourceType": "Observation",
        "id": "1febaf45-2278-4df3-8dc4-03759c1bfe60",
        "meta": {
          "profile": [
            "http://hl7.eu/fhir/laboratory/StructureDefinition/Observation-resultslab-eu-lab"
          ]
        },
        "performer": [
          {
            "display": "The Central European Lab"
          }
        ],
        "category": [
          {
            "coding": [
              {
                "system": "http://terminology.hl7.org/CodeSystem/observation-category",
                "code": "laboratory"
              }
            ]
          }
        ],
        "code": {
          "coding": [
            {
              "code": "2093-3",
              "system": "http://loinc.org",
              "display": "Cholesterol [Mass/volume] in Serum or Plasma"
            }
          ],
          "text": "Cholesterol [Mass/volume] in Serum or Plasma"
        },
        "valueQuantity": {
          "system": "http://unitsofmeasure.org",
          "value": 268.3,
          "unit": "mg/dL",
          "code": "mg/dL"
        },
        "referenceRange": [
          {
            "low": {
              "value": 130,
              "code": "mg/dL",
              "system": "http://unitsofmeasure.org"
            }
          },
          {
            "high": {
              "value": 200,
              "code": "mg/dL",
              "system": "http://unitsofmeasure.org"
            }
          }
        ],
        "interpretation": [
          {
            "coding": [
              {
                "code": "H",
                "system": "http://terminology.hl7.org/CodeSystem/v3-ObservationInterpretation",
                "display": "High"
              }
            ]
          }
        ],
        "text": {
          "status": "generated",
          "div": "<div xmlns=\"http://www.w3.org/1999/xhtml\"><table class=\"hl7__eu__lab__report\"><tr><th>Test</th><th>23-May-2020</th><th>Reference&#xA0;Range</th><th>Unit</th></tr><tr><td>Cholesterol [Mass/volume] in Serum or Plasma</td><td>268.3</td><td>130 - 200</td><td>H</td><td>mg/dL</td></tr></table></div>"
        },
        "status": "final",
        "subject": {
          "reference": "urn:uuid:4ffc12f6-3d70-4590-861f-95a1155f7ee7",
          "display": "Aniela Prażmo"
        },
        "effectiveDateTime": "2020-05-23T13:25:25Z",
        "specimen": {
          "reference": "urn:uuid:42f9ebca-fd3d-45aa-9c29-b8af572e31e6"
        }
      }
    },
    {
      "fullUrl": "urn:uuid:77800215-756a-4959-a197-7acb114c3676",
      "resource": {
        "resourceType": "Observation",
        "id": "77800215-756a-4959-a197-7acb114c3676",
        "meta": {
          "profile": [
            "http://hl7.eu/fhir/laboratory/StructureDefinition/Observation-resultslab-eu-lab"
          ]
        },
        "performer": [
          {
            "display": "The Central European Lab"
          }
        ],
        "category": [
          {
            "coding": [
              {
                "system": "http://terminology.hl7.org/CodeSystem/observation-category",
                "code": "laboratory"
              }
            ]
          }
        ],
        "code": {
          "coding": [
            {
              "code": "2571-8",
              "system": "http://loinc.org",
              "display": "Triglyceride [Mass/volume] in Serum or Plasma"
            }
          ],
          "text": "Triglyceride [Mass/volume] in Serum or Plasma"
        },
        "valueQuantity": {
          "system": "http://unitsofmeasure.org",
          "value": 141.6,
          "unit": "mg/dL",
          "code": "mg/dL"
        },
        "referenceRange": [
          {
            "low": {
              "value": 0,
              "code": "mg/dL",
              "system": "http://unitsofmeasure.org"
            }
          },
          {
            "high": {
              "value": 199,
              "code": "mg/dL",
              "system": "http://unitsofmeasure.org"
            }
          }
        ],
        "text": {
          "status": "generated",
          "div": "<div xmlns=\"http://www.w3.org/1999/xhtml\"><table class=\"hl7__eu__lab__report\"><tr><th>Test</th><th>23-May-2020</th><th>Reference&#xA0;Range</th><th>Unit</th></tr><tr><td>Triglyceride [Mass/volume] in Serum or Plasma</td><td>141.6</td><td>0 - 199</td><td></td><td>mg/dL</td></tr></table></div>"
        },
        "status": "final",
        "subject": {
          "reference": "urn:uuid:4ffc12f6-3d70-4590-861f-95a1155f7ee7",
          "display": "Aniela Prażmo"
        },
        "effectiveDateTime": "2020-05-23T13:25:25Z",
        "specimen": {
          "reference": "urn:uuid:42f9ebca-fd3d-45aa-9c29-b8af572e31e6"
        }
      }
    },
    {
      "fullUrl": "urn:uuid:1029a745-cb32-4fa7-98c4-4f5205a5d4fb",
      "resource": {
        "resourceType": "Observation",
        "id": "1029a745-cb32-4fa7-98c4-4f5205a5d4fb",
        "meta": {
          "profile": [
            "http://hl7.eu/fhir/laboratory/StructureDefinition/Observation-resultslab-eu-lab"
          ]
        },
        "performer": [
          {
            "display": "The Central European Lab"
          }
        ],
        "category": [
          {
            "coding": [
              {
                "system": "http://terminology.hl7.org/CodeSystem/observation-category",
                "code": "laboratory"
              }
            ]
          }
        ],
        "code": {
          "coding": [
            {
              "code": "18262-6",
              "system": "http://loinc.org",
              "display": "Cholesterol in LDL [Mass/volume] in Serum or Plasma by Direct assay"
            }
          ],
          "text": "Cholesterol in LDL [Mass/volume] in Serum or Plasma by Direct assay"
        },
        "valueQuantity": {
          "system": "http://unitsofmeasure.org",
          "value": 185.2,
          "unit": "mg/dL",
          "code": "mg/dL"
        },
        "referenceRange": [
          {
            "low": {
              "value": 0,
              "code": "mg/dL",
              "system": "http://unitsofmeasure.org"
            }
          },
          {
            "high": {
              "value": 130,
              "code": "mg/dL",
              "system": "http://unitsofmeasure.org"
            }
          }
        ],
        "interpretation": [
          {
            "coding": [
              {
                "code": "H",
                "system": "http://terminology.hl7.org/CodeSystem/v3-ObservationInterpretation",
                "display": "High"
              }
            ]
          }
        ],
        "text": {
          "status": "generated",
          "div": "<div xmlns=\"http://www.w3.org/1999/xhtml\"><table class=\"hl7__eu__lab__report\"><tr><th>Test</th><th>23-May-2020</th><th>Reference&#xA0;Range</th><th>Unit</th></tr><tr><td>Cholesterol in LDL [Mass/volume] in Serum or Plasma by Direct assay</td><td>185.2</td><td>0 - 130</td><td>H</td><td>mg/dL</td></tr></table></div>"
        },
        "status": "final",
        "subject": {
          "reference": "urn:uuid:4ffc12f6-3d70-4590-861f-95a1155f7ee7",
          "display": "Aniela Prażmo"
        },
        "effectiveDateTime": "2020-05-23T13:25:25Z",
        "specimen": {
          "reference": "urn:uuid:42f9ebca-fd3d-45aa-9c29-b8af572e31e6"
        }
      }
    },
    {
      "fullUrl": "urn:uuid:dbe620cb-158e-4e0c-8a73-1461a42459ce",
      "resource": {
        "resourceType": "Observation",
        "id": "dbe620cb-158e-4e0c-8a73-1461a42459ce",
        "meta": {
          "profile": [
            "http://hl7.eu/fhir/laboratory/StructureDefinition/Observation-resultslab-eu-lab"
          ]
        },
        "performer": [
          {
            "display": "The Central European Lab"
          }
        ],
        "category": [
          {
            "coding": [
              {
                "system": "http://terminology.hl7.org/CodeSystem/observation-category",
                "code": "laboratory"
              }
            ]
          }
        ],
        "code": {
          "coding": [
            {
              "code": "2085-9",
              "system": "http://loinc.org",
              "display": "Cholesterol in HDL [Mass/volume] in Serum or Plasma"
            }
          ],
          "text": "Cholesterol in HDL [Mass/volume] in Serum or Plasma"
        },
        "valueQuantity": {
          "system": "http://unitsofmeasure.org",
          "value": 54.8,
          "unit": "mg/dL",
          "code": "mg/dL"
        },
        "referenceRange": [
          {
            "low": {
              "value": 50,
              "code": "mg/dL",
              "system": "http://unitsofmeasure.org"
            }
          },
          {
            "high": {
              "value": 100,
              "code": "mg/dL",
              "system": "http://unitsofmeasure.org"
            }
          }
        ],
        "text": {
          "status": "generated",
          "div": "<div xmlns=\"http://www.w3.org/1999/xhtml\"><table class=\"hl7__eu__lab__report\"><tr><th>Test</th><th>23-May-2020</th><th>Reference&#xA0;Range</th><th>Unit</th></tr><tr><td>Cholesterol in HDL [Mass/volume] in Serum or Plasma</td><td>54.8</td><td>50 - 100</td><td></td><td>mg/dL</td></tr></table></div>"
        },
        "status": "final",
        "subject": {
          "reference": "urn:uuid:4ffc12f6-3d70-4590-861f-95a1155f7ee7",
          "display": "Aniela Prażmo"
        },
        "effectiveDateTime": "2020-05-23T13:25:25Z",
        "specimen": {
          "reference": "urn:uuid:42f9ebca-fd3d-45aa-9c29-b8af572e31e6"
        }
      }
    },
    {
      "fullUrl": "urn:uuid:609e6d68-bc21-40cc-983c-619c454bcafb",
      "resource": {
        "resourceType": "Observation",
        "id": "609e6d68-bc21-40cc-983c-619c454bcafb",
        "meta": {
          "profile": [
            "http://hl7.eu/fhir/laboratory/StructureDefinition/Observation-resultslab-eu-lab"
          ]
        },
        "performer": [
          {
            "display": "The Central European Lab"
          }
        ],
        "category": [
          {
            "coding": [
              {
                "system": "http://terminology.hl7.org/CodeSystem/observation-category",
                "code": "laboratory"
              }
            ]
          }
        ],
        "code": {
          "coding": [
            {
              "code": "6690-2",
              "system": "http://loinc.org",
              "display": "Leukocytes [#/volume] in Blood by Automated count"
            }
          ],
          "text": "Leukocytes [#/volume] in Blood by Automated count"
        },
        "valueQuantity": {
          "system": "http://unitsofmeasure.org",
          "value": 6,
          "unit": "10*3/uL",
          "code": "10*3/uL"
        },
        "referenceRange": [
          {
            "low": {
              "value": 4,
              "code": "10*3/uL",
              "system": "http://unitsofmeasure.org"
            }
          },
          {
            "high": {
              "value": 11,
              "code": "10*3/uL",
              "system": "http://unitsofmeasure.org"
            }
          }
        ],
        "text": {
          "status": "generated",
          "div": "<div xmlns=\"http://www.w3.org/1999/xhtml\"><table class=\"hl7__eu__lab__report\"><tr><th>Test</th><th>23-May-2020</th><th>Reference&#xA0;Range</th><th>Unit</th></tr><tr><td>Leukocytes [#/volume] in Blood by Automated count</td><td>6.0</td><td>4 - 11</td><td></td><td>10*3/uL</td></tr></table></div>"
        },
        "status": "final",
        "subject": {
          "reference": "urn:uuid:4ffc12f6-3d70-4590-861f-95a1155f7ee7",
          "display": "Aniela Prażmo"
        },
        "effectiveDateTime": "2020-05-23T13:25:25Z",
        "specimen": {
          "reference": "urn:uuid:212bacce-419d-4d38-b186-ec313ecb6d31"
        }
      }
    },
    {
      "fullUrl": "urn:uuid:7bb030e3-57c5-4e42-b6fd-884d5baacbcb",
      "resource": {
        "resourceType": "Observation",
        "id": "7bb030e3-57c5-4e42-b6fd-884d5baacbcb",
        "meta": {
          "profile": [
            "http://hl7.eu/fhir/laboratory/StructureDefinition/Observation-resultslab-eu-lab"
          ]
        },
        "performer": [
          {
            "display": "The Central European Lab"
          }
        ],
        "category": [
          {
            "coding": [
              {
                "system": "http://terminology.hl7.org/CodeSystem/observation-category",
                "code": "laboratory"
              }
            ]
          }
        ],
        "code": {
          "coding": [
            {
              "code": "789-8",
              "system": "http://loinc.org",
              "display": "Erythrocytes [#/volume] in Blood by Automated count"
            }
          ],
          "text": "Erythrocytes [#/volume] in Blood by Automated count"
        },
        "valueQuantity": {
          "system": "http://unitsofmeasure.org",
          "value": 5.1,
          "unit": "10*6/uL",
          "code": "10*6/uL"
        },
        "referenceRange": [
          {
            "low": {
              "value": 3.8,
              "code": "10*6/uL",
              "system": "http://unitsofmeasure.org"
            }
          },
          {
            "high": {
              "value": 5.7,
              "code": "10*6/uL",
              "system": "http://unitsofmeasure.org"
            }
          }
        ],
        "text": {
          "status": "generated",
          "div": "<div xmlns=\"http://www.w3.org/1999/xhtml\"><table class=\"hl7__eu__lab__report\"><tr><th>Test</th><th>23-May-2020</th><th>Reference&#xA0;Range</th><th>Unit</th></tr><tr><td>Erythrocytes [#/volume] in Blood by Automated count</td><td>5.1</td><td>3.8 - 5.7</td><td></td><td>10*6/uL</td></tr></table></div>"
        },
        "status": "final",
        "subject": {
          "reference": "urn:uuid:4ffc12f6-3d70-4590-861f-95a1155f7ee7",
          "display": "Aniela Prażmo"
        },
        "effectiveDateTime": "2020-05-23T13:25:25Z",
        "specimen": {
          "reference": "urn:uuid:212bacce-419d-4d38-b186-ec313ecb6d31"
        }
      }
    },
    {
      "fullUrl": "urn:uuid:a6dedba9-e1e5-4aaa-827f-f93f2b9049d6",
      "resource": {
        "resourceType": "Observation",
        "id": "a6dedba9-e1e5-4aaa-827f-f93f2b9049d6",
        "meta": {
          "profile": [
            "http://hl7.eu/fhir/laboratory/StructureDefinition/Observation-resultslab-eu-lab"
          ]
        },
        "performer": [
          {
            "display": "The Central European Lab"
          }
        ],
        "category": [
          {
            "coding": [
              {
                "system": "http://terminology.hl7.org/CodeSystem/observation-category",
                "code": "laboratory"
              }
            ]
          }
        ],
        "code": {
          "coding": [
            {
              "code": "718-7",
              "system": "http://loinc.org",
              "display": "Hemoglobin [Mass/volume] in Blood"
            }
          ],
          "text": "Hemoglobin [Mass/volume] in Blood"
        },
        "valueQuantity": {
          "system": "http://unitsofmeasure.org",
          "value": 15.7,
          "unit": "g/dL",
          "code": "g/dL"
        },
        "referenceRange": [
          {
            "low": {
              "value": 12,
              "code": "g/dL",
              "system": "http://unitsofmeasure.org"
            }
          },
          {
            "high": {
              "value": 16,
              "code": "g/dL",
              "system": "http://unitsofmeasure.org"
            }
          }
        ],
        "text": {
          "status": "generated",
          "div": "<div xmlns=\"http://www.w3.org/1999/xhtml\"><table class=\"hl7__eu__lab__report\"><tr><th>Test</th><th>23-May-2020</th><th>Reference&#xA0;Range</th><th>Unit</th></tr><tr><td>Hemoglobin [Mass/volume] in Blood</td><td>15.7</td><td>12 - 16</td><td></td><td>g/dL</td></tr></table></div>"
        },
        "status": "final",
        "subject": {
          "reference": "urn:uuid:4ffc12f6-3d70-4590-861f-95a1155f7ee7",
          "display": "Aniela Prażmo"
        },
        "effectiveDateTime": "2020-05-23T13:25:25Z",
        "specimen": {
          "reference": "urn:uuid:212bacce-419d-4d38-b186-ec313ecb6d31"
        }
      }
    },
    {
      "fullUrl": "urn:uuid:04d7264b-ed2e-4a28-8769-bafdf9b3cebc",
      "resource": {
        "resourceType": "Observation",
        "id": "04d7264b-ed2e-4a28-8769-bafdf9b3cebc",
        "meta": {
          "profile": [
            "http://hl7.eu/fhir/laboratory/StructureDefinition/Observation-resultslab-eu-lab"
          ]
        },
        "performer": [
          {
            "display": "The Central European Lab"
          }
        ],
        "category": [
          {
            "coding": [
              {
                "system": "http://terminology.hl7.org/CodeSystem/observation-category",
                "code": "laboratory"
              }
            ]
          }
        ],
        "code": {
          "coding": [
            {
              "code": "4544-3",
              "system": "http://loinc.org",
              "display": "Hematocrit [Volume Fraction] of Blood by Automated count"
            }
          ],
          "text": "Hematocrit [Volume Fraction] of Blood by Automated count"
        },
        "valueQuantity": {
          "system": "http://unitsofmeasure.org",
          "value": 44.3,
          "unit": "%",
          "code": "%"
        },
        "referenceRange": [
          {
            "low": {
              "value": 38,
              "code": "%",
              "system": "http://unitsofmeasure.org"
            }
          },
          {
            "high": {
              "value": 56,
              "code": "%",
              "system": "http://unitsofmeasure.org"
            }
          }
        ],
        "text": {
          "status": "generated",
          "div": "<div xmlns=\"http://www.w3.org/1999/xhtml\"><table class=\"hl7__eu__lab__report\"><tr><th>Test</th><th>23-May-2020</th><th>Reference&#xA0;Range</th><th>Unit</th></tr><tr><td>Hematocrit [Volume Fraction] of Blood by Automated count</td><td>44.3</td><td>38 - 56</td><td></td><td>%</td></tr></table></div>"
        },
        "status": "final",
        "subject": {
          "reference": "urn:uuid:4ffc12f6-3d70-4590-861f-95a1155f7ee7",
          "display": "Aniela Prażmo"
        },
        "effectiveDateTime": "2020-05-23T13:25:25Z",
        "specimen": {
          "reference": "urn:uuid:212bacce-419d-4d38-b186-ec313ecb6d31"
        }
      }
    },
    {
      "fullUrl": "urn:uuid:fbb0d7c9-8de3-4c9a-b1af-126c65c21589",
      "resource": {
        "resourceType": "Observation",
        "id": "fbb0d7c9-8de3-4c9a-b1af-126c65c21589",
        "meta": {
          "profile": [
            "http://hl7.eu/fhir/laboratory/StructureDefinition/Observation-resultslab-eu-lab"
          ]
        },
        "performer": [
          {
            "display": "The Central European Lab"
          }
        ],
        "category": [
          {
            "coding": [
              {
                "system": "http://terminology.hl7.org/CodeSystem/observation-category",
                "code": "laboratory"
              }
            ]
          }
        ],
        "code": {
          "coding": [
            {
              "code": "787-2",
              "system": "http://loinc.org",
              "display": "MCV [Entitic volume] by Automated count"
            }
          ],
          "text": "MCV [Entitic volume] by Automated count"
        },
        "valueQuantity": {
          "system": "http://unitsofmeasure.org",
          "value": 87.6,
          "unit": "fL",
          "code": "fL"
        },
        "referenceRange": [
          {
            "low": {
              "value": 78,
              "code": "fL",
              "system": "http://unitsofmeasure.org"
            }
          },
          {
            "high": {
              "value": 98,
              "code": "fL",
              "system": "http://unitsofmeasure.org"
            }
          }
        ],
        "text": {
          "status": "generated",
          "div": "<div xmlns=\"http://www.w3.org/1999/xhtml\"><table class=\"hl7__eu__lab__report\"><tr><th>Test</th><th>23-May-2020</th><th>Reference&#xA0;Range</th><th>Unit</th></tr><tr><td>MCV [Entitic volume] by Automated count</td><td>87.6</td><td>78 - 98</td><td></td><td>fL</td></tr></table></div>"
        },
        "status": "final",
        "subject": {
          "reference": "urn:uuid:4ffc12f6-3d70-4590-861f-95a1155f7ee7",
          "display": "Aniela Prażmo"
        },
        "effectiveDateTime": "2020-05-23T13:25:25Z",
        "specimen": {
          "reference": "urn:uuid:212bacce-419d-4d38-b186-ec313ecb6d31"
        }
      }
    },
    {
      "fullUrl": "urn:uuid:57061a2b-da4b-47b3-bbfd-7c1cbbabbff7",
      "resource": {
        "resourceType": "Observation",
        "id": "57061a2b-da4b-47b3-bbfd-7c1cbbabbff7",
        "meta": {
          "profile": [
            "http://hl7.eu/fhir/laboratory/StructureDefinition/Observation-resultslab-eu-lab"
          ]
        },
        "performer": [
          {
            "display": "The Central European Lab"
          }
        ],
        "category": [
          {
            "coding": [
              {
                "system": "http://terminology.hl7.org/CodeSystem/observation-category",
                "code": "laboratory"
              }
            ]
          }
        ],
        "code": {
          "coding": [
            {
              "code": "785-6",
              "system": "http://loinc.org",
              "display": "MCH [Entitic mass] by Automated count"
            }
          ],
          "text": "MCH [Entitic mass] by Automated count"
        },
        "valueQuantity": {
          "system": "http://unitsofmeasure.org",
          "value": 31.7,
          "unit": "pg",
          "code": "pg"
        },
        "referenceRange": [
          {
            "low": {
              "value": 27,
              "code": "pg",
              "system": "http://unitsofmeasure.org"
            }
          },
          {
            "high": {
              "value": 34,
              "code": "pg",
              "system": "http://unitsofmeasure.org"
            }
          }
        ],
        "text": {
          "status": "generated",
          "div": "<div xmlns=\"http://www.w3.org/1999/xhtml\"><table class=\"hl7__eu__lab__report\"><tr><th>Test</th><th>23-May-2020</th><th>Reference&#xA0;Range</th><th>Unit</th></tr><tr><td>MCH [Entitic mass] by Automated count</td><td>31.7</td><td>27 - 34</td><td></td><td>pg</td></tr></table></div>"
        },
        "status": "final",
        "subject": {
          "reference": "urn:uuid:4ffc12f6-3d70-4590-861f-95a1155f7ee7",
          "display": "Aniela Prażmo"
        },
        "effectiveDateTime": "2020-05-23T13:25:25Z",
        "specimen": {
          "reference": "urn:uuid:212bacce-419d-4d38-b186-ec313ecb6d31"
        }
      }
    },
    {
      "fullUrl": "urn:uuid:324a953f-74ea-4fd7-baeb-5b93cbe29262",
      "resource": {
        "resourceType": "Observation",
        "id": "324a953f-74ea-4fd7-baeb-5b93cbe29262",
        "meta": {
          "profile": [
            "http://hl7.eu/fhir/laboratory/StructureDefinition/Observation-resultslab-eu-lab"
          ]
        },
        "performer": [
          {
            "display": "The Central European Lab"
          }
        ],
        "category": [
          {
            "coding": [
              {
                "system": "http://terminology.hl7.org/CodeSystem/observation-category",
                "code": "laboratory"
              }
            ]
          }
        ],
        "code": {
          "coding": [
            {
              "code": "786-4",
              "system": "http://loinc.org",
              "display": "MCHC [Mass/volume] by Automated count"
            }
          ],
          "text": "MCHC [Mass/volume] by Automated count"
        },
        "valueQuantity": {
          "system": "http://unitsofmeasure.org",
          "value": 35.2,
          "unit": "g/dL",
          "code": "g/dL"
        },
        "referenceRange": [
          {
            "low": {
              "value": 32,
              "code": "g/dL",
              "system": "http://unitsofmeasure.org"
            }
          },
          {
            "high": {
              "value": 35,
              "code": "g/dL",
              "system": "http://unitsofmeasure.org"
            }
          }
        ],
        "interpretation": [
          {
            "coding": [
              {
                "code": "H",
                "system": "http://terminology.hl7.org/CodeSystem/v3-ObservationInterpretation",
                "display": "High"
              }
            ]
          }
        ],
        "text": {
          "status": "generated",
          "div": "<div xmlns=\"http://www.w3.org/1999/xhtml\"><table class=\"hl7__eu__lab__report\"><tr><th>Test</th><th>23-May-2020</th><th>Reference&#xA0;Range</th><th>Unit</th></tr><tr><td>MCHC [Mass/volume] by Automated count</td><td>35.2</td><td>32 - 35</td><td>H</td><td>g/dL</td></tr></table></div>"
        },
        "status": "final",
        "subject": {
          "reference": "urn:uuid:4ffc12f6-3d70-4590-861f-95a1155f7ee7",
          "display": "Aniela Prażmo"
        },
        "effectiveDateTime": "2020-05-23T13:25:25Z",
        "specimen": {
          "reference": "urn:uuid:212bacce-419d-4d38-b186-ec313ecb6d31"
        }
      }
    },
    {
      "fullUrl": "urn:uuid:22e9c672-2df7-4b76-b26b-7e0eb07df82e",
      "resource": {
        "resourceType": "Observation",
        "id": "22e9c672-2df7-4b76-b26b-7e0eb07df82e",
        "meta": {
          "profile": [
            "http://hl7.eu/fhir/laboratory/StructureDefinition/Observation-resultslab-eu-lab"
          ]
        },
        "performer": [
          {
            "display": "The Central European Lab"
          }
        ],
        "category": [
          {
            "coding": [
              {
                "system": "http://terminology.hl7.org/CodeSystem/observation-category",
                "code": "laboratory"
              }
            ]
          }
        ],
        "code": {
          "coding": [
            {
              "code": "21000-5",
              "system": "http://loinc.org",
              "display": "Erythrocyte distribution width [Entitic volume] by Automated count"
            }
          ],
          "text": "Erythrocyte distribution width [Entitic volume] by Automated count"
        },
        "valueQuantity": {
          "system": "http://unitsofmeasure.org",
          "value": 39.8,
          "unit": "fL",
          "code": "fL"
        },
        "referenceRange": [
          {
            "low": {
              "value": 36,
              "code": "fL",
              "system": "http://unitsofmeasure.org"
            }
          },
          {
            "high": {
              "value": 55,
              "code": "fL",
              "system": "http://unitsofmeasure.org"
            }
          }
        ],
        "text": {
          "status": "generated",
          "div": "<div xmlns=\"http://www.w3.org/1999/xhtml\"><table class=\"hl7__eu__lab__report\"><tr><th>Test</th><th>23-May-2020</th><th>Reference&#xA0;Range</th><th>Unit</th></tr><tr><td>Erythrocyte distribution width [Entitic volume] by Automated count</td><td>39.8</td><td>36 - 55</td><td></td><td>fL</td></tr></table></div>"
        },
        "status": "final",
        "subject": {
          "reference": "urn:uuid:4ffc12f6-3d70-4590-861f-95a1155f7ee7",
          "display": "Aniela Prażmo"
        },
        "effectiveDateTime": "2020-05-23T13:25:25Z",
        "specimen": {
          "reference": "urn:uuid:212bacce-419d-4d38-b186-ec313ecb6d31"
        }
      }
    },
    {
      "fullUrl": "urn:uuid:58681ed9-8c84-41bc-98f4-ebe657a16202",
      "resource": {
        "resourceType": "Observation",
        "id": "58681ed9-8c84-41bc-98f4-ebe657a16202",
        "meta": {
          "profile": [
            "http://hl7.eu/fhir/laboratory/StructureDefinition/Observation-resultslab-eu-lab"
          ]
        },
        "performer": [
          {
            "display": "The Central European Lab"
          }
        ],
        "category": [
          {
            "coding": [
              {
                "system": "http://terminology.hl7.org/CodeSystem/observation-category",
                "code": "laboratory"
              }
            ]
          }
        ],
        "code": {
          "coding": [
            {
              "code": "777-3",
              "system": "http://loinc.org",
              "display": "Platelets [#/volume] in Blood by Automated count"
            }
          ],
          "text": "Platelets [#/volume] in Blood by Automated count"
        },
        "valueQuantity": {
          "system": "http://unitsofmeasure.org",
          "value": 435.2,
          "unit": "10*3/uL",
          "code": "10*3/uL"
        },
        "referenceRange": [
          {
            "low": {
              "value": 157,
              "code": "10*3/uL",
              "system": "http://unitsofmeasure.org"
            }
          },
          {
            "high": {
              "value": 415,
              "code": "10*3/uL",
              "system": "http://unitsofmeasure.org"
            }
          }
        ],
        "interpretation": [
          {
            "coding": [
              {
                "code": "H",
                "system": "http://terminology.hl7.org/CodeSystem/v3-ObservationInterpretation",
                "display": "High"
              }
            ]
          }
        ],
        "text": {
          "status": "generated",
          "div": "<div xmlns=\"http://www.w3.org/1999/xhtml\"><table class=\"hl7__eu__lab__report\"><tr><th>Test</th><th>23-May-2020</th><th>Reference&#xA0;Range</th><th>Unit</th></tr><tr><td>Platelets [#/volume] in Blood by Automated count</td><td>435.2</td><td>157 - 415</td><td>H</td><td>10*3/uL</td></tr></table></div>"
        },
        "status": "final",
        "subject": {
          "reference": "urn:uuid:4ffc12f6-3d70-4590-861f-95a1155f7ee7",
          "display": "Aniela Prażmo"
        },
        "effectiveDateTime": "2020-05-23T13:25:25Z",
        "specimen": {
          "reference": "urn:uuid:212bacce-419d-4d38-b186-ec313ecb6d31"
        }
      }
    },
    {
      "fullUrl": "urn:uuid:0a369a6c-5dfe-444f-9435-ab6a1d985d2d",
      "resource": {
        "resourceType": "Observation",
        "id": "0a369a6c-5dfe-444f-9435-ab6a1d985d2d",
        "meta": {
          "profile": [
            "http://hl7.eu/fhir/laboratory/StructureDefinition/Observation-resultslab-eu-lab"
          ]
        },
        "performer": [
          {
            "display": "The Central European Lab"
          }
        ],
        "category": [
          {
            "coding": [
              {
                "system": "http://terminology.hl7.org/CodeSystem/observation-category",
                "code": "laboratory"
              }
            ]
          }
        ],
        "code": {
          "coding": [
            {
              "code": "32207-3",
              "system": "http://loinc.org",
              "display": "Platelet distribution width [Entitic volume] in Blood by Automated count"
            }
          ],
          "text": "Platelet distribution width [Entitic volume] in Blood by Automated count"
        },
        "valueQuantity": {
          "system": "http://unitsofmeasure.org",
          "value": 245,
          "unit": "fL",
          "code": "fL"
        },
        "referenceRange": [
          {
            "low": {
              "value": 13.4,
              "code": "fL",
              "system": "http://unitsofmeasure.org"
            }
          },
          {
            "high": {
              "value": 17.4,
              "code": "fL",
              "system": "http://unitsofmeasure.org"
            }
          }
        ],
        "interpretation": [
          {
            "coding": [
              {
                "code": "H",
                "system": "http://terminology.hl7.org/CodeSystem/v3-ObservationInterpretation",
                "display": "High"
              }
            ]
          }
        ],
        "text": {
          "status": "generated",
          "div": "<div xmlns=\"http://www.w3.org/1999/xhtml\"><table class=\"hl7__eu__lab__report\"><tr><th>Test</th><th>23-May-2020</th><th>Reference&#xA0;Range</th><th>Unit</th></tr><tr><td>Platelet distribution width [Entitic volume] in Blood by Automated count</td><td>245.0</td><td>13.4 - 17.4</td><td>H</td><td>fL</td></tr></table></div>"
        },
        "status": "final",
        "subject": {
          "reference": "urn:uuid:4ffc12f6-3d70-4590-861f-95a1155f7ee7",
          "display": "Aniela Prażmo"
        },
        "effectiveDateTime": "2020-05-23T13:25:25Z",
        "specimen": {
          "reference": "urn:uuid:212bacce-419d-4d38-b186-ec313ecb6d31"
        }
      }
    },
    {
      "fullUrl": "urn:uuid:8f15511c-118a-441f-9b7e-1959e6bfe8be",
      "resource": {
        "resourceType": "Observation",
        "id": "8f15511c-118a-441f-9b7e-1959e6bfe8be",
        "meta": {
          "profile": [
            "http://hl7.eu/fhir/laboratory/StructureDefinition/Observation-resultslab-eu-lab"
          ]
        },
        "performer": [
          {
            "display": "The Central European Lab"
          }
        ],
        "category": [
          {
            "coding": [
              {
                "system": "http://terminology.hl7.org/CodeSystem/observation-category",
                "code": "laboratory"
              }
            ]
          }
        ],
        "code": {
          "coding": [
            {
              "code": "32623-1",
              "system": "http://loinc.org",
              "display": "Platelet mean volume [Entitic volume] in Blood by Automated count"
            }
          ],
          "text": "Platelet mean volume [Entitic volume] in Blood by Automated count"
        },
        "valueQuantity": {
          "system": "http://unitsofmeasure.org",
          "value": 9.6,
          "unit": "fL",
          "code": "fL"
        },
        "referenceRange": [
          {
            "low": {
              "value": 7.4,
              "code": "fL",
              "system": "http://unitsofmeasure.org"
            }
          },
          {
            "high": {
              "value": 12,
              "code": "fL",
              "system": "http://unitsofmeasure.org"
            }
          }
        ],
        "text": {
          "status": "generated",
          "div": "<div xmlns=\"http://www.w3.org/1999/xhtml\"><table class=\"hl7__eu__lab__report\"><tr><th>Test</th><th>23-May-2020</th><th>Reference&#xA0;Range</th><th>Unit</th></tr><tr><td>Platelet mean volume [Entitic volume] in Blood by Automated count</td><td>9.6</td><td>7.4 - 12</td><td></td><td>fL</td></tr></table></div>"
        },
        "status": "final",
        "subject": {
          "reference": "urn:uuid:4ffc12f6-3d70-4590-861f-95a1155f7ee7",
          "display": "Aniela Prażmo"
        },
        "effectiveDateTime": "2020-05-23T13:25:25Z",
        "specimen": {
          "reference": "urn:uuid:212bacce-419d-4d38-b186-ec313ecb6d31"
        }
      }
    },
    {
      "fullUrl": "urn:uuid:d71c83e5-6662-41d5-a48c-a90a4c5250d6",
      "resource": {
        "resourceType": "Device",
        "id": "d71c83e5-6662-41d5-a48c-a90a4c5250d6",
        "deviceName": [
          {
            "name": "SYNDERAI Synthetic Generator",
            "type": "manufacturer-name"
          }
        ],
        "version": [
          {
            "value": "5.0"
          }
        ],
        "text": {
          "status": "generated",
          "div": "<div xmlns=\"http://www.w3.org/1999/xhtml\">SYNDERAI Synthetic Generator v5.0</div>"
        },
        "status": "active\"",
        "distinctIdentifier": "synderai-generator-50",
        "manufacturer": "SYNDERAI Project"
      }
    },
    {
      "fullUrl": "urn:uuid:e078cc03-2e1b-4f54-8505-22dc12c84fa9",
      "resource": {
        "resourceType": "Provenance",
        "id": "e078cc03-2e1b-4f54-8505-22dc12c84fa9",
        "target": [
          {
            "reference": "Patient/4ffc12f6-3d70-4590-861f-95a1155f7ee7"
          },
          {
            "reference": "Bundle/799fb776-cc56-45d0-99f1-8301bf27d466"
          },
          {
            "reference": "Composition/1ac90e5b-4ef4-455c-a750-679fd1457a57"
          },
          {
            "reference": "PractitionerRole/d8e3ed10-73b7-4784-8182-5ed58c1840a9"
          },
          {
            "reference": "Practitioner/1a8cb2ed-a299-4fbc-a7c7-5e36b5ec41ff"
          },
          {
            "reference": "PractitionerRole/c1fcf8a3-41dc-4f1f-8d12-be838eee07af"
          },
          {
            "reference": "Organization/24cae12a-f90a-41a0-abd4-a8b4464d98e4"
          }
        ],
        "activity": {
          "text": "Synthetic Example Data Generation"
        },
        "policy": [
          "https://synderai.net/synderai-synthetic-data-policy"
        ],
        "agent": [
          {
            "type": {
              "text": "author"
            },
            "who": {
              "reference": "Device/d71c83e5-6662-41d5-a48c-a90a4c5250d6"
            }
          }
        ],
        "reason": [
          {
            "text": "Interoperability Testing and Training (non-clinical use)"
          }
        ],
        "text": {
          "status": "generated",
          "div": "<div xmlns=\"http://www.w3.org/1999/xhtml\">Provenance for SYNDERAI Synthetic Example Data Resource</div>"
        },
        "recorded": "2020-05-23T15:25:25Z"
      }
    },
    {
      "fullUrl": "urn:uuid:d8e3ed10-73b7-4784-8182-5ed58c1840a9",
      "resource": {
        "resourceType": "PractitionerRole",
        "id": "d8e3ed10-73b7-4784-8182-5ed58c1840a9",
        "meta": {
          "profile": [
            "http://hl7.eu/fhir/base/StructureDefinition/practitionerRole-eu"
          ]
        },
        "text": {
          "status": "generated",
          "div": "<div xmlns=\"http://www.w3.org/1999/xhtml\">Laboratory Role Id: d8e3ed10-73b7-4784-8182-5ed58c1840a9</div>"
        },
        "practitioner": {
          "reference": "urn:uuid:1a8cb2ed-a299-4fbc-a7c7-5e36b5ec41ff"
        }
      }
    },
    {
      "fullUrl": "urn:uuid:1a8cb2ed-a299-4fbc-a7c7-5e36b5ec41ff",
      "resource": {
        "resourceType": "Practitioner",
        "id": "1a8cb2ed-a299-4fbc-a7c7-5e36b5ec41ff",
        "meta": {
          "profile": [
            "http://hl7.eu/fhir/base/StructureDefinition/practitioner-eu"
          ]
        },
        "identifier": [
          {
            "assigner": {
              "display": "HL7 Europe"
            },
            "system": "urn:oid:2.16.840.1.113883.2.51.999",
            "value": "e49cd98a-8ccb-4012-8b63-86be49a07e78"
          }
        ],
        "name": [
          {
            "prefix": [
              "dr"
            ],
            "given": [
              "Ex"
            ],
            "family": "Ample"
          }
        ],
        "address": [
          {
            "line": [
              "Laboratoire Central Européenne",
              "Boulevard du Jardin Botanique 32"
            ],
            "postalCode": "1000",
            "city": "Brussels",
            "country": "Belgium"
          }
        ],
        "text": {
          "status": "generated",
          "div": "<div xmlns=\"http://www.w3.org/1999/xhtml\">Laboratory: Laboratoire Central Européenne, 1000 Brussels, Belgium</div>"
        }
      }
    }
  ],
  "type": "document",
  "timestamp": "2020-05-23T15:25:25Z"
}
