{
  "resourceType": "Bundle",
  "id": "530750db-3a79-40f0-8036-331f3a9ead83",
  "meta": {
    "profile": [
      "http://hl7.eu/fhir/laboratory/StructureDefinition/Bundle-eu-lab"
    ]
  },
  "identifier": {
    "assigner": {
      "display": "HL7 Europe"
    },
    "system": "urn:oid:2.16.840.1.113883.2.51.999",
    "value": "3392335d-7d06-4393-8a36-964ff16db156"
  },
  "entry": [
    {
      "fullUrl": "urn:uuid:0feb5b0a-4897-4fa3-a8b0-a630ea7716d5",
      "resource": {
        "resourceType": "Composition",
        "id": "0feb5b0a-4897-4fa3-a8b0-a630ea7716d5",
        "meta": {
          "profile": [
            "http://hl7.eu/fhir/laboratory/StructureDefinition/Composition-eu-lab"
          ]
        },
        "identifier": {
          "assigner": {
            "display": "HL7 Europe"
          },
          "system": "urn:oid:2.16.840.1.113883.2.51.999",
          "value": "bc119c2f-086e-4dbf-b909-f055690f1efa"
        },
        "author": [
          {
            "reference": "urn:uuid:27ec0cec-354f-4d2b-bba4-675f82fdb47a"
          }
        ],
        "category": [
          {
            "coding": [
              {
                "code": "26436-6",
                "system": "http://loinc.org",
                "display": "Laboratory studies (set)"
              }
            ]
          }
        ],
        "type": {
          "coding": [
            {
              "code": "11502-2",
              "system": "http://loinc.org",
              "display": "Laboratory report"
            }
          ],
          "text": "Laboratory Report"
        },
        "section": [
          {
            "code": {
              "coding": [
                {
                  "code": "26436-6",
                  "system": "http://loinc.org",
                  "display": "Laboratory studies (set)"
                }
              ],
              "text": "Laboratory studies"
            },
            "section": [
              {
                "code": {
                  "coding": [
                    {
                      "code": "$18719-5",
                      "system": "http://loinc.org",
                      "display": "Chemistry studies (set)"
                    }
                  ],
                  "text": "Chemistry"
                },
                "entry": [
                  {
                    "reference": "urn:uuid:31cfc202-68cc-42bd-bea8-5bf56abd370a"
                  },
                  {
                    "reference": "urn:uuid:fb9b55ac-c1e2-4bb8-a447-c4e03515c03b"
                  },
                  {
                    "reference": "urn:uuid:b292f10f-90ba-4b78-848d-8c6f2b5fba8c"
                  },
                  {
                    "reference": "urn:uuid:4656bed9-a823-48a3-b955-914d76dde056"
                  },
                  {
                    "reference": "urn:uuid:7545c8df-6097-46a0-96d2-c257e656b413"
                  },
                  {
                    "reference": "urn:uuid:452cbea6-83a2-4f9d-82b8-a38340487af2"
                  },
                  {
                    "reference": "urn:uuid:c97c9172-f1f3-4115-94c4-45193e891351"
                  },
                  {
                    "reference": "urn:uuid:64a7af9b-c4a0-442c-aa37-3cc8e9dcc157"
                  },
                  {
                    "reference": "urn:uuid:6a9b9b94-c18d-4ed8-88f3-b92fa01ebf46"
                  },
                  {
                    "reference": "urn:uuid:316e740a-9d20-4bb3-a094-8a94026913ed"
                  },
                  {
                    "reference": "urn:uuid:b85b96e9-1b6a-4c7a-80c7-2857b603ec25"
                  },
                  {
                    "reference": "urn:uuid:4d8d30ab-8542-494e-885a-302e86170f11"
                  },
                  {
                    "reference": "urn:uuid:cec88f5f-deab-4c00-8cb6-8dd1d32d2c9d"
                  }
                ],
                "text": {
                  "status": "generated",
                  "div": "<div xmlns=\"http://www.w3.org/1999/xhtml\"><h3>Chemistry</h3><table class=\"hl7__eu__lab__report\"><thead><tr><th>Test</th><th>27-DEC-2022</th><th>Reference&#xA0;Range</th><th>Unit</th></tr></thead><tbody><tr><td>Hemoglobin A1c/Hemoglobin.total in Blood</td><td><strong>6.0 H</strong></td><td>4.8 - 5.7</td><td>%</td></tr><tr><td>Glucose [Mass/volume] in Blood</td><td>78.3</td><td>70 - 99</td><td>mg/dL</td></tr><tr><td>Urea nitrogen [Mass/volume] in Blood</td><td>19.4</td><td>7 - 20</td><td>mg/dL</td></tr><tr><td>Creatinine [Mass/volume] in Blood</td><td>0.8</td><td>0.6 - 1.1</td><td>mg/dL</td></tr><tr><td>Calcium [Mass/volume] in Blood</td><td>9.2</td><td>8.5 - 10.5</td><td>mg/dL</td></tr><tr><td>Sodium [Moles/volume] in Blood</td><td>137.4</td><td>135 - 145</td><td>mmol/L</td></tr><tr><td>Potassium [Moles/volume] in Blood</td><td>5.2</td><td>3.5 - 5.3</td><td>mmol/L</td></tr><tr><td>Chloride [Moles/volume] in Blood</td><td>103.6</td><td>98 - 114</td><td>mmol/L</td></tr><tr><td>Carbon dioxide, total [Moles/volume] in Blood</td><td>26.1</td><td>22 - 29</td><td>mmol/L</td></tr><tr><td>Cholesterol [Mass/volume] in Serum or Plasma</td><td>171.3</td><td>125 - 200</td><td>mg/dL</td></tr><tr><td>Triglyceride [Mass/volume] in Serum or Plasma</td><td>146.2</td><td>35 - 150</td><td>mg/dL</td></tr><tr><td>Cholesterol in LDL [Mass/volume] in Serum or Plasma by Direct assay</td><td>82.8</td><td>0 - 130</td><td>mg/dL</td></tr><tr><td>Cholesterol in HDL [Mass/volume] in Serum or Plasma</td><td>59.3</td><td>40 - 60</td><td>mg/dL</td></tr></tbody></table></div>"
                },
                "title": "Chemistry"
              }
            ],
            "title": "Laboratory Report"
          },
          {
            "text": {
              "status": "generated",
              "div": "<div xmlns=\"http://www.w3.org/1999/xhtml\"><h3>Annotation</h3><table class=\"hl7__eu__lab__report\"><tr><th>Conclusion and Recommendations based on this report and previous findings known to us</th></tr><tr><td>All results are within normal limits except for a mildly elevated HbA1c (6.0%), indicating prediabetes, and triglycerides at the upper normal limit. Renal function, electrolytes, and lipid profile are otherwise unremarkable. Recommend lifestyle modification and follow-up for glycemic control. No acute laboratory concerns.</td></tr></table></div>"
            },
            "code": {
              "coding": [
                {
                  "system": "http://loinc.org",
                  "code": "48767-8",
                  "display": "Annotation comment"
                }
              ]
            },
            "title": "Annotation comment"
          }
        ],
        "status": "final",
        "subject": {
          "reference": "urn:uuid:31d74e5c-e12d-4eb9-b7eb-dd4b6963f435",
          "display": "Aniela Sacharczuk"
        },
        "date": "2022-12-27T06:26:59Z",
        "title": "Laboratory Report",
        "confidentiality": "N"
      }
    },
    {
      "fullUrl": "urn:uuid:fcf0d115-ee54-44cf-8fc5-de8d048dd096",
      "resource": {
        "resourceType": "DiagnosticReport",
        "id": "fcf0d115-ee54-44cf-8fc5-de8d048dd096",
        "meta": {
          "profile": [
            "http://hl7.eu/fhir/laboratory/StructureDefinition/DiagnosticReport-eu-lab"
          ]
        },
        "identifier": [
          {
            "assigner": {
              "display": "HL7 Europe"
            },
            "system": "urn:oid:2.16.840.1.113883.2.51.999",
            "value": "9ded6c46-c6b4-4934-9913-17fd3a9099f5"
          }
        ],
        "extension": [
          {
            "url": "http://hl7.org/fhir/5.0/StructureDefinition/extension-DiagnosticReport.composition",
            "valueReference": {
              "reference": "urn:uuid:bc119c2f-086e-4dbf-b909-f055690f1efa"
            }
          }
        ],
        "category": [
          {
            "coding": [
              {
                "code": "26436-6",
                "system": "http://loinc.org",
                "display": "Laboratory studies (set)"
              }
            ]
          }
        ],
        "specimen": [
          {
            "reference": "urn:uuid:0a620a46-7223-4303-8acb-210a08f14f6b"
          },
          {
            "reference": "urn:uuid:7d93aa66-87b4-42ec-80c3-7e74552183f5"
          }
        ],
        "result": [
          {
            "reference": "urn:uuid:31cfc202-68cc-42bd-bea8-5bf56abd370a"
          },
          {
            "reference": "urn:uuid:fb9b55ac-c1e2-4bb8-a447-c4e03515c03b"
          },
          {
            "reference": "urn:uuid:b292f10f-90ba-4b78-848d-8c6f2b5fba8c"
          },
          {
            "reference": "urn:uuid:4656bed9-a823-48a3-b955-914d76dde056"
          },
          {
            "reference": "urn:uuid:7545c8df-6097-46a0-96d2-c257e656b413"
          },
          {
            "reference": "urn:uuid:452cbea6-83a2-4f9d-82b8-a38340487af2"
          },
          {
            "reference": "urn:uuid:c97c9172-f1f3-4115-94c4-45193e891351"
          },
          {
            "reference": "urn:uuid:64a7af9b-c4a0-442c-aa37-3cc8e9dcc157"
          },
          {
            "reference": "urn:uuid:6a9b9b94-c18d-4ed8-88f3-b92fa01ebf46"
          },
          {
            "reference": "urn:uuid:316e740a-9d20-4bb3-a094-8a94026913ed"
          },
          {
            "reference": "urn:uuid:b85b96e9-1b6a-4c7a-80c7-2857b603ec25"
          },
          {
            "reference": "urn:uuid:4d8d30ab-8542-494e-885a-302e86170f11"
          },
          {
            "reference": "urn:uuid:cec88f5f-deab-4c00-8cb6-8dd1d32d2c9d"
          }
        ],
        "status": "registered",
        "code": {
          "coding": [
            {
              "code": "11502-2",
              "system": "http://loinc.org",
              "display": "Laboratory report"
            }
          ]
        },
        "subject": {
          "reference": "urn:uuid:31d74e5c-e12d-4eb9-b7eb-dd4b6963f435",
          "display": "Aniela Sacharczuk"
        }
      }
    },
    {
      "fullUrl": "urn:uuid:31d74e5c-e12d-4eb9-b7eb-dd4b6963f435",
      "resource": {
        "resourceType": "Patient",
        "id": "31d74e5c-e12d-4eb9-b7eb-dd4b6963f435",
        "meta": {
          "security": [
            {
              "system": "http://terminology.hl7.org/CodeSystem/v3-ActReason",
              "code": "HTEST"
            },
            {
              "system": "http://terminology.hl7.org/CodeSystem/v3-ActReason",
              "code": "TRAIN"
            }
          ],
          "tag": [
            {
              "system": "https://synderai.net/fhir/CodeSystem/tags",
              "code": "synthetic",
              "display": "SYNDERAI Synthetic data"
            }
          ],
          "profile": [
            "http://hl7.eu/fhir/base/StructureDefinition/patient-eu-core"
          ]
        },
        "identifier": [
          {
            "type": {
              "coding": [
                {
                  "code": "PT",
                  "system": "http://terminology.hl7.org/CodeSystem/v2-0203"
                }
              ]
            },
            "system": "http://ec.europa.eu/identifier/eci",
            "value": "3843-787162-7"
          },
          {
            "type": {
              "coding": [
                {
                  "code": "MR",
                  "system": "http://terminology.hl7.org/CodeSystem/v2-0203"
                }
              ]
            },
            "system": "http://local.setting.eu/identifier",
            "value": "cd2e7aac-e2c0-8306-b862-9ed4c443c8b5"
          }
        ],
        "name": [
          {
            "family": "Sacharczuk"
          },
          {
            "given": [
              "Aniela"
            ]
          },
          {
            "text": "Aniela Sacharczuk"
          }
        ],
        "address": [
          {
            "line": [
              "plac Szpitalna 13"
            ],
            "use": "home",
            "type": "physical",
            "postalCode": "27-600",
            "city": "Sandomierz",
            "country": "Poland"
          }
        ],
        "telecom": [
          {
            "system": "phone",
            "value": "+48 536 227 035"
          }
        ],
        "extension": [
          {
            "url": "http://hl7.org/fhir/StructureDefinition/patient-nationality",
            "valueCodeableConcept": {
              "coding": [
                {
                  "code": "PL",
                  "system": "http://hl7.org/fhir/ValueSet/country"
                }
              ]
            }
          }
        ],
        "text": {
          "status": "generated",
          "div": "<div xmlns=\"http://www.w3.org/1999/xhtml\"><table class=\"hl7__ips\"><tr><td>Aniela Sacharczuk</td><td>female</td><td>02-Nov-1970</td></tr></table></div>"
        },
        "gender": "female",
        "birthDate": "1970-11-02"
      }
    },
    {
      "fullUrl": "urn:uuid:69f89e22-2952-4ae5-893a-f4d361277a25",
      "resource": {
        "resourceType": "ServiceRequest",
        "id": "69f89e22-2952-4ae5-893a-f4d361277a25",
        "meta": {
          "profile": [
            "http://hl7.eu/fhir/laboratory/StructureDefinition/ServiceRequest-eu-lab"
          ]
        },
        "identifier": [
          {
            "system": "http://example.org",
            "value": "dcbc0161-6815-4a4a-a5f4-251afe68769a"
          }
        ],
        "specimen": [
          {
            "reference": "urn:uuid:0a620a46-7223-4303-8acb-210a08f14f6b"
          },
          {
            "reference": "urn:uuid:7d93aa66-87b4-42ec-80c3-7e74552183f5"
          }
        ],
        "reasonCode": [
          {
            "coding": [
              {
                "code": "237602007",
                "system": "http://snomed.info/sct",
                "display": "Metabolic syndrome X"
              }
            ]
          },
          {
            "coding": [
              {
                "code": "15777000",
                "system": "http://snomed.info/sct",
                "display": "Prediabetes"
              }
            ]
          },
          {
            "coding": [
              {
                "code": "59621000",
                "system": "http://snomed.info/sct",
                "display": "Essential hypertension"
              }
            ]
          }
        ],
        "status": "active",
        "intent": "order",
        "code": {
          "coding": [
            {
              "code": "108252007",
              "system": "http://snomed.info/sct",
              "display": "Laboratory procedure"
            }
          ]
        },
        "subject": {
          "reference": "urn:uuid:31d74e5c-e12d-4eb9-b7eb-dd4b6963f435",
          "display": "Aniela Sacharczuk"
        },
        "requester": {
          "reference": "urn:uuid:5de766fe-0c99-4342-ab06-ac8706a5a9a9"
        }
      }
    },
    {
      "fullUrl": "urn:uuid:5de766fe-0c99-4342-ab06-ac8706a5a9a9",
      "resource": {
        "resourceType": "PractitionerRole",
        "id": "5de766fe-0c99-4342-ab06-ac8706a5a9a9",
        "meta": {
          "profile": [
            "http://hl7.eu/fhir/base/StructureDefinition/practitionerRole-eu"
          ]
        },
        "text": {
          "status": "generated",
          "div": "<div xmlns=\"http://www.w3.org/1999/xhtml\">Provider Role Id: 5de766fe-0c99-4342-ab06-ac8706a5a9a9</div>"
        },
        "organization": {
          "reference": "urn:uuid:af9dca06-171f-477b-967f-ab17034c0908"
        }
      }
    },
    {
      "fullUrl": "urn:uuid:af9dca06-171f-477b-967f-ab17034c0908",
      "resource": {
        "resourceType": "Organization",
        "id": "af9dca06-171f-477b-967f-ab17034c0908",
        "meta": {
          "profile": [
            "http://hl7.eu/fhir/base/StructureDefinition/organization-eu"
          ]
        },
        "identifier": [
          {
            "assigner": {
              "display": "HL7 Europe"
            },
            "system": "urn:oid:2.16.840.1.113883.2.51.999",
            "value": "03094833-c6f4-4208-af31-de60354deedc"
          }
        ],
        "address": [
          {
            "line": [
              "Józefa Piłsudskiego 17"
            ],
            "city": "Gorzyce",
            "postalCode": "39-432",
            "country": "Poland"
          }
        ],
        "text": {
          "status": "generated",
          "div": "<div xmlns=\"http://www.w3.org/1999/xhtml\">Provider Organization: Ośrodek Zdrowia</div>"
        },
        "name": "Ośrodek Zdrowia"
      }
    },
    {
      "fullUrl": "urn:uuid:0a620a46-7223-4303-8acb-210a08f14f6b",
      "resource": {
        "resourceType": "Specimen",
        "id": "0a620a46-7223-4303-8acb-210a08f14f6b",
        "meta": {
          "profile": [
            "http://hl7.eu/fhir/laboratory/StructureDefinition/Specimen-eu-lab"
          ]
        },
        "collection": {
          "collectedDateTime": "2022-12-27"
        },
        "text": {
          "status": "generated",
          "div": "<div xmlns=\"http://www.w3.org/1999/xhtml\"><table class=\"hl7__eu__lab__report\"><tr><th>Specimen</th><th>Collection Date</th></tr><tr><td>Whole blood specimen (specimen)</td><td><span class=\"nb\">27-Dec-2022</span></td></tr></table></div>"
        },
        "type": {
          "coding": [
            {
              "code": "258580003",
              "system": "http://snomed.info/sct",
              "display": "Whole blood specimen (specimen)"
            }
          ]
        }
      }
    },
    {
      "fullUrl": "urn:uuid:7d93aa66-87b4-42ec-80c3-7e74552183f5",
      "resource": {
        "resourceType": "Specimen",
        "id": "7d93aa66-87b4-42ec-80c3-7e74552183f5",
        "meta": {
          "profile": [
            "http://hl7.eu/fhir/laboratory/StructureDefinition/Specimen-eu-lab"
          ]
        },
        "collection": {
          "collectedDateTime": "2022-12-27"
        },
        "text": {
          "status": "generated",
          "div": "<div xmlns=\"http://www.w3.org/1999/xhtml\"><table class=\"hl7__eu__lab__report\"><tr><th>Specimen</th><th>Collection Date</th></tr><tr><td>Acellular blood (serum or plasma) specimen</td><td><span class=\"nb\">27-Dec-2022</span></td></tr></table></div>"
        },
        "type": {
          "coding": [
            {
              "code": "122592007",
              "system": "http://snomed.info/sct",
              "display": "Acellular blood (serum or plasma) specimen"
            }
          ]
        }
      }
    },
    {
      "fullUrl": "urn:uuid:31cfc202-68cc-42bd-bea8-5bf56abd370a",
      "resource": {
        "resourceType": "Observation",
        "id": "31cfc202-68cc-42bd-bea8-5bf56abd370a",
        "meta": {
          "profile": [
            "http://hl7.eu/fhir/laboratory/StructureDefinition/Observation-resultslab-eu-lab"
          ]
        },
        "performer": [
          {
            "display": "The Central European Lab"
          }
        ],
        "category": [
          {
            "coding": [
              {
                "system": "http://terminology.hl7.org/CodeSystem/observation-category",
                "code": "laboratory"
              }
            ]
          }
        ],
        "code": {
          "coding": [
            {
              "code": "4548-4",
              "system": "http://loinc.org",
              "display": "Hemoglobin A1c/Hemoglobin.total in Blood"
            }
          ],
          "text": "Hemoglobin A1c/Hemoglobin.total in Blood"
        },
        "valueQuantity": {
          "system": "http://unitsofmeasure.org",
          "value": 6,
          "unit": "%",
          "code": "%"
        },
        "referenceRange": [
          {
            "low": {
              "value": 4.8,
              "code": "%",
              "system": "http://unitsofmeasure.org"
            }
          },
          {
            "high": {
              "value": 5.7,
              "code": "%",
              "system": "http://unitsofmeasure.org"
            }
          }
        ],
        "interpretation": [
          {
            "coding": [
              {
                "code": "H",
                "system": "http://terminology.hl7.org/CodeSystem/v3-ObservationInterpretation",
                "display": "High"
              }
            ]
          }
        ],
        "text": {
          "status": "generated",
          "div": "<div xmlns=\"http://www.w3.org/1999/xhtml\"><table class=\"hl7__eu__lab__report\"><tr><th>Test</th><th>27-Dec-2022</th><th>Reference&#xA0;Range</th><th>Unit</th></tr><tr><td>Hemoglobin A1c/Hemoglobin.total in Blood</td><td>6.0</td><td>4.8 - 5.7</td><td>H</td><td>%</td></tr></table></div>"
        },
        "status": "final",
        "subject": {
          "reference": "urn:uuid:31d74e5c-e12d-4eb9-b7eb-dd4b6963f435",
          "display": "Aniela Sacharczuk"
        },
        "effectiveDateTime": "2022-12-27T05:26:59Z",
        "specimen": {
          "reference": "urn:uuid:0a620a46-7223-4303-8acb-210a08f14f6b"
        }
      }
    },
    {
      "fullUrl": "urn:uuid:fb9b55ac-c1e2-4bb8-a447-c4e03515c03b",
      "resource": {
        "resourceType": "Observation",
        "id": "fb9b55ac-c1e2-4bb8-a447-c4e03515c03b",
        "meta": {
          "profile": [
            "http://hl7.eu/fhir/laboratory/StructureDefinition/Observation-resultslab-eu-lab"
          ]
        },
        "performer": [
          {
            "display": "The Central European Lab"
          }
        ],
        "category": [
          {
            "coding": [
              {
                "system": "http://terminology.hl7.org/CodeSystem/observation-category",
                "code": "laboratory"
              }
            ]
          }
        ],
        "code": {
          "coding": [
            {
              "code": "2339-0",
              "system": "http://loinc.org",
              "display": "Glucose [Mass/volume] in Blood"
            }
          ],
          "text": "Glucose [Mass/volume] in Blood"
        },
        "valueQuantity": {
          "system": "http://unitsofmeasure.org",
          "value": 78.3,
          "unit": "mg/dL",
          "code": "mg/dL"
        },
        "referenceRange": [
          {
            "low": {
              "value": 70,
              "code": "mg/dL",
              "system": "http://unitsofmeasure.org"
            }
          },
          {
            "high": {
              "value": 99,
              "code": "mg/dL",
              "system": "http://unitsofmeasure.org"
            }
          }
        ],
        "text": {
          "status": "generated",
          "div": "<div xmlns=\"http://www.w3.org/1999/xhtml\"><table class=\"hl7__eu__lab__report\"><tr><th>Test</th><th>27-Dec-2022</th><th>Reference&#xA0;Range</th><th>Unit</th></tr><tr><td>Glucose [Mass/volume] in Blood</td><td>78.3</td><td>70 - 99</td><td></td><td>mg/dL</td></tr></table></div>"
        },
        "status": "final",
        "subject": {
          "reference": "urn:uuid:31d74e5c-e12d-4eb9-b7eb-dd4b6963f435",
          "display": "Aniela Sacharczuk"
        },
        "effectiveDateTime": "2022-12-27T05:26:59Z",
        "specimen": {
          "reference": "urn:uuid:0a620a46-7223-4303-8acb-210a08f14f6b"
        }
      }
    },
    {
      "fullUrl": "urn:uuid:b292f10f-90ba-4b78-848d-8c6f2b5fba8c",
      "resource": {
        "resourceType": "Observation",
        "id": "b292f10f-90ba-4b78-848d-8c6f2b5fba8c",
        "meta": {
          "profile": [
            "http://hl7.eu/fhir/laboratory/StructureDefinition/Observation-resultslab-eu-lab"
          ]
        },
        "performer": [
          {
            "display": "The Central European Lab"
          }
        ],
        "category": [
          {
            "coding": [
              {
                "system": "http://terminology.hl7.org/CodeSystem/observation-category",
                "code": "laboratory"
              }
            ]
          }
        ],
        "code": {
          "coding": [
            {
              "code": "6299-2",
              "system": "http://loinc.org",
              "display": "Urea nitrogen [Mass/volume] in Blood"
            }
          ],
          "text": "Urea nitrogen [Mass/volume] in Blood"
        },
        "valueQuantity": {
          "system": "http://unitsofmeasure.org",
          "value": 19.4,
          "unit": "mg/dL",
          "code": "mg/dL"
        },
        "referenceRange": [
          {
            "low": {
              "value": 7,
              "code": "mg/dL",
              "system": "http://unitsofmeasure.org"
            }
          },
          {
            "high": {
              "value": 20,
              "code": "mg/dL",
              "system": "http://unitsofmeasure.org"
            }
          }
        ],
        "text": {
          "status": "generated",
          "div": "<div xmlns=\"http://www.w3.org/1999/xhtml\"><table class=\"hl7__eu__lab__report\"><tr><th>Test</th><th>27-Dec-2022</th><th>Reference&#xA0;Range</th><th>Unit</th></tr><tr><td>Urea nitrogen [Mass/volume] in Blood</td><td>19.4</td><td>7 - 20</td><td></td><td>mg/dL</td></tr></table></div>"
        },
        "status": "final",
        "subject": {
          "reference": "urn:uuid:31d74e5c-e12d-4eb9-b7eb-dd4b6963f435",
          "display": "Aniela Sacharczuk"
        },
        "effectiveDateTime": "2022-12-27T05:26:59Z",
        "specimen": {
          "reference": "urn:uuid:0a620a46-7223-4303-8acb-210a08f14f6b"
        }
      }
    },
    {
      "fullUrl": "urn:uuid:4656bed9-a823-48a3-b955-914d76dde056",
      "resource": {
        "resourceType": "Observation",
        "id": "4656bed9-a823-48a3-b955-914d76dde056",
        "meta": {
          "profile": [
            "http://hl7.eu/fhir/laboratory/StructureDefinition/Observation-resultslab-eu-lab"
          ]
        },
        "performer": [
          {
            "display": "The Central European Lab"
          }
        ],
        "category": [
          {
            "coding": [
              {
                "system": "http://terminology.hl7.org/CodeSystem/observation-category",
                "code": "laboratory"
              }
            ]
          }
        ],
        "code": {
          "coding": [
            {
              "code": "38483-4",
              "system": "http://loinc.org",
              "display": "Creatinine [Mass/volume] in Blood"
            }
          ],
          "text": "Creatinine [Mass/volume] in Blood"
        },
        "valueQuantity": {
          "system": "http://unitsofmeasure.org",
          "value": 0.8,
          "unit": "mg/dL",
          "code": "mg/dL"
        },
        "referenceRange": [
          {
            "low": {
              "value": 0.6,
              "code": "mg/dL",
              "system": "http://unitsofmeasure.org"
            }
          },
          {
            "high": {
              "value": 1.1,
              "code": "mg/dL",
              "system": "http://unitsofmeasure.org"
            }
          }
        ],
        "text": {
          "status": "generated",
          "div": "<div xmlns=\"http://www.w3.org/1999/xhtml\"><table class=\"hl7__eu__lab__report\"><tr><th>Test</th><th>27-Dec-2022</th><th>Reference&#xA0;Range</th><th>Unit</th></tr><tr><td>Creatinine [Mass/volume] in Blood</td><td>0.8</td><td>0.6 - 1.1</td><td></td><td>mg/dL</td></tr></table></div>"
        },
        "status": "final",
        "subject": {
          "reference": "urn:uuid:31d74e5c-e12d-4eb9-b7eb-dd4b6963f435",
          "display": "Aniela Sacharczuk"
        },
        "effectiveDateTime": "2022-12-27T05:26:59Z",
        "specimen": {
          "reference": "urn:uuid:0a620a46-7223-4303-8acb-210a08f14f6b"
        }
      }
    },
    {
      "fullUrl": "urn:uuid:7545c8df-6097-46a0-96d2-c257e656b413",
      "resource": {
        "resourceType": "Observation",
        "id": "7545c8df-6097-46a0-96d2-c257e656b413",
        "meta": {
          "profile": [
            "http://hl7.eu/fhir/laboratory/StructureDefinition/Observation-resultslab-eu-lab"
          ]
        },
        "performer": [
          {
            "display": "The Central European Lab"
          }
        ],
        "category": [
          {
            "coding": [
              {
                "system": "http://terminology.hl7.org/CodeSystem/observation-category",
                "code": "laboratory"
              }
            ]
          }
        ],
        "code": {
          "coding": [
            {
              "code": "49765-1",
              "system": "http://loinc.org",
              "display": "Calcium [Mass/volume] in Blood"
            }
          ],
          "text": "Calcium [Mass/volume] in Blood"
        },
        "valueQuantity": {
          "system": "http://unitsofmeasure.org",
          "value": 9.2,
          "unit": "mg/dL",
          "code": "mg/dL"
        },
        "referenceRange": [
          {
            "low": {
              "value": 8.5,
              "code": "mg/dL",
              "system": "http://unitsofmeasure.org"
            }
          },
          {
            "high": {
              "value": 10.5,
              "code": "mg/dL",
              "system": "http://unitsofmeasure.org"
            }
          }
        ],
        "text": {
          "status": "generated",
          "div": "<div xmlns=\"http://www.w3.org/1999/xhtml\"><table class=\"hl7__eu__lab__report\"><tr><th>Test</th><th>27-Dec-2022</th><th>Reference&#xA0;Range</th><th>Unit</th></tr><tr><td>Calcium [Mass/volume] in Blood</td><td>9.2</td><td>8.5 - 10.5</td><td></td><td>mg/dL</td></tr></table></div>"
        },
        "status": "final",
        "subject": {
          "reference": "urn:uuid:31d74e5c-e12d-4eb9-b7eb-dd4b6963f435",
          "display": "Aniela Sacharczuk"
        },
        "effectiveDateTime": "2022-12-27T05:26:59Z",
        "specimen": {
          "reference": "urn:uuid:0a620a46-7223-4303-8acb-210a08f14f6b"
        }
      }
    },
    {
      "fullUrl": "urn:uuid:452cbea6-83a2-4f9d-82b8-a38340487af2",
      "resource": {
        "resourceType": "Observation",
        "id": "452cbea6-83a2-4f9d-82b8-a38340487af2",
        "meta": {
          "profile": [
            "http://hl7.eu/fhir/laboratory/StructureDefinition/Observation-resultslab-eu-lab"
          ]
        },
        "performer": [
          {
            "display": "The Central European Lab"
          }
        ],
        "category": [
          {
            "coding": [
              {
                "system": "http://terminology.hl7.org/CodeSystem/observation-category",
                "code": "laboratory"
              }
            ]
          }
        ],
        "code": {
          "coding": [
            {
              "code": "2947-0",
              "system": "http://loinc.org",
              "display": "Sodium [Moles/volume] in Blood"
            }
          ],
          "text": "Sodium [Moles/volume] in Blood"
        },
        "valueQuantity": {
          "system": "http://unitsofmeasure.org",
          "value": 137.4,
          "unit": "mmol/L",
          "code": "mmol/L"
        },
        "referenceRange": [
          {
            "low": {
              "value": 135,
              "code": "mmol/L",
              "system": "http://unitsofmeasure.org"
            }
          },
          {
            "high": {
              "value": 145,
              "code": "mmol/L",
              "system": "http://unitsofmeasure.org"
            }
          }
        ],
        "text": {
          "status": "generated",
          "div": "<div xmlns=\"http://www.w3.org/1999/xhtml\"><table class=\"hl7__eu__lab__report\"><tr><th>Test</th><th>27-Dec-2022</th><th>Reference&#xA0;Range</th><th>Unit</th></tr><tr><td>Sodium [Moles/volume] in Blood</td><td>137.4</td><td>135 - 145</td><td></td><td>mmol/L</td></tr></table></div>"
        },
        "status": "final",
        "subject": {
          "reference": "urn:uuid:31d74e5c-e12d-4eb9-b7eb-dd4b6963f435",
          "display": "Aniela Sacharczuk"
        },
        "effectiveDateTime": "2022-12-27T05:26:59Z",
        "specimen": {
          "reference": "urn:uuid:0a620a46-7223-4303-8acb-210a08f14f6b"
        }
      }
    },
    {
      "fullUrl": "urn:uuid:c97c9172-f1f3-4115-94c4-45193e891351",
      "resource": {
        "resourceType": "Observation",
        "id": "c97c9172-f1f3-4115-94c4-45193e891351",
        "meta": {
          "profile": [
            "http://hl7.eu/fhir/laboratory/StructureDefinition/Observation-resultslab-eu-lab"
          ]
        },
        "performer": [
          {
            "display": "The Central European Lab"
          }
        ],
        "category": [
          {
            "coding": [
              {
                "system": "http://terminology.hl7.org/CodeSystem/observation-category",
                "code": "laboratory"
              }
            ]
          }
        ],
        "code": {
          "coding": [
            {
              "code": "6298-4",
              "system": "http://loinc.org",
              "display": "Potassium [Moles/volume] in Blood"
            }
          ],
          "text": "Potassium [Moles/volume] in Blood"
        },
        "valueQuantity": {
          "system": "http://unitsofmeasure.org",
          "value": 5.2,
          "unit": "mmol/L",
          "code": "mmol/L"
        },
        "referenceRange": [
          {
            "low": {
              "value": 3.5,
              "code": "mmol/L",
              "system": "http://unitsofmeasure.org"
            }
          },
          {
            "high": {
              "value": 5.3,
              "code": "mmol/L",
              "system": "http://unitsofmeasure.org"
            }
          }
        ],
        "text": {
          "status": "generated",
          "div": "<div xmlns=\"http://www.w3.org/1999/xhtml\"><table class=\"hl7__eu__lab__report\"><tr><th>Test</th><th>27-Dec-2022</th><th>Reference&#xA0;Range</th><th>Unit</th></tr><tr><td>Potassium [Moles/volume] in Blood</td><td>5.2</td><td>3.5 - 5.3</td><td></td><td>mmol/L</td></tr></table></div>"
        },
        "status": "final",
        "subject": {
          "reference": "urn:uuid:31d74e5c-e12d-4eb9-b7eb-dd4b6963f435",
          "display": "Aniela Sacharczuk"
        },
        "effectiveDateTime": "2022-12-27T05:26:59Z",
        "specimen": {
          "reference": "urn:uuid:0a620a46-7223-4303-8acb-210a08f14f6b"
        }
      }
    },
    {
      "fullUrl": "urn:uuid:64a7af9b-c4a0-442c-aa37-3cc8e9dcc157",
      "resource": {
        "resourceType": "Observation",
        "id": "64a7af9b-c4a0-442c-aa37-3cc8e9dcc157",
        "meta": {
          "profile": [
            "http://hl7.eu/fhir/laboratory/StructureDefinition/Observation-resultslab-eu-lab"
          ]
        },
        "performer": [
          {
            "display": "The Central European Lab"
          }
        ],
        "category": [
          {
            "coding": [
              {
                "system": "http://terminology.hl7.org/CodeSystem/observation-category",
                "code": "laboratory"
              }
            ]
          }
        ],
        "code": {
          "coding": [
            {
              "code": "2069-3",
              "system": "http://loinc.org",
              "display": "Chloride [Moles/volume] in Blood"
            }
          ],
          "text": "Chloride [Moles/volume] in Blood"
        },
        "valueQuantity": {
          "system": "http://unitsofmeasure.org",
          "value": 103.6,
          "unit": "mmol/L",
          "code": "mmol/L"
        },
        "referenceRange": [
          {
            "low": {
              "value": 98,
              "code": "mmol/L",
              "system": "http://unitsofmeasure.org"
            }
          },
          {
            "high": {
              "value": 114,
              "code": "mmol/L",
              "system": "http://unitsofmeasure.org"
            }
          }
        ],
        "text": {
          "status": "generated",
          "div": "<div xmlns=\"http://www.w3.org/1999/xhtml\"><table class=\"hl7__eu__lab__report\"><tr><th>Test</th><th>27-Dec-2022</th><th>Reference&#xA0;Range</th><th>Unit</th></tr><tr><td>Chloride [Moles/volume] in Blood</td><td>103.6</td><td>98 - 114</td><td></td><td>mmol/L</td></tr></table></div>"
        },
        "status": "final",
        "subject": {
          "reference": "urn:uuid:31d74e5c-e12d-4eb9-b7eb-dd4b6963f435",
          "display": "Aniela Sacharczuk"
        },
        "effectiveDateTime": "2022-12-27T05:26:59Z",
        "specimen": {
          "reference": "urn:uuid:0a620a46-7223-4303-8acb-210a08f14f6b"
        }
      }
    },
    {
      "fullUrl": "urn:uuid:6a9b9b94-c18d-4ed8-88f3-b92fa01ebf46",
      "resource": {
        "resourceType": "Observation",
        "id": "6a9b9b94-c18d-4ed8-88f3-b92fa01ebf46",
        "meta": {
          "profile": [
            "http://hl7.eu/fhir/laboratory/StructureDefinition/Observation-resultslab-eu-lab"
          ]
        },
        "performer": [
          {
            "display": "The Central European Lab"
          }
        ],
        "category": [
          {
            "coding": [
              {
                "system": "http://terminology.hl7.org/CodeSystem/observation-category",
                "code": "laboratory"
              }
            ]
          }
        ],
        "code": {
          "coding": [
            {
              "code": "20565-8",
              "system": "http://loinc.org",
              "display": "Carbon dioxide, total [Moles/volume] in Blood"
            }
          ],
          "text": "Carbon dioxide, total [Moles/volume] in Blood"
        },
        "valueQuantity": {
          "system": "http://unitsofmeasure.org",
          "value": 26.1,
          "unit": "mmol/L",
          "code": "mmol/L"
        },
        "referenceRange": [
          {
            "low": {
              "value": 22,
              "code": "mmol/L",
              "system": "http://unitsofmeasure.org"
            }
          },
          {
            "high": {
              "value": 29,
              "code": "mmol/L",
              "system": "http://unitsofmeasure.org"
            }
          }
        ],
        "text": {
          "status": "generated",
          "div": "<div xmlns=\"http://www.w3.org/1999/xhtml\"><table class=\"hl7__eu__lab__report\"><tr><th>Test</th><th>27-Dec-2022</th><th>Reference&#xA0;Range</th><th>Unit</th></tr><tr><td>Carbon dioxide, total [Moles/volume] in Blood</td><td>26.1</td><td>22 - 29</td><td></td><td>mmol/L</td></tr></table></div>"
        },
        "status": "final",
        "subject": {
          "reference": "urn:uuid:31d74e5c-e12d-4eb9-b7eb-dd4b6963f435",
          "display": "Aniela Sacharczuk"
        },
        "effectiveDateTime": "2022-12-27T05:26:59Z",
        "specimen": {
          "reference": "urn:uuid:0a620a46-7223-4303-8acb-210a08f14f6b"
        }
      }
    },
    {
      "fullUrl": "urn:uuid:316e740a-9d20-4bb3-a094-8a94026913ed",
      "resource": {
        "resourceType": "Observation",
        "id": "316e740a-9d20-4bb3-a094-8a94026913ed",
        "meta": {
          "profile": [
            "http://hl7.eu/fhir/laboratory/StructureDefinition/Observation-resultslab-eu-lab"
          ]
        },
        "performer": [
          {
            "display": "The Central European Lab"
          }
        ],
        "category": [
          {
            "coding": [
              {
                "system": "http://terminology.hl7.org/CodeSystem/observation-category",
                "code": "laboratory"
              }
            ]
          }
        ],
        "code": {
          "coding": [
            {
              "code": "2093-3",
              "system": "http://loinc.org",
              "display": "Cholesterol [Mass/volume] in Serum or Plasma"
            }
          ],
          "text": "Cholesterol [Mass/volume] in Serum or Plasma"
        },
        "valueQuantity": {
          "system": "http://unitsofmeasure.org",
          "value": 171.3,
          "unit": "mg/dL",
          "code": "mg/dL"
        },
        "referenceRange": [
          {
            "low": {
              "value": 125,
              "code": "mg/dL",
              "system": "http://unitsofmeasure.org"
            }
          },
          {
            "high": {
              "value": 200,
              "code": "mg/dL",
              "system": "http://unitsofmeasure.org"
            }
          }
        ],
        "text": {
          "status": "generated",
          "div": "<div xmlns=\"http://www.w3.org/1999/xhtml\"><table class=\"hl7__eu__lab__report\"><tr><th>Test</th><th>27-Dec-2022</th><th>Reference&#xA0;Range</th><th>Unit</th></tr><tr><td>Cholesterol [Mass/volume] in Serum or Plasma</td><td>171.3</td><td>125 - 200</td><td></td><td>mg/dL</td></tr></table></div>"
        },
        "status": "final",
        "subject": {
          "reference": "urn:uuid:31d74e5c-e12d-4eb9-b7eb-dd4b6963f435",
          "display": "Aniela Sacharczuk"
        },
        "effectiveDateTime": "2022-12-27T05:26:59Z",
        "specimen": {
          "reference": "urn:uuid:7d93aa66-87b4-42ec-80c3-7e74552183f5"
        }
      }
    },
    {
      "fullUrl": "urn:uuid:b85b96e9-1b6a-4c7a-80c7-2857b603ec25",
      "resource": {
        "resourceType": "Observation",
        "id": "b85b96e9-1b6a-4c7a-80c7-2857b603ec25",
        "meta": {
          "profile": [
            "http://hl7.eu/fhir/laboratory/StructureDefinition/Observation-resultslab-eu-lab"
          ]
        },
        "performer": [
          {
            "display": "The Central European Lab"
          }
        ],
        "category": [
          {
            "coding": [
              {
                "system": "http://terminology.hl7.org/CodeSystem/observation-category",
                "code": "laboratory"
              }
            ]
          }
        ],
        "code": {
          "coding": [
            {
              "code": "2571-8",
              "system": "http://loinc.org",
              "display": "Triglyceride [Mass/volume] in Serum or Plasma"
            }
          ],
          "text": "Triglyceride [Mass/volume] in Serum or Plasma"
        },
        "valueQuantity": {
          "system": "http://unitsofmeasure.org",
          "value": 146.2,
          "unit": "mg/dL",
          "code": "mg/dL"
        },
        "referenceRange": [
          {
            "low": {
              "value": 35,
              "code": "mg/dL",
              "system": "http://unitsofmeasure.org"
            }
          },
          {
            "high": {
              "value": 150,
              "code": "mg/dL",
              "system": "http://unitsofmeasure.org"
            }
          }
        ],
        "text": {
          "status": "generated",
          "div": "<div xmlns=\"http://www.w3.org/1999/xhtml\"><table class=\"hl7__eu__lab__report\"><tr><th>Test</th><th>27-Dec-2022</th><th>Reference&#xA0;Range</th><th>Unit</th></tr><tr><td>Triglyceride [Mass/volume] in Serum or Plasma</td><td>146.2</td><td>35 - 150</td><td></td><td>mg/dL</td></tr></table></div>"
        },
        "status": "final",
        "subject": {
          "reference": "urn:uuid:31d74e5c-e12d-4eb9-b7eb-dd4b6963f435",
          "display": "Aniela Sacharczuk"
        },
        "effectiveDateTime": "2022-12-27T05:26:59Z",
        "specimen": {
          "reference": "urn:uuid:7d93aa66-87b4-42ec-80c3-7e74552183f5"
        }
      }
    },
    {
      "fullUrl": "urn:uuid:4d8d30ab-8542-494e-885a-302e86170f11",
      "resource": {
        "resourceType": "Observation",
        "id": "4d8d30ab-8542-494e-885a-302e86170f11",
        "meta": {
          "profile": [
            "http://hl7.eu/fhir/laboratory/StructureDefinition/Observation-resultslab-eu-lab"
          ]
        },
        "performer": [
          {
            "display": "The Central European Lab"
          }
        ],
        "category": [
          {
            "coding": [
              {
                "system": "http://terminology.hl7.org/CodeSystem/observation-category",
                "code": "laboratory"
              }
            ]
          }
        ],
        "code": {
          "coding": [
            {
              "code": "18262-6",
              "system": "http://loinc.org",
              "display": "Cholesterol in LDL [Mass/volume] in Serum or Plasma by Direct assay"
            }
          ],
          "text": "Cholesterol in LDL [Mass/volume] in Serum or Plasma by Direct assay"
        },
        "valueQuantity": {
          "system": "http://unitsofmeasure.org",
          "value": 82.8,
          "unit": "mg/dL",
          "code": "mg/dL"
        },
        "referenceRange": [
          {
            "low": {
              "value": 0,
              "code": "mg/dL",
              "system": "http://unitsofmeasure.org"
            }
          },
          {
            "high": {
              "value": 130,
              "code": "mg/dL",
              "system": "http://unitsofmeasure.org"
            }
          }
        ],
        "text": {
          "status": "generated",
          "div": "<div xmlns=\"http://www.w3.org/1999/xhtml\"><table class=\"hl7__eu__lab__report\"><tr><th>Test</th><th>27-Dec-2022</th><th>Reference&#xA0;Range</th><th>Unit</th></tr><tr><td>Cholesterol in LDL [Mass/volume] in Serum or Plasma by Direct assay</td><td>82.8</td><td>0 - 130</td><td></td><td>mg/dL</td></tr></table></div>"
        },
        "status": "final",
        "subject": {
          "reference": "urn:uuid:31d74e5c-e12d-4eb9-b7eb-dd4b6963f435",
          "display": "Aniela Sacharczuk"
        },
        "effectiveDateTime": "2022-12-27T05:26:59Z",
        "specimen": {
          "reference": "urn:uuid:7d93aa66-87b4-42ec-80c3-7e74552183f5"
        }
      }
    },
    {
      "fullUrl": "urn:uuid:cec88f5f-deab-4c00-8cb6-8dd1d32d2c9d",
      "resource": {
        "resourceType": "Observation",
        "id": "cec88f5f-deab-4c00-8cb6-8dd1d32d2c9d",
        "meta": {
          "profile": [
            "http://hl7.eu/fhir/laboratory/StructureDefinition/Observation-resultslab-eu-lab"
          ]
        },
        "performer": [
          {
            "display": "The Central European Lab"
          }
        ],
        "category": [
          {
            "coding": [
              {
                "system": "http://terminology.hl7.org/CodeSystem/observation-category",
                "code": "laboratory"
              }
            ]
          }
        ],
        "code": {
          "coding": [
            {
              "code": "2085-9",
              "system": "http://loinc.org",
              "display": "Cholesterol in HDL [Mass/volume] in Serum or Plasma"
            }
          ],
          "text": "Cholesterol in HDL [Mass/volume] in Serum or Plasma"
        },
        "valueQuantity": {
          "system": "http://unitsofmeasure.org",
          "value": 59.3,
          "unit": "mg/dL",
          "code": "mg/dL"
        },
        "referenceRange": [
          {
            "low": {
              "value": 40,
              "code": "mg/dL",
              "system": "http://unitsofmeasure.org"
            }
          },
          {
            "high": {
              "value": 60,
              "code": "mg/dL",
              "system": "http://unitsofmeasure.org"
            }
          }
        ],
        "text": {
          "status": "generated",
          "div": "<div xmlns=\"http://www.w3.org/1999/xhtml\"><table class=\"hl7__eu__lab__report\"><tr><th>Test</th><th>27-Dec-2022</th><th>Reference&#xA0;Range</th><th>Unit</th></tr><tr><td>Cholesterol in HDL [Mass/volume] in Serum or Plasma</td><td>59.3</td><td>40 - 60</td><td></td><td>mg/dL</td></tr></table></div>"
        },
        "status": "final",
        "subject": {
          "reference": "urn:uuid:31d74e5c-e12d-4eb9-b7eb-dd4b6963f435",
          "display": "Aniela Sacharczuk"
        },
        "effectiveDateTime": "2022-12-27T05:26:59Z",
        "specimen": {
          "reference": "urn:uuid:7d93aa66-87b4-42ec-80c3-7e74552183f5"
        }
      }
    },
    {
      "fullUrl": "urn:uuid:78e461c8-d2e4-4315-a263-3a89cf40850f",
      "resource": {
        "resourceType": "Device",
        "id": "78e461c8-d2e4-4315-a263-3a89cf40850f",
        "deviceName": [
          {
            "name": "SYNDERAI Synthetic Generator",
            "type": "manufacturer-name"
          }
        ],
        "version": [
          {
            "value": "5.0"
          }
        ],
        "text": {
          "status": "generated",
          "div": "<div xmlns=\"http://www.w3.org/1999/xhtml\">SYNDERAI Synthetic Generator v5.0</div>"
        },
        "status": "active\"",
        "distinctIdentifier": "synderai-generator-50",
        "manufacturer": "SYNDERAI Project"
      }
    },
    {
      "fullUrl": "urn:uuid:2d70a96d-a953-42a1-8ca1-b9877c42876b",
      "resource": {
        "resourceType": "Provenance",
        "id": "2d70a96d-a953-42a1-8ca1-b9877c42876b",
        "target": [
          {
            "reference": "Patient/31d74e5c-e12d-4eb9-b7eb-dd4b6963f435"
          },
          {
            "reference": "Bundle/530750db-3a79-40f0-8036-331f3a9ead83"
          },
          {
            "reference": "Composition/0feb5b0a-4897-4fa3-a8b0-a630ea7716d5"
          },
          {
            "reference": "PractitionerRole/27ec0cec-354f-4d2b-bba4-675f82fdb47a"
          },
          {
            "reference": "Practitioner/ae71f5e7-2efa-469c-b5c0-028f8a15e57b"
          },
          {
            "reference": "PractitionerRole/5de766fe-0c99-4342-ab06-ac8706a5a9a9"
          },
          {
            "reference": "Organization/af9dca06-171f-477b-967f-ab17034c0908"
          }
        ],
        "activity": {
          "text": "Synthetic Example Data Generation"
        },
        "policy": [
          "https://synderai.net/synderai-synthetic-data-policy"
        ],
        "agent": [
          {
            "type": {
              "text": "author"
            },
            "who": {
              "reference": "Device/78e461c8-d2e4-4315-a263-3a89cf40850f"
            }
          }
        ],
        "reason": [
          {
            "text": "Interoperability Testing and Training (non-clinical use)"
          }
        ],
        "text": {
          "status": "generated",
          "div": "<div xmlns=\"http://www.w3.org/1999/xhtml\">Provenance for SYNDERAI Synthetic Example Data Resource</div>"
        },
        "recorded": "2022-12-27T06:26:59Z"
      }
    },
    {
      "fullUrl": "urn:uuid:27ec0cec-354f-4d2b-bba4-675f82fdb47a",
      "resource": {
        "resourceType": "PractitionerRole",
        "id": "27ec0cec-354f-4d2b-bba4-675f82fdb47a",
        "meta": {
          "profile": [
            "http://hl7.eu/fhir/base/StructureDefinition/practitionerRole-eu"
          ]
        },
        "text": {
          "status": "generated",
          "div": "<div xmlns=\"http://www.w3.org/1999/xhtml\">Laboratory Role Id: 27ec0cec-354f-4d2b-bba4-675f82fdb47a</div>"
        },
        "practitioner": {
          "reference": "urn:uuid:ae71f5e7-2efa-469c-b5c0-028f8a15e57b"
        }
      }
    },
    {
      "fullUrl": "urn:uuid:ae71f5e7-2efa-469c-b5c0-028f8a15e57b",
      "resource": {
        "resourceType": "Practitioner",
        "id": "ae71f5e7-2efa-469c-b5c0-028f8a15e57b",
        "meta": {
          "profile": [
            "http://hl7.eu/fhir/base/StructureDefinition/practitioner-eu"
          ]
        },
        "identifier": [
          {
            "assigner": {
              "display": "HL7 Europe"
            },
            "system": "urn:oid:2.16.840.1.113883.2.51.999",
            "value": "7241d95f-10bb-4969-ad8e-f1fc1d4c5aab"
          }
        ],
        "name": [
          {
            "prefix": [
              "dr"
            ],
            "given": [
              "Ex"
            ],
            "family": "Ample"
          }
        ],
        "address": [
          {
            "line": [
              "Laboratoire Central Européenne",
              "Boulevard du Jardin Botanique 32"
            ],
            "postalCode": "1000",
            "city": "Brussels",
            "country": "Belgium"
          }
        ],
        "text": {
          "status": "generated",
          "div": "<div xmlns=\"http://www.w3.org/1999/xhtml\">Laboratory: Laboratoire Central Européenne, 1000 Brussels, Belgium</div>"
        }
      }
    }
  ],
  "type": "document",
  "timestamp": "2022-12-27T06:26:59Z"
}
