{
  "resourceType": "Bundle",
  "id": "a5db34c2-fedd-40cf-9a4e-af8822fa56fa",
  "meta": {
    "profile": [
      "http://hl7.eu/fhir/laboratory/StructureDefinition/Bundle-eu-lab"
    ]
  },
  "identifier": {
    "assigner": {
      "display": "HL7 Europe"
    },
    "system": "urn:oid:2.16.840.1.113883.2.51.999",
    "value": "7cff6f47-55ad-4f0e-a3e3-a485c09752ec"
  },
  "entry": [
    {
      "fullUrl": "urn:uuid:f4564fbd-6ead-4cf9-90e5-479a43aed4d1",
      "resource": {
        "resourceType": "Composition",
        "id": "f4564fbd-6ead-4cf9-90e5-479a43aed4d1",
        "meta": {
          "profile": [
            "http://hl7.eu/fhir/laboratory/StructureDefinition/Composition-eu-lab"
          ]
        },
        "identifier": {
          "assigner": {
            "display": "HL7 Europe"
          },
          "system": "urn:oid:2.16.840.1.113883.2.51.999",
          "value": "3932b609-acb4-4b2f-849a-0d75c2b2df5f"
        },
        "author": [
          {
            "reference": "urn:uuid:395e64b0-7f5e-449f-b546-f1079ede1647"
          }
        ],
        "category": [
          {
            "coding": [
              {
                "code": "26436-6",
                "system": "http://loinc.org",
                "display": "Laboratory studies (set)"
              }
            ]
          }
        ],
        "type": {
          "coding": [
            {
              "code": "11502-2",
              "system": "http://loinc.org",
              "display": "Laboratory report"
            }
          ],
          "text": "Laboratory Report"
        },
        "section": [
          {
            "code": {
              "coding": [
                {
                  "code": "26436-6",
                  "system": "http://loinc.org",
                  "display": "Laboratory studies (set)"
                }
              ],
              "text": "Laboratory studies"
            },
            "section": [
              {
                "code": {
                  "coding": [
                    {
                      "code": "$18719-5",
                      "system": "http://loinc.org",
                      "display": "Chemistry studies (set)"
                    }
                  ],
                  "text": "Chemistry"
                },
                "entry": [
                  {
                    "reference": "urn:uuid:dbfac452-fad6-4828-9373-62485c284e58"
                  },
                  {
                    "reference": "urn:uuid:c6008ffc-e078-4085-be60-a2afbea14a7a"
                  },
                  {
                    "reference": "urn:uuid:7044615a-9eb8-4711-9780-d744c2640625"
                  },
                  {
                    "reference": "urn:uuid:e59e867b-24bc-4758-9fa2-9d4e8bac32a1"
                  },
                  {
                    "reference": "urn:uuid:3823202f-b1b8-4b09-b621-2c0acd82d306"
                  },
                  {
                    "reference": "urn:uuid:b1a47f22-9c08-4008-bff2-9aca6d32534d"
                  },
                  {
                    "reference": "urn:uuid:7fdd794e-0ff9-47f1-82a7-ec78400bdd95"
                  },
                  {
                    "reference": "urn:uuid:ae4ab895-f9ca-475d-aa9a-12ff66195946"
                  },
                  {
                    "reference": "urn:uuid:462f26de-0dc0-4550-9cb1-6effb69a5373"
                  },
                  {
                    "reference": "urn:uuid:da7e6b58-1e06-4c11-808f-c4d984a4589f"
                  },
                  {
                    "reference": "urn:uuid:bc137a92-caf4-40d9-a4ad-dde5a10576aa"
                  },
                  {
                    "reference": "urn:uuid:356b28ef-3193-4831-91aa-3f125aa8c22b"
                  },
                  {
                    "reference": "urn:uuid:fe1cbe59-2db7-430c-8755-abcfd70505cc"
                  },
                  {
                    "reference": "urn:uuid:ad3c3075-8415-467e-9d8b-5b1dca053ba4"
                  },
                  {
                    "reference": "urn:uuid:bf5bf048-7eb3-434d-abdd-9c55c1b3993f"
                  },
                  {
                    "reference": "urn:uuid:8100a178-348d-4e3f-91ee-af6798e2cade"
                  },
                  {
                    "reference": "urn:uuid:0016b0c8-64aa-44a2-b572-dd3b37ca3da7"
                  },
                  {
                    "reference": "urn:uuid:553c4b88-d794-412b-82c8-9dd77cb8f3b7"
                  },
                  {
                    "reference": "urn:uuid:fb4c167c-3158-4969-a889-d0420b35a3be"
                  }
                ],
                "text": {
                  "status": "generated",
                  "div": "<div xmlns=\"http://www.w3.org/1999/xhtml\"><h3>Chemistry</h3><table class=\"hl7__eu__lab__report\"><thead><tr><th>Test</th><th>16-OCT-2017</th><th>Reference&#xA0;Range</th><th>Unit</th></tr></thead><tbody><tr><td>Glucose [Mass/volume] in Blood</td><td>87.3</td><td>70 - 140</td><td>mg/dL</td></tr><tr><td>Urea nitrogen [Mass/volume] in Blood</td><td>9.0</td><td>7 - 25</td><td>mg/dL</td></tr><tr><td>Creatinine [Mass/volume] in Blood</td><td><strong>3.0 H</strong></td><td>0.6 - 1.1</td><td>mg/dL</td></tr><tr><td>Calcium [Mass/volume] in Blood</td><td>9.0</td><td>8.6 - 10.4</td><td>mg/dL</td></tr><tr><td>Sodium [Moles/volume] in Blood</td><td>141.4</td><td>135 - 145</td><td>mmol/L</td></tr><tr><td>Potassium [Moles/volume] in Blood</td><td>3.9</td><td>3.5 - 5.3</td><td>mmol/L</td></tr><tr><td>Chloride [Moles/volume] in Blood</td><td>103.7</td><td>98 - 108</td><td>mmol/L</td></tr><tr><td>Carbon dioxide, total [Moles/volume] in Blood</td><td>27.9</td><td>22 - 32</td><td>mmol/L</td></tr><tr><td>Protein [Mass/volume] in Serum or Plasma</td><td><strong>6.3 L</strong></td><td>6.6 - 8.3</td><td>g/dL</td></tr><tr><td>Albumin [Mass/volume] in Serum or Plasma</td><td>4.3</td><td>3.5 - 5.5</td><td>g/dL</td></tr><tr><td>Globulin [Mass/volume] in Serum by calculation</td><td>3.1</td><td>2.2 - 3.7</td><td>g/L</td></tr><tr><td>Bilirubin.total [Mass/volume] in Serum or Plasma</td><td>0.4</td><td>0.3 - 1.2</td><td>mg/dL</td></tr><tr><td>Alkaline phosphatase [Enzymatic activity/volume] in Serum or Plasma</td><td>49.4</td><td>40 - 130</td><td>U/L</td></tr><tr><td>Alanine aminotransferase [Enzymatic activity/volume] in Serum or Plasma</td><td>40.9</td><td>7 - 55</td><td>U/L</td></tr><tr><td>Aspartate aminotransferase [Enzymatic activity/volume] in Serum or Plasma</td><td>40.0</td><td>10 - 40</td><td>U/L</td></tr><tr><td>Cholesterol [Mass/volume] in Serum or Plasma</td><td>162.3</td><td>125 - 200</td><td>mg/dL</td></tr><tr><td>Triglyceride [Mass/volume] in Serum or Plasma</td><td>151.3</td><td>10 - 175</td><td>mg/dL</td></tr><tr><td>Cholesterol in LDL [Mass/volume] in Serum or Plasma by Direct assay</td><td>98.2</td><td>0 - 130</td><td>mg/dL</td></tr><tr><td>Cholesterol in HDL [Mass/volume] in Serum or Plasma</td><td>79.4</td><td>50 - 100</td><td>mg/dL</td></tr></tbody></table></div>"
                },
                "title": "Chemistry"
              }
            ],
            "title": "Laboratory Report"
          },
          {
            "text": {
              "status": "generated",
              "div": "<div xmlns=\"http://www.w3.org/1999/xhtml\"><h3>Annotation</h3><table class=\"hl7__eu__lab__report\"><tr><th>Conclusion and Recommendations based on this report and previous findings known to us</th></tr><tr><td>The patient shows significantly elevated creatinine, suggesting impaired renal function, and mildly decreased total protein, which may indicate nutritional or hepatic issues. All other parameters, including glucose, electrolytes, liver enzymes, and lipid profile, are within normal limits. Renal function should be further evaluated and monitored.</td></tr></table></div>"
            },
            "code": {
              "coding": [
                {
                  "system": "http://loinc.org",
                  "code": "48767-8",
                  "display": "Annotation comment"
                }
              ]
            },
            "title": "Annotation comment"
          }
        ],
        "status": "final",
        "subject": {
          "reference": "urn:uuid:4111c6bb-a688-4b4f-b72e-30412ccbf5d6",
          "display": "Helene Andresen"
        },
        "date": "2017-10-16T00:53:36Z",
        "title": "Laboratory Report",
        "confidentiality": "N"
      }
    },
    {
      "fullUrl": "urn:uuid:9e9460c5-20fc-4efa-aeb9-d7be686113b6",
      "resource": {
        "resourceType": "DiagnosticReport",
        "id": "9e9460c5-20fc-4efa-aeb9-d7be686113b6",
        "meta": {
          "profile": [
            "http://hl7.eu/fhir/laboratory/StructureDefinition/DiagnosticReport-eu-lab"
          ]
        },
        "identifier": [
          {
            "assigner": {
              "display": "HL7 Europe"
            },
            "system": "urn:oid:2.16.840.1.113883.2.51.999",
            "value": "6f63ede9-6714-4cd2-b6a9-4abe97ee8691"
          }
        ],
        "extension": [
          {
            "url": "http://hl7.org/fhir/5.0/StructureDefinition/extension-DiagnosticReport.composition",
            "valueReference": {
              "reference": "urn:uuid:3932b609-acb4-4b2f-849a-0d75c2b2df5f"
            }
          }
        ],
        "category": [
          {
            "coding": [
              {
                "code": "26436-6",
                "system": "http://loinc.org",
                "display": "Laboratory studies (set)"
              }
            ]
          }
        ],
        "specimen": [
          {
            "reference": "urn:uuid:9fc59b8f-820b-49a0-aa71-e7b04e90d434"
          },
          {
            "reference": "urn:uuid:5fbf7682-ab41-4d18-9805-d7c0895652c6"
          },
          {
            "reference": "urn:uuid:a9792d0a-50b5-45ad-8a68-bc34b1dd605c"
          }
        ],
        "result": [
          {
            "reference": "urn:uuid:dbfac452-fad6-4828-9373-62485c284e58"
          },
          {
            "reference": "urn:uuid:c6008ffc-e078-4085-be60-a2afbea14a7a"
          },
          {
            "reference": "urn:uuid:7044615a-9eb8-4711-9780-d744c2640625"
          },
          {
            "reference": "urn:uuid:e59e867b-24bc-4758-9fa2-9d4e8bac32a1"
          },
          {
            "reference": "urn:uuid:3823202f-b1b8-4b09-b621-2c0acd82d306"
          },
          {
            "reference": "urn:uuid:b1a47f22-9c08-4008-bff2-9aca6d32534d"
          },
          {
            "reference": "urn:uuid:7fdd794e-0ff9-47f1-82a7-ec78400bdd95"
          },
          {
            "reference": "urn:uuid:ae4ab895-f9ca-475d-aa9a-12ff66195946"
          },
          {
            "reference": "urn:uuid:462f26de-0dc0-4550-9cb1-6effb69a5373"
          },
          {
            "reference": "urn:uuid:da7e6b58-1e06-4c11-808f-c4d984a4589f"
          },
          {
            "reference": "urn:uuid:bc137a92-caf4-40d9-a4ad-dde5a10576aa"
          },
          {
            "reference": "urn:uuid:356b28ef-3193-4831-91aa-3f125aa8c22b"
          },
          {
            "reference": "urn:uuid:fe1cbe59-2db7-430c-8755-abcfd70505cc"
          },
          {
            "reference": "urn:uuid:ad3c3075-8415-467e-9d8b-5b1dca053ba4"
          },
          {
            "reference": "urn:uuid:bf5bf048-7eb3-434d-abdd-9c55c1b3993f"
          },
          {
            "reference": "urn:uuid:8100a178-348d-4e3f-91ee-af6798e2cade"
          },
          {
            "reference": "urn:uuid:0016b0c8-64aa-44a2-b572-dd3b37ca3da7"
          },
          {
            "reference": "urn:uuid:553c4b88-d794-412b-82c8-9dd77cb8f3b7"
          },
          {
            "reference": "urn:uuid:fb4c167c-3158-4969-a889-d0420b35a3be"
          }
        ],
        "status": "registered",
        "code": {
          "coding": [
            {
              "code": "11502-2",
              "system": "http://loinc.org",
              "display": "Laboratory report"
            }
          ]
        },
        "subject": {
          "reference": "urn:uuid:4111c6bb-a688-4b4f-b72e-30412ccbf5d6",
          "display": "Helene Andresen"
        }
      }
    },
    {
      "fullUrl": "urn:uuid:4111c6bb-a688-4b4f-b72e-30412ccbf5d6",
      "resource": {
        "resourceType": "Patient",
        "id": "4111c6bb-a688-4b4f-b72e-30412ccbf5d6",
        "meta": {
          "security": [
            {
              "system": "http://terminology.hl7.org/CodeSystem/v3-ActReason",
              "code": "HTEST"
            },
            {
              "system": "http://terminology.hl7.org/CodeSystem/v3-ActReason",
              "code": "TRAIN"
            }
          ],
          "tag": [
            {
              "system": "https://synderai.net/fhir/CodeSystem/tags",
              "code": "synthetic",
              "display": "SYNDERAI Synthetic data"
            }
          ],
          "profile": [
            "http://hl7.eu/fhir/base/StructureDefinition/patient-eu-core"
          ]
        },
        "identifier": [
          {
            "type": {
              "coding": [
                {
                  "code": "PT",
                  "system": "http://terminology.hl7.org/CodeSystem/v2-0203"
                }
              ]
            },
            "system": "http://ec.europa.eu/identifier/eci",
            "value": "3450-170343-2"
          },
          {
            "type": {
              "coding": [
                {
                  "code": "MR",
                  "system": "http://terminology.hl7.org/CodeSystem/v2-0203"
                }
              ]
            },
            "system": "http://local.setting.eu/identifier",
            "value": "72e91c9c-0b01-42b0-a6a0-6dcc70aeec49"
          }
        ],
        "name": [
          {
            "family": "Andresen"
          },
          {
            "given": [
              "Helene"
            ]
          },
          {
            "text": "Helene Andresen"
          }
        ],
        "address": [
          {
            "line": [
              "Kristiansenberget 2"
            ],
            "use": "home",
            "type": "physical",
            "postalCode": "0172",
            "city": "Sørensen",
            "country": "Norway"
          }
        ],
        "telecom": [
          {
            "system": "phone",
            "value": "53 98 86 24"
          }
        ],
        "extension": [
          {
            "url": "http://hl7.org/fhir/StructureDefinition/patient-nationality",
            "valueCodeableConcept": {
              "coding": [
                {
                  "code": "NO",
                  "system": "http://hl7.org/fhir/ValueSet/country"
                }
              ]
            }
          }
        ],
        "text": {
          "status": "generated",
          "div": "<div xmlns=\"http://www.w3.org/1999/xhtml\"><table class=\"hl7__ips\"><tr><td>Helene Andresen</td><td>female</td><td>17-Oct-1939</td></tr></table></div>"
        },
        "gender": "female",
        "birthDate": "1939-10-17"
      }
    },
    {
      "fullUrl": "urn:uuid:4f344850-57d0-481b-8258-5f75866c95e0",
      "resource": {
        "resourceType": "ServiceRequest",
        "id": "4f344850-57d0-481b-8258-5f75866c95e0",
        "meta": {
          "profile": [
            "http://hl7.eu/fhir/laboratory/StructureDefinition/ServiceRequest-eu-lab"
          ]
        },
        "identifier": [
          {
            "system": "http://example.org",
            "value": "fbc62095-1b3e-455f-80ee-193b0fb28474"
          }
        ],
        "specimen": [
          {
            "reference": "urn:uuid:9fc59b8f-820b-49a0-aa71-e7b04e90d434"
          },
          {
            "reference": "urn:uuid:5fbf7682-ab41-4d18-9805-d7c0895652c6"
          },
          {
            "reference": "urn:uuid:a9792d0a-50b5-45ad-8a68-bc34b1dd605c"
          }
        ],
        "reasonCode": [
          {
            "coding": [
              {
                "code": "64859006",
                "system": "http://snomed.info/sct",
                "display": "Osteoporosis"
              }
            ]
          },
          {
            "coding": [
              {
                "code": "40055000",
                "system": "http://snomed.info/sct",
                "display": "Chronic sinusitis"
              }
            ]
          },
          {
            "coding": [
              {
                "code": "55822004",
                "system": "http://snomed.info/sct",
                "display": "Hyperlipidemia"
              }
            ]
          },
          {
            "coding": [
              {
                "code": "271737000",
                "system": "http://snomed.info/sct",
                "display": "Anemia"
              }
            ]
          },
          {
            "coding": [
              {
                "code": "15777000",
                "system": "http://snomed.info/sct",
                "display": "Prediabetes"
              }
            ]
          },
          {
            "coding": [
              {
                "code": "128613002",
                "system": "http://snomed.info/sct",
                "display": "Seizure disorder"
              }
            ]
          }
        ],
        "status": "active",
        "intent": "order",
        "code": {
          "coding": [
            {
              "code": "108252007",
              "system": "http://snomed.info/sct",
              "display": "Laboratory procedure"
            }
          ]
        },
        "subject": {
          "reference": "urn:uuid:4111c6bb-a688-4b4f-b72e-30412ccbf5d6",
          "display": "Helene Andresen"
        },
        "requester": {
          "reference": "urn:uuid:c1e32025-2b76-4a53-b4e1-8780d379f5be"
        }
      }
    },
    {
      "fullUrl": "urn:uuid:c1e32025-2b76-4a53-b4e1-8780d379f5be",
      "resource": {
        "resourceType": "PractitionerRole",
        "id": "c1e32025-2b76-4a53-b4e1-8780d379f5be",
        "meta": {
          "profile": [
            "http://hl7.eu/fhir/base/StructureDefinition/practitionerRole-eu"
          ]
        },
        "text": {
          "status": "generated",
          "div": "<div xmlns=\"http://www.w3.org/1999/xhtml\">Provider Role Id: c1e32025-2b76-4a53-b4e1-8780d379f5be</div>"
        },
        "organization": {
          "reference": "urn:uuid:74e723df-50cc-420f-987c-13c0bd9d9021"
        }
      }
    },
    {
      "fullUrl": "urn:uuid:74e723df-50cc-420f-987c-13c0bd9d9021",
      "resource": {
        "resourceType": "Organization",
        "id": "74e723df-50cc-420f-987c-13c0bd9d9021",
        "meta": {
          "profile": [
            "http://hl7.eu/fhir/base/StructureDefinition/organization-eu"
          ]
        },
        "identifier": [
          {
            "assigner": {
              "display": "HL7 Europe"
            },
            "system": "urn:oid:2.16.840.1.113883.2.51.999",
            "value": "b8aeb230-c524-455e-8d8e-dfeb0525e32e"
          }
        ],
        "address": [
          {
            "city": "Oslo",
            "postalCode": "0155",
            "country": "Norway"
          }
        ],
        "text": {
          "status": "generated",
          "div": "<div xmlns=\"http://www.w3.org/1999/xhtml\">Provider Organization: Oslo universitetssykehus (Ullevål)</div>"
        },
        "name": "Oslo universitetssykehus (Ullevål)"
      }
    },
    {
      "fullUrl": "urn:uuid:9fc59b8f-820b-49a0-aa71-e7b04e90d434",
      "resource": {
        "resourceType": "Specimen",
        "id": "9fc59b8f-820b-49a0-aa71-e7b04e90d434",
        "meta": {
          "profile": [
            "http://hl7.eu/fhir/laboratory/StructureDefinition/Specimen-eu-lab"
          ]
        },
        "collection": {
          "collectedDateTime": "2017-10-15"
        },
        "text": {
          "status": "generated",
          "div": "<div xmlns=\"http://www.w3.org/1999/xhtml\"><table class=\"hl7__eu__lab__report\"><tr><th>Specimen</th><th>Collection Date</th></tr><tr><td>Whole blood specimen (specimen)</td><td><span class=\"nb\">15-Oct-2017</span></td></tr></table></div>"
        },
        "type": {
          "coding": [
            {
              "code": "258580003",
              "system": "http://snomed.info/sct",
              "display": "Whole blood specimen (specimen)"
            }
          ]
        }
      }
    },
    {
      "fullUrl": "urn:uuid:5fbf7682-ab41-4d18-9805-d7c0895652c6",
      "resource": {
        "resourceType": "Specimen",
        "id": "5fbf7682-ab41-4d18-9805-d7c0895652c6",
        "meta": {
          "profile": [
            "http://hl7.eu/fhir/laboratory/StructureDefinition/Specimen-eu-lab"
          ]
        },
        "collection": {
          "collectedDateTime": "2017-10-15"
        },
        "text": {
          "status": "generated",
          "div": "<div xmlns=\"http://www.w3.org/1999/xhtml\"><table class=\"hl7__eu__lab__report\"><tr><th>Specimen</th><th>Collection Date</th></tr><tr><td>Acellular blood (serum or plasma) specimen</td><td><span class=\"nb\">15-Oct-2017</span></td></tr></table></div>"
        },
        "type": {
          "coding": [
            {
              "code": "122592007",
              "system": "http://snomed.info/sct",
              "display": "Acellular blood (serum or plasma) specimen"
            }
          ]
        }
      }
    },
    {
      "fullUrl": "urn:uuid:a9792d0a-50b5-45ad-8a68-bc34b1dd605c",
      "resource": {
        "resourceType": "Specimen",
        "id": "a9792d0a-50b5-45ad-8a68-bc34b1dd605c",
        "meta": {
          "profile": [
            "http://hl7.eu/fhir/laboratory/StructureDefinition/Specimen-eu-lab"
          ]
        },
        "collection": {
          "collectedDateTime": "2017-10-15"
        },
        "text": {
          "status": "generated",
          "div": "<div xmlns=\"http://www.w3.org/1999/xhtml\"><table class=\"hl7__eu__lab__report\"><tr><th>Specimen</th><th>Collection Date</th></tr><tr><td>Serum specimen</td><td><span class=\"nb\">15-Oct-2017</span></td></tr></table></div>"
        },
        "type": {
          "coding": [
            {
              "code": "119364003",
              "system": "http://snomed.info/sct",
              "display": "Serum specimen"
            }
          ]
        }
      }
    },
    {
      "fullUrl": "urn:uuid:dbfac452-fad6-4828-9373-62485c284e58",
      "resource": {
        "resourceType": "Observation",
        "id": "dbfac452-fad6-4828-9373-62485c284e58",
        "meta": {
          "profile": [
            "http://hl7.eu/fhir/laboratory/StructureDefinition/Observation-resultslab-eu-lab"
          ]
        },
        "performer": [
          {
            "display": "The Central European Lab"
          }
        ],
        "category": [
          {
            "coding": [
              {
                "system": "http://terminology.hl7.org/CodeSystem/observation-category",
                "code": "laboratory"
              }
            ]
          }
        ],
        "code": {
          "coding": [
            {
              "code": "2339-0",
              "system": "http://loinc.org",
              "display": "Glucose [Mass/volume] in Blood"
            }
          ],
          "text": "Glucose [Mass/volume] in Blood"
        },
        "valueQuantity": {
          "system": "http://unitsofmeasure.org",
          "value": 87.3,
          "unit": "mg/dL",
          "code": "mg/dL"
        },
        "referenceRange": [
          {
            "low": {
              "value": 70,
              "code": "mg/dL",
              "system": "http://unitsofmeasure.org"
            }
          },
          {
            "high": {
              "value": 140,
              "code": "mg/dL",
              "system": "http://unitsofmeasure.org"
            }
          }
        ],
        "text": {
          "status": "generated",
          "div": "<div xmlns=\"http://www.w3.org/1999/xhtml\"><table class=\"hl7__eu__lab__report\"><tr><th>Test</th><th>16-Oct-2017</th><th>Reference&#xA0;Range</th><th>Unit</th></tr><tr><td>Glucose [Mass/volume] in Blood</td><td>87.3</td><td>70 - 140</td><td></td><td>mg/dL</td></tr></table></div>"
        },
        "status": "final",
        "subject": {
          "reference": "urn:uuid:4111c6bb-a688-4b4f-b72e-30412ccbf5d6",
          "display": "Helene Andresen"
        },
        "effectiveDateTime": "2017-10-15T22:53:36Z",
        "specimen": {
          "reference": "urn:uuid:9fc59b8f-820b-49a0-aa71-e7b04e90d434"
        }
      }
    },
    {
      "fullUrl": "urn:uuid:c6008ffc-e078-4085-be60-a2afbea14a7a",
      "resource": {
        "resourceType": "Observation",
        "id": "c6008ffc-e078-4085-be60-a2afbea14a7a",
        "meta": {
          "profile": [
            "http://hl7.eu/fhir/laboratory/StructureDefinition/Observation-resultslab-eu-lab"
          ]
        },
        "performer": [
          {
            "display": "The Central European Lab"
          }
        ],
        "category": [
          {
            "coding": [
              {
                "system": "http://terminology.hl7.org/CodeSystem/observation-category",
                "code": "laboratory"
              }
            ]
          }
        ],
        "code": {
          "coding": [
            {
              "code": "6299-2",
              "system": "http://loinc.org",
              "display": "Urea nitrogen [Mass/volume] in Blood"
            }
          ],
          "text": "Urea nitrogen [Mass/volume] in Blood"
        },
        "valueQuantity": {
          "system": "http://unitsofmeasure.org",
          "value": 9,
          "unit": "mg/dL",
          "code": "mg/dL"
        },
        "referenceRange": [
          {
            "low": {
              "value": 7,
              "code": "mg/dL",
              "system": "http://unitsofmeasure.org"
            }
          },
          {
            "high": {
              "value": 25,
              "code": "mg/dL",
              "system": "http://unitsofmeasure.org"
            }
          }
        ],
        "text": {
          "status": "generated",
          "div": "<div xmlns=\"http://www.w3.org/1999/xhtml\"><table class=\"hl7__eu__lab__report\"><tr><th>Test</th><th>16-Oct-2017</th><th>Reference&#xA0;Range</th><th>Unit</th></tr><tr><td>Urea nitrogen [Mass/volume] in Blood</td><td>9.0</td><td>7 - 25</td><td></td><td>mg/dL</td></tr></table></div>"
        },
        "status": "final",
        "subject": {
          "reference": "urn:uuid:4111c6bb-a688-4b4f-b72e-30412ccbf5d6",
          "display": "Helene Andresen"
        },
        "effectiveDateTime": "2017-10-15T22:53:36Z",
        "specimen": {
          "reference": "urn:uuid:9fc59b8f-820b-49a0-aa71-e7b04e90d434"
        }
      }
    },
    {
      "fullUrl": "urn:uuid:7044615a-9eb8-4711-9780-d744c2640625",
      "resource": {
        "resourceType": "Observation",
        "id": "7044615a-9eb8-4711-9780-d744c2640625",
        "meta": {
          "profile": [
            "http://hl7.eu/fhir/laboratory/StructureDefinition/Observation-resultslab-eu-lab"
          ]
        },
        "performer": [
          {
            "display": "The Central European Lab"
          }
        ],
        "category": [
          {
            "coding": [
              {
                "system": "http://terminology.hl7.org/CodeSystem/observation-category",
                "code": "laboratory"
              }
            ]
          }
        ],
        "code": {
          "coding": [
            {
              "code": "38483-4",
              "system": "http://loinc.org",
              "display": "Creatinine [Mass/volume] in Blood"
            }
          ],
          "text": "Creatinine [Mass/volume] in Blood"
        },
        "valueQuantity": {
          "system": "http://unitsofmeasure.org",
          "value": 3,
          "unit": "mg/dL",
          "code": "mg/dL"
        },
        "referenceRange": [
          {
            "low": {
              "value": 0.6,
              "code": "mg/dL",
              "system": "http://unitsofmeasure.org"
            }
          },
          {
            "high": {
              "value": 1.1,
              "code": "mg/dL",
              "system": "http://unitsofmeasure.org"
            }
          }
        ],
        "interpretation": [
          {
            "coding": [
              {
                "code": "H",
                "system": "http://terminology.hl7.org/CodeSystem/v3-ObservationInterpretation",
                "display": "High"
              }
            ]
          }
        ],
        "text": {
          "status": "generated",
          "div": "<div xmlns=\"http://www.w3.org/1999/xhtml\"><table class=\"hl7__eu__lab__report\"><tr><th>Test</th><th>16-Oct-2017</th><th>Reference&#xA0;Range</th><th>Unit</th></tr><tr><td>Creatinine [Mass/volume] in Blood</td><td>3.0</td><td>0.6 - 1.1</td><td>H</td><td>mg/dL</td></tr></table></div>"
        },
        "status": "final",
        "subject": {
          "reference": "urn:uuid:4111c6bb-a688-4b4f-b72e-30412ccbf5d6",
          "display": "Helene Andresen"
        },
        "effectiveDateTime": "2017-10-15T22:53:36Z",
        "specimen": {
          "reference": "urn:uuid:9fc59b8f-820b-49a0-aa71-e7b04e90d434"
        }
      }
    },
    {
      "fullUrl": "urn:uuid:e59e867b-24bc-4758-9fa2-9d4e8bac32a1",
      "resource": {
        "resourceType": "Observation",
        "id": "e59e867b-24bc-4758-9fa2-9d4e8bac32a1",
        "meta": {
          "profile": [
            "http://hl7.eu/fhir/laboratory/StructureDefinition/Observation-resultslab-eu-lab"
          ]
        },
        "performer": [
          {
            "display": "The Central European Lab"
          }
        ],
        "category": [
          {
            "coding": [
              {
                "system": "http://terminology.hl7.org/CodeSystem/observation-category",
                "code": "laboratory"
              }
            ]
          }
        ],
        "code": {
          "coding": [
            {
              "code": "49765-1",
              "system": "http://loinc.org",
              "display": "Calcium [Mass/volume] in Blood"
            }
          ],
          "text": "Calcium [Mass/volume] in Blood"
        },
        "valueQuantity": {
          "system": "http://unitsofmeasure.org",
          "value": 9,
          "unit": "mg/dL",
          "code": "mg/dL"
        },
        "referenceRange": [
          {
            "low": {
              "value": 8.6,
              "code": "mg/dL",
              "system": "http://unitsofmeasure.org"
            }
          },
          {
            "high": {
              "value": 10.4,
              "code": "mg/dL",
              "system": "http://unitsofmeasure.org"
            }
          }
        ],
        "text": {
          "status": "generated",
          "div": "<div xmlns=\"http://www.w3.org/1999/xhtml\"><table class=\"hl7__eu__lab__report\"><tr><th>Test</th><th>16-Oct-2017</th><th>Reference&#xA0;Range</th><th>Unit</th></tr><tr><td>Calcium [Mass/volume] in Blood</td><td>9.0</td><td>8.6 - 10.4</td><td></td><td>mg/dL</td></tr></table></div>"
        },
        "status": "final",
        "subject": {
          "reference": "urn:uuid:4111c6bb-a688-4b4f-b72e-30412ccbf5d6",
          "display": "Helene Andresen"
        },
        "effectiveDateTime": "2017-10-15T22:53:36Z",
        "specimen": {
          "reference": "urn:uuid:9fc59b8f-820b-49a0-aa71-e7b04e90d434"
        }
      }
    },
    {
      "fullUrl": "urn:uuid:3823202f-b1b8-4b09-b621-2c0acd82d306",
      "resource": {
        "resourceType": "Observation",
        "id": "3823202f-b1b8-4b09-b621-2c0acd82d306",
        "meta": {
          "profile": [
            "http://hl7.eu/fhir/laboratory/StructureDefinition/Observation-resultslab-eu-lab"
          ]
        },
        "performer": [
          {
            "display": "The Central European Lab"
          }
        ],
        "category": [
          {
            "coding": [
              {
                "system": "http://terminology.hl7.org/CodeSystem/observation-category",
                "code": "laboratory"
              }
            ]
          }
        ],
        "code": {
          "coding": [
            {
              "code": "2947-0",
              "system": "http://loinc.org",
              "display": "Sodium [Moles/volume] in Blood"
            }
          ],
          "text": "Sodium [Moles/volume] in Blood"
        },
        "valueQuantity": {
          "system": "http://unitsofmeasure.org",
          "value": 141.4,
          "unit": "mmol/L",
          "code": "mmol/L"
        },
        "referenceRange": [
          {
            "low": {
              "value": 135,
              "code": "mmol/L",
              "system": "http://unitsofmeasure.org"
            }
          },
          {
            "high": {
              "value": 145,
              "code": "mmol/L",
              "system": "http://unitsofmeasure.org"
            }
          }
        ],
        "text": {
          "status": "generated",
          "div": "<div xmlns=\"http://www.w3.org/1999/xhtml\"><table class=\"hl7__eu__lab__report\"><tr><th>Test</th><th>16-Oct-2017</th><th>Reference&#xA0;Range</th><th>Unit</th></tr><tr><td>Sodium [Moles/volume] in Blood</td><td>141.4</td><td>135 - 145</td><td></td><td>mmol/L</td></tr></table></div>"
        },
        "status": "final",
        "subject": {
          "reference": "urn:uuid:4111c6bb-a688-4b4f-b72e-30412ccbf5d6",
          "display": "Helene Andresen"
        },
        "effectiveDateTime": "2017-10-15T22:53:36Z",
        "specimen": {
          "reference": "urn:uuid:9fc59b8f-820b-49a0-aa71-e7b04e90d434"
        }
      }
    },
    {
      "fullUrl": "urn:uuid:b1a47f22-9c08-4008-bff2-9aca6d32534d",
      "resource": {
        "resourceType": "Observation",
        "id": "b1a47f22-9c08-4008-bff2-9aca6d32534d",
        "meta": {
          "profile": [
            "http://hl7.eu/fhir/laboratory/StructureDefinition/Observation-resultslab-eu-lab"
          ]
        },
        "performer": [
          {
            "display": "The Central European Lab"
          }
        ],
        "category": [
          {
            "coding": [
              {
                "system": "http://terminology.hl7.org/CodeSystem/observation-category",
                "code": "laboratory"
              }
            ]
          }
        ],
        "code": {
          "coding": [
            {
              "code": "6298-4",
              "system": "http://loinc.org",
              "display": "Potassium [Moles/volume] in Blood"
            }
          ],
          "text": "Potassium [Moles/volume] in Blood"
        },
        "valueQuantity": {
          "system": "http://unitsofmeasure.org",
          "value": 3.9,
          "unit": "mmol/L",
          "code": "mmol/L"
        },
        "referenceRange": [
          {
            "low": {
              "value": 3.5,
              "code": "mmol/L",
              "system": "http://unitsofmeasure.org"
            }
          },
          {
            "high": {
              "value": 5.3,
              "code": "mmol/L",
              "system": "http://unitsofmeasure.org"
            }
          }
        ],
        "text": {
          "status": "generated",
          "div": "<div xmlns=\"http://www.w3.org/1999/xhtml\"><table class=\"hl7__eu__lab__report\"><tr><th>Test</th><th>16-Oct-2017</th><th>Reference&#xA0;Range</th><th>Unit</th></tr><tr><td>Potassium [Moles/volume] in Blood</td><td>3.9</td><td>3.5 - 5.3</td><td></td><td>mmol/L</td></tr></table></div>"
        },
        "status": "final",
        "subject": {
          "reference": "urn:uuid:4111c6bb-a688-4b4f-b72e-30412ccbf5d6",
          "display": "Helene Andresen"
        },
        "effectiveDateTime": "2017-10-15T22:53:36Z",
        "specimen": {
          "reference": "urn:uuid:9fc59b8f-820b-49a0-aa71-e7b04e90d434"
        }
      }
    },
    {
      "fullUrl": "urn:uuid:7fdd794e-0ff9-47f1-82a7-ec78400bdd95",
      "resource": {
        "resourceType": "Observation",
        "id": "7fdd794e-0ff9-47f1-82a7-ec78400bdd95",
        "meta": {
          "profile": [
            "http://hl7.eu/fhir/laboratory/StructureDefinition/Observation-resultslab-eu-lab"
          ]
        },
        "performer": [
          {
            "display": "The Central European Lab"
          }
        ],
        "category": [
          {
            "coding": [
              {
                "system": "http://terminology.hl7.org/CodeSystem/observation-category",
                "code": "laboratory"
              }
            ]
          }
        ],
        "code": {
          "coding": [
            {
              "code": "2069-3",
              "system": "http://loinc.org",
              "display": "Chloride [Moles/volume] in Blood"
            }
          ],
          "text": "Chloride [Moles/volume] in Blood"
        },
        "valueQuantity": {
          "system": "http://unitsofmeasure.org",
          "value": 103.7,
          "unit": "mmol/L",
          "code": "mmol/L"
        },
        "referenceRange": [
          {
            "low": {
              "value": 98,
              "code": "mmol/L",
              "system": "http://unitsofmeasure.org"
            }
          },
          {
            "high": {
              "value": 108,
              "code": "mmol/L",
              "system": "http://unitsofmeasure.org"
            }
          }
        ],
        "text": {
          "status": "generated",
          "div": "<div xmlns=\"http://www.w3.org/1999/xhtml\"><table class=\"hl7__eu__lab__report\"><tr><th>Test</th><th>16-Oct-2017</th><th>Reference&#xA0;Range</th><th>Unit</th></tr><tr><td>Chloride [Moles/volume] in Blood</td><td>103.7</td><td>98 - 108</td><td></td><td>mmol/L</td></tr></table></div>"
        },
        "status": "final",
        "subject": {
          "reference": "urn:uuid:4111c6bb-a688-4b4f-b72e-30412ccbf5d6",
          "display": "Helene Andresen"
        },
        "effectiveDateTime": "2017-10-15T22:53:36Z",
        "specimen": {
          "reference": "urn:uuid:9fc59b8f-820b-49a0-aa71-e7b04e90d434"
        }
      }
    },
    {
      "fullUrl": "urn:uuid:ae4ab895-f9ca-475d-aa9a-12ff66195946",
      "resource": {
        "resourceType": "Observation",
        "id": "ae4ab895-f9ca-475d-aa9a-12ff66195946",
        "meta": {
          "profile": [
            "http://hl7.eu/fhir/laboratory/StructureDefinition/Observation-resultslab-eu-lab"
          ]
        },
        "performer": [
          {
            "display": "The Central European Lab"
          }
        ],
        "category": [
          {
            "coding": [
              {
                "system": "http://terminology.hl7.org/CodeSystem/observation-category",
                "code": "laboratory"
              }
            ]
          }
        ],
        "code": {
          "coding": [
            {
              "code": "20565-8",
              "system": "http://loinc.org",
              "display": "Carbon dioxide, total [Moles/volume] in Blood"
            }
          ],
          "text": "Carbon dioxide, total [Moles/volume] in Blood"
        },
        "valueQuantity": {
          "system": "http://unitsofmeasure.org",
          "value": 27.9,
          "unit": "mmol/L",
          "code": "mmol/L"
        },
        "referenceRange": [
          {
            "low": {
              "value": 22,
              "code": "mmol/L",
              "system": "http://unitsofmeasure.org"
            }
          },
          {
            "high": {
              "value": 32,
              "code": "mmol/L",
              "system": "http://unitsofmeasure.org"
            }
          }
        ],
        "text": {
          "status": "generated",
          "div": "<div xmlns=\"http://www.w3.org/1999/xhtml\"><table class=\"hl7__eu__lab__report\"><tr><th>Test</th><th>16-Oct-2017</th><th>Reference&#xA0;Range</th><th>Unit</th></tr><tr><td>Carbon dioxide, total [Moles/volume] in Blood</td><td>27.9</td><td>22 - 32</td><td></td><td>mmol/L</td></tr></table></div>"
        },
        "status": "final",
        "subject": {
          "reference": "urn:uuid:4111c6bb-a688-4b4f-b72e-30412ccbf5d6",
          "display": "Helene Andresen"
        },
        "effectiveDateTime": "2017-10-15T22:53:36Z",
        "specimen": {
          "reference": "urn:uuid:9fc59b8f-820b-49a0-aa71-e7b04e90d434"
        }
      }
    },
    {
      "fullUrl": "urn:uuid:462f26de-0dc0-4550-9cb1-6effb69a5373",
      "resource": {
        "resourceType": "Observation",
        "id": "462f26de-0dc0-4550-9cb1-6effb69a5373",
        "meta": {
          "profile": [
            "http://hl7.eu/fhir/laboratory/StructureDefinition/Observation-resultslab-eu-lab"
          ]
        },
        "performer": [
          {
            "display": "The Central European Lab"
          }
        ],
        "category": [
          {
            "coding": [
              {
                "system": "http://terminology.hl7.org/CodeSystem/observation-category",
                "code": "laboratory"
              }
            ]
          }
        ],
        "code": {
          "coding": [
            {
              "code": "2885-2",
              "system": "http://loinc.org",
              "display": "Protein [Mass/volume] in Serum or Plasma"
            }
          ],
          "text": "Protein [Mass/volume] in Serum or Plasma"
        },
        "valueQuantity": {
          "system": "http://unitsofmeasure.org",
          "value": 6.3,
          "unit": "g/dL",
          "code": "g/dL"
        },
        "referenceRange": [
          {
            "low": {
              "value": 6.6,
              "code": "g/dL",
              "system": "http://unitsofmeasure.org"
            }
          },
          {
            "high": {
              "value": 8.3,
              "code": "g/dL",
              "system": "http://unitsofmeasure.org"
            }
          }
        ],
        "interpretation": [
          {
            "coding": [
              {
                "code": "L",
                "system": "http://terminology.hl7.org/CodeSystem/v3-ObservationInterpretation",
                "display": "Low"
              }
            ]
          }
        ],
        "text": {
          "status": "generated",
          "div": "<div xmlns=\"http://www.w3.org/1999/xhtml\"><table class=\"hl7__eu__lab__report\"><tr><th>Test</th><th>16-Oct-2017</th><th>Reference&#xA0;Range</th><th>Unit</th></tr><tr><td>Protein [Mass/volume] in Serum or Plasma</td><td>6.3</td><td>6.6 - 8.3</td><td>L</td><td>g/dL</td></tr></table></div>"
        },
        "status": "final",
        "subject": {
          "reference": "urn:uuid:4111c6bb-a688-4b4f-b72e-30412ccbf5d6",
          "display": "Helene Andresen"
        },
        "effectiveDateTime": "2017-10-15T22:53:36Z",
        "specimen": {
          "reference": "urn:uuid:5fbf7682-ab41-4d18-9805-d7c0895652c6"
        }
      }
    },
    {
      "fullUrl": "urn:uuid:da7e6b58-1e06-4c11-808f-c4d984a4589f",
      "resource": {
        "resourceType": "Observation",
        "id": "da7e6b58-1e06-4c11-808f-c4d984a4589f",
        "meta": {
          "profile": [
            "http://hl7.eu/fhir/laboratory/StructureDefinition/Observation-resultslab-eu-lab"
          ]
        },
        "performer": [
          {
            "display": "The Central European Lab"
          }
        ],
        "category": [
          {
            "coding": [
              {
                "system": "http://terminology.hl7.org/CodeSystem/observation-category",
                "code": "laboratory"
              }
            ]
          }
        ],
        "code": {
          "coding": [
            {
              "code": "1751-7",
              "system": "http://loinc.org",
              "display": "Albumin [Mass/volume] in Serum or Plasma"
            }
          ],
          "text": "Albumin [Mass/volume] in Serum or Plasma"
        },
        "valueQuantity": {
          "system": "http://unitsofmeasure.org",
          "value": 4.3,
          "unit": "g/dL",
          "code": "g/dL"
        },
        "referenceRange": [
          {
            "low": {
              "value": 3.5,
              "code": "g/dL",
              "system": "http://unitsofmeasure.org"
            }
          },
          {
            "high": {
              "value": 5.5,
              "code": "g/dL",
              "system": "http://unitsofmeasure.org"
            }
          }
        ],
        "text": {
          "status": "generated",
          "div": "<div xmlns=\"http://www.w3.org/1999/xhtml\"><table class=\"hl7__eu__lab__report\"><tr><th>Test</th><th>16-Oct-2017</th><th>Reference&#xA0;Range</th><th>Unit</th></tr><tr><td>Albumin [Mass/volume] in Serum or Plasma</td><td>4.3</td><td>3.5 - 5.5</td><td></td><td>g/dL</td></tr></table></div>"
        },
        "status": "final",
        "subject": {
          "reference": "urn:uuid:4111c6bb-a688-4b4f-b72e-30412ccbf5d6",
          "display": "Helene Andresen"
        },
        "effectiveDateTime": "2017-10-15T22:53:36Z",
        "specimen": {
          "reference": "urn:uuid:5fbf7682-ab41-4d18-9805-d7c0895652c6"
        }
      }
    },
    {
      "fullUrl": "urn:uuid:bc137a92-caf4-40d9-a4ad-dde5a10576aa",
      "resource": {
        "resourceType": "Observation",
        "id": "bc137a92-caf4-40d9-a4ad-dde5a10576aa",
        "meta": {
          "profile": [
            "http://hl7.eu/fhir/laboratory/StructureDefinition/Observation-resultslab-eu-lab"
          ]
        },
        "performer": [
          {
            "display": "The Central European Lab"
          }
        ],
        "category": [
          {
            "coding": [
              {
                "system": "http://terminology.hl7.org/CodeSystem/observation-category",
                "code": "laboratory"
              }
            ]
          }
        ],
        "code": {
          "coding": [
            {
              "code": "10834-0",
              "system": "http://loinc.org",
              "display": "Globulin [Mass/volume] in Serum by calculation"
            }
          ],
          "text": "Globulin [Mass/volume] in Serum by calculation"
        },
        "valueQuantity": {
          "system": "http://unitsofmeasure.org",
          "value": 3.1,
          "unit": "g/L",
          "code": "g/L"
        },
        "referenceRange": [
          {
            "low": {
              "value": 2.2,
              "code": "g/L",
              "system": "http://unitsofmeasure.org"
            }
          },
          {
            "high": {
              "value": 3.7,
              "code": "g/L",
              "system": "http://unitsofmeasure.org"
            }
          }
        ],
        "text": {
          "status": "generated",
          "div": "<div xmlns=\"http://www.w3.org/1999/xhtml\"><table class=\"hl7__eu__lab__report\"><tr><th>Test</th><th>16-Oct-2017</th><th>Reference&#xA0;Range</th><th>Unit</th></tr><tr><td>Globulin [Mass/volume] in Serum by calculation</td><td>3.1</td><td>2.2 - 3.7</td><td></td><td>g/L</td></tr></table></div>"
        },
        "status": "final",
        "subject": {
          "reference": "urn:uuid:4111c6bb-a688-4b4f-b72e-30412ccbf5d6",
          "display": "Helene Andresen"
        },
        "effectiveDateTime": "2017-10-15T22:53:36Z",
        "specimen": {
          "reference": "urn:uuid:a9792d0a-50b5-45ad-8a68-bc34b1dd605c"
        }
      }
    },
    {
      "fullUrl": "urn:uuid:356b28ef-3193-4831-91aa-3f125aa8c22b",
      "resource": {
        "resourceType": "Observation",
        "id": "356b28ef-3193-4831-91aa-3f125aa8c22b",
        "meta": {
          "profile": [
            "http://hl7.eu/fhir/laboratory/StructureDefinition/Observation-resultslab-eu-lab"
          ]
        },
        "performer": [
          {
            "display": "The Central European Lab"
          }
        ],
        "category": [
          {
            "coding": [
              {
                "system": "http://terminology.hl7.org/CodeSystem/observation-category",
                "code": "laboratory"
              }
            ]
          }
        ],
        "code": {
          "coding": [
            {
              "code": "1975-2",
              "system": "http://loinc.org",
              "display": "Bilirubin.total [Mass/volume] in Serum or Plasma"
            }
          ],
          "text": "Bilirubin.total [Mass/volume] in Serum or Plasma"
        },
        "valueQuantity": {
          "system": "http://unitsofmeasure.org",
          "value": 0.4,
          "unit": "mg/dL",
          "code": "mg/dL"
        },
        "referenceRange": [
          {
            "low": {
              "value": 0.3,
              "code": "mg/dL",
              "system": "http://unitsofmeasure.org"
            }
          },
          {
            "high": {
              "value": 1.2,
              "code": "mg/dL",
              "system": "http://unitsofmeasure.org"
            }
          }
        ],
        "text": {
          "status": "generated",
          "div": "<div xmlns=\"http://www.w3.org/1999/xhtml\"><table class=\"hl7__eu__lab__report\"><tr><th>Test</th><th>16-Oct-2017</th><th>Reference&#xA0;Range</th><th>Unit</th></tr><tr><td>Bilirubin.total [Mass/volume] in Serum or Plasma</td><td>0.4</td><td>0.3 - 1.2</td><td></td><td>mg/dL</td></tr></table></div>"
        },
        "status": "final",
        "subject": {
          "reference": "urn:uuid:4111c6bb-a688-4b4f-b72e-30412ccbf5d6",
          "display": "Helene Andresen"
        },
        "effectiveDateTime": "2017-10-15T22:53:36Z",
        "specimen": {
          "reference": "urn:uuid:5fbf7682-ab41-4d18-9805-d7c0895652c6"
        }
      }
    },
    {
      "fullUrl": "urn:uuid:fe1cbe59-2db7-430c-8755-abcfd70505cc",
      "resource": {
        "resourceType": "Observation",
        "id": "fe1cbe59-2db7-430c-8755-abcfd70505cc",
        "meta": {
          "profile": [
            "http://hl7.eu/fhir/laboratory/StructureDefinition/Observation-resultslab-eu-lab"
          ]
        },
        "performer": [
          {
            "display": "The Central European Lab"
          }
        ],
        "category": [
          {
            "coding": [
              {
                "system": "http://terminology.hl7.org/CodeSystem/observation-category",
                "code": "laboratory"
              }
            ]
          }
        ],
        "code": {
          "coding": [
            {
              "code": "6768-6",
              "system": "http://loinc.org",
              "display": "Alkaline phosphatase [Enzymatic activity/volume] in Serum or Plasma"
            }
          ],
          "text": "Alkaline phosphatase [Enzymatic activity/volume] in Serum or Plasma"
        },
        "valueQuantity": {
          "system": "http://unitsofmeasure.org",
          "value": 49.4,
          "unit": "U/L",
          "code": "U/L"
        },
        "referenceRange": [
          {
            "low": {
              "value": 40,
              "code": "U/L",
              "system": "http://unitsofmeasure.org"
            }
          },
          {
            "high": {
              "value": 130,
              "code": "U/L",
              "system": "http://unitsofmeasure.org"
            }
          }
        ],
        "text": {
          "status": "generated",
          "div": "<div xmlns=\"http://www.w3.org/1999/xhtml\"><table class=\"hl7__eu__lab__report\"><tr><th>Test</th><th>16-Oct-2017</th><th>Reference&#xA0;Range</th><th>Unit</th></tr><tr><td>Alkaline phosphatase [Enzymatic activity/volume] in Serum or Plasma</td><td>49.4</td><td>40 - 130</td><td></td><td>U/L</td></tr></table></div>"
        },
        "status": "final",
        "subject": {
          "reference": "urn:uuid:4111c6bb-a688-4b4f-b72e-30412ccbf5d6",
          "display": "Helene Andresen"
        },
        "effectiveDateTime": "2017-10-15T22:53:36Z",
        "specimen": {
          "reference": "urn:uuid:5fbf7682-ab41-4d18-9805-d7c0895652c6"
        }
      }
    },
    {
      "fullUrl": "urn:uuid:ad3c3075-8415-467e-9d8b-5b1dca053ba4",
      "resource": {
        "resourceType": "Observation",
        "id": "ad3c3075-8415-467e-9d8b-5b1dca053ba4",
        "meta": {
          "profile": [
            "http://hl7.eu/fhir/laboratory/StructureDefinition/Observation-resultslab-eu-lab"
          ]
        },
        "performer": [
          {
            "display": "The Central European Lab"
          }
        ],
        "category": [
          {
            "coding": [
              {
                "system": "http://terminology.hl7.org/CodeSystem/observation-category",
                "code": "laboratory"
              }
            ]
          }
        ],
        "code": {
          "coding": [
            {
              "code": "1742-6",
              "system": "http://loinc.org",
              "display": "Alanine aminotransferase [Enzymatic activity/volume] in Serum or Plasma"
            }
          ],
          "text": "Alanine aminotransferase [Enzymatic activity/volume] in Serum or Plasma"
        },
        "valueQuantity": {
          "system": "http://unitsofmeasure.org",
          "value": 40.9,
          "unit": "U/L",
          "code": "U/L"
        },
        "referenceRange": [
          {
            "low": {
              "value": 7,
              "code": "U/L",
              "system": "http://unitsofmeasure.org"
            }
          },
          {
            "high": {
              "value": 55,
              "code": "U/L",
              "system": "http://unitsofmeasure.org"
            }
          }
        ],
        "text": {
          "status": "generated",
          "div": "<div xmlns=\"http://www.w3.org/1999/xhtml\"><table class=\"hl7__eu__lab__report\"><tr><th>Test</th><th>16-Oct-2017</th><th>Reference&#xA0;Range</th><th>Unit</th></tr><tr><td>Alanine aminotransferase [Enzymatic activity/volume] in Serum or Plasma</td><td>40.9</td><td>7 - 55</td><td></td><td>U/L</td></tr></table></div>"
        },
        "status": "final",
        "subject": {
          "reference": "urn:uuid:4111c6bb-a688-4b4f-b72e-30412ccbf5d6",
          "display": "Helene Andresen"
        },
        "effectiveDateTime": "2017-10-15T22:53:36Z",
        "specimen": {
          "reference": "urn:uuid:5fbf7682-ab41-4d18-9805-d7c0895652c6"
        }
      }
    },
    {
      "fullUrl": "urn:uuid:bf5bf048-7eb3-434d-abdd-9c55c1b3993f",
      "resource": {
        "resourceType": "Observation",
        "id": "bf5bf048-7eb3-434d-abdd-9c55c1b3993f",
        "meta": {
          "profile": [
            "http://hl7.eu/fhir/laboratory/StructureDefinition/Observation-resultslab-eu-lab"
          ]
        },
        "performer": [
          {
            "display": "The Central European Lab"
          }
        ],
        "category": [
          {
            "coding": [
              {
                "system": "http://terminology.hl7.org/CodeSystem/observation-category",
                "code": "laboratory"
              }
            ]
          }
        ],
        "code": {
          "coding": [
            {
              "code": "1920-8",
              "system": "http://loinc.org",
              "display": "Aspartate aminotransferase [Enzymatic activity/volume] in Serum or Plasma"
            }
          ],
          "text": "Aspartate aminotransferase [Enzymatic activity/volume] in Serum or Plasma"
        },
        "valueQuantity": {
          "system": "http://unitsofmeasure.org",
          "value": 40,
          "unit": "U/L",
          "code": "U/L"
        },
        "referenceRange": [
          {
            "low": {
              "value": 10,
              "code": "U/L",
              "system": "http://unitsofmeasure.org"
            }
          },
          {
            "high": {
              "value": 40,
              "code": "U/L",
              "system": "http://unitsofmeasure.org"
            }
          }
        ],
        "text": {
          "status": "generated",
          "div": "<div xmlns=\"http://www.w3.org/1999/xhtml\"><table class=\"hl7__eu__lab__report\"><tr><th>Test</th><th>16-Oct-2017</th><th>Reference&#xA0;Range</th><th>Unit</th></tr><tr><td>Aspartate aminotransferase [Enzymatic activity/volume] in Serum or Plasma</td><td>40.0</td><td>10 - 40</td><td></td><td>U/L</td></tr></table></div>"
        },
        "status": "final",
        "subject": {
          "reference": "urn:uuid:4111c6bb-a688-4b4f-b72e-30412ccbf5d6",
          "display": "Helene Andresen"
        },
        "effectiveDateTime": "2017-10-15T22:53:36Z",
        "specimen": {
          "reference": "urn:uuid:5fbf7682-ab41-4d18-9805-d7c0895652c6"
        }
      }
    },
    {
      "fullUrl": "urn:uuid:8100a178-348d-4e3f-91ee-af6798e2cade",
      "resource": {
        "resourceType": "Observation",
        "id": "8100a178-348d-4e3f-91ee-af6798e2cade",
        "meta": {
          "profile": [
            "http://hl7.eu/fhir/laboratory/StructureDefinition/Observation-resultslab-eu-lab"
          ]
        },
        "performer": [
          {
            "display": "The Central European Lab"
          }
        ],
        "category": [
          {
            "coding": [
              {
                "system": "http://terminology.hl7.org/CodeSystem/observation-category",
                "code": "laboratory"
              }
            ]
          }
        ],
        "code": {
          "coding": [
            {
              "code": "2093-3",
              "system": "http://loinc.org",
              "display": "Cholesterol [Mass/volume] in Serum or Plasma"
            }
          ],
          "text": "Cholesterol [Mass/volume] in Serum or Plasma"
        },
        "valueQuantity": {
          "system": "http://unitsofmeasure.org",
          "value": 162.3,
          "unit": "mg/dL",
          "code": "mg/dL"
        },
        "referenceRange": [
          {
            "low": {
              "value": 125,
              "code": "mg/dL",
              "system": "http://unitsofmeasure.org"
            }
          },
          {
            "high": {
              "value": 200,
              "code": "mg/dL",
              "system": "http://unitsofmeasure.org"
            }
          }
        ],
        "text": {
          "status": "generated",
          "div": "<div xmlns=\"http://www.w3.org/1999/xhtml\"><table class=\"hl7__eu__lab__report\"><tr><th>Test</th><th>16-Oct-2017</th><th>Reference&#xA0;Range</th><th>Unit</th></tr><tr><td>Cholesterol [Mass/volume] in Serum or Plasma</td><td>162.3</td><td>125 - 200</td><td></td><td>mg/dL</td></tr></table></div>"
        },
        "status": "final",
        "subject": {
          "reference": "urn:uuid:4111c6bb-a688-4b4f-b72e-30412ccbf5d6",
          "display": "Helene Andresen"
        },
        "effectiveDateTime": "2017-10-15T22:53:36Z",
        "specimen": {
          "reference": "urn:uuid:5fbf7682-ab41-4d18-9805-d7c0895652c6"
        }
      }
    },
    {
      "fullUrl": "urn:uuid:0016b0c8-64aa-44a2-b572-dd3b37ca3da7",
      "resource": {
        "resourceType": "Observation",
        "id": "0016b0c8-64aa-44a2-b572-dd3b37ca3da7",
        "meta": {
          "profile": [
            "http://hl7.eu/fhir/laboratory/StructureDefinition/Observation-resultslab-eu-lab"
          ]
        },
        "performer": [
          {
            "display": "The Central European Lab"
          }
        ],
        "category": [
          {
            "coding": [
              {
                "system": "http://terminology.hl7.org/CodeSystem/observation-category",
                "code": "laboratory"
              }
            ]
          }
        ],
        "code": {
          "coding": [
            {
              "code": "2571-8",
              "system": "http://loinc.org",
              "display": "Triglyceride [Mass/volume] in Serum or Plasma"
            }
          ],
          "text": "Triglyceride [Mass/volume] in Serum or Plasma"
        },
        "valueQuantity": {
          "system": "http://unitsofmeasure.org",
          "value": 151.3,
          "unit": "mg/dL",
          "code": "mg/dL"
        },
        "referenceRange": [
          {
            "low": {
              "value": 10,
              "code": "mg/dL",
              "system": "http://unitsofmeasure.org"
            }
          },
          {
            "high": {
              "value": 175,
              "code": "mg/dL",
              "system": "http://unitsofmeasure.org"
            }
          }
        ],
        "text": {
          "status": "generated",
          "div": "<div xmlns=\"http://www.w3.org/1999/xhtml\"><table class=\"hl7__eu__lab__report\"><tr><th>Test</th><th>16-Oct-2017</th><th>Reference&#xA0;Range</th><th>Unit</th></tr><tr><td>Triglyceride [Mass/volume] in Serum or Plasma</td><td>151.3</td><td>10 - 175</td><td></td><td>mg/dL</td></tr></table></div>"
        },
        "status": "final",
        "subject": {
          "reference": "urn:uuid:4111c6bb-a688-4b4f-b72e-30412ccbf5d6",
          "display": "Helene Andresen"
        },
        "effectiveDateTime": "2017-10-15T22:53:36Z",
        "specimen": {
          "reference": "urn:uuid:5fbf7682-ab41-4d18-9805-d7c0895652c6"
        }
      }
    },
    {
      "fullUrl": "urn:uuid:553c4b88-d794-412b-82c8-9dd77cb8f3b7",
      "resource": {
        "resourceType": "Observation",
        "id": "553c4b88-d794-412b-82c8-9dd77cb8f3b7",
        "meta": {
          "profile": [
            "http://hl7.eu/fhir/laboratory/StructureDefinition/Observation-resultslab-eu-lab"
          ]
        },
        "performer": [
          {
            "display": "The Central European Lab"
          }
        ],
        "category": [
          {
            "coding": [
              {
                "system": "http://terminology.hl7.org/CodeSystem/observation-category",
                "code": "laboratory"
              }
            ]
          }
        ],
        "code": {
          "coding": [
            {
              "code": "18262-6",
              "system": "http://loinc.org",
              "display": "Cholesterol in LDL [Mass/volume] in Serum or Plasma by Direct assay"
            }
          ],
          "text": "Cholesterol in LDL [Mass/volume] in Serum or Plasma by Direct assay"
        },
        "valueQuantity": {
          "system": "http://unitsofmeasure.org",
          "value": 98.2,
          "unit": "mg/dL",
          "code": "mg/dL"
        },
        "referenceRange": [
          {
            "low": {
              "value": 0,
              "code": "mg/dL",
              "system": "http://unitsofmeasure.org"
            }
          },
          {
            "high": {
              "value": 130,
              "code": "mg/dL",
              "system": "http://unitsofmeasure.org"
            }
          }
        ],
        "text": {
          "status": "generated",
          "div": "<div xmlns=\"http://www.w3.org/1999/xhtml\"><table class=\"hl7__eu__lab__report\"><tr><th>Test</th><th>16-Oct-2017</th><th>Reference&#xA0;Range</th><th>Unit</th></tr><tr><td>Cholesterol in LDL [Mass/volume] in Serum or Plasma by Direct assay</td><td>98.2</td><td>0 - 130</td><td></td><td>mg/dL</td></tr></table></div>"
        },
        "status": "final",
        "subject": {
          "reference": "urn:uuid:4111c6bb-a688-4b4f-b72e-30412ccbf5d6",
          "display": "Helene Andresen"
        },
        "effectiveDateTime": "2017-10-15T22:53:36Z",
        "specimen": {
          "reference": "urn:uuid:5fbf7682-ab41-4d18-9805-d7c0895652c6"
        }
      }
    },
    {
      "fullUrl": "urn:uuid:fb4c167c-3158-4969-a889-d0420b35a3be",
      "resource": {
        "resourceType": "Observation",
        "id": "fb4c167c-3158-4969-a889-d0420b35a3be",
        "meta": {
          "profile": [
            "http://hl7.eu/fhir/laboratory/StructureDefinition/Observation-resultslab-eu-lab"
          ]
        },
        "performer": [
          {
            "display": "The Central European Lab"
          }
        ],
        "category": [
          {
            "coding": [
              {
                "system": "http://terminology.hl7.org/CodeSystem/observation-category",
                "code": "laboratory"
              }
            ]
          }
        ],
        "code": {
          "coding": [
            {
              "code": "2085-9",
              "system": "http://loinc.org",
              "display": "Cholesterol in HDL [Mass/volume] in Serum or Plasma"
            }
          ],
          "text": "Cholesterol in HDL [Mass/volume] in Serum or Plasma"
        },
        "valueQuantity": {
          "system": "http://unitsofmeasure.org",
          "value": 79.4,
          "unit": "mg/dL",
          "code": "mg/dL"
        },
        "referenceRange": [
          {
            "low": {
              "value": 50,
              "code": "mg/dL",
              "system": "http://unitsofmeasure.org"
            }
          },
          {
            "high": {
              "value": 100,
              "code": "mg/dL",
              "system": "http://unitsofmeasure.org"
            }
          }
        ],
        "text": {
          "status": "generated",
          "div": "<div xmlns=\"http://www.w3.org/1999/xhtml\"><table class=\"hl7__eu__lab__report\"><tr><th>Test</th><th>16-Oct-2017</th><th>Reference&#xA0;Range</th><th>Unit</th></tr><tr><td>Cholesterol in HDL [Mass/volume] in Serum or Plasma</td><td>79.4</td><td>50 - 100</td><td></td><td>mg/dL</td></tr></table></div>"
        },
        "status": "final",
        "subject": {
          "reference": "urn:uuid:4111c6bb-a688-4b4f-b72e-30412ccbf5d6",
          "display": "Helene Andresen"
        },
        "effectiveDateTime": "2017-10-15T22:53:36Z",
        "specimen": {
          "reference": "urn:uuid:5fbf7682-ab41-4d18-9805-d7c0895652c6"
        }
      }
    },
    {
      "fullUrl": "urn:uuid:fc9abac1-cd26-42ad-9207-a9ad937b8cfc",
      "resource": {
        "resourceType": "Device",
        "id": "fc9abac1-cd26-42ad-9207-a9ad937b8cfc",
        "deviceName": [
          {
            "name": "SYNDERAI Synthetic Generator",
            "type": "manufacturer-name"
          }
        ],
        "version": [
          {
            "value": "5.0"
          }
        ],
        "text": {
          "status": "generated",
          "div": "<div xmlns=\"http://www.w3.org/1999/xhtml\">SYNDERAI Synthetic Generator v5.0</div>"
        },
        "status": "active\"",
        "distinctIdentifier": "synderai-generator-50",
        "manufacturer": "SYNDERAI Project"
      }
    },
    {
      "fullUrl": "urn:uuid:512a26e6-e1c2-4d8b-bde8-69ad63876e5a",
      "resource": {
        "resourceType": "Provenance",
        "id": "512a26e6-e1c2-4d8b-bde8-69ad63876e5a",
        "target": [
          {
            "reference": "Patient/4111c6bb-a688-4b4f-b72e-30412ccbf5d6"
          },
          {
            "reference": "Bundle/a5db34c2-fedd-40cf-9a4e-af8822fa56fa"
          },
          {
            "reference": "Composition/f4564fbd-6ead-4cf9-90e5-479a43aed4d1"
          },
          {
            "reference": "PractitionerRole/395e64b0-7f5e-449f-b546-f1079ede1647"
          },
          {
            "reference": "Practitioner/6737e403-0ff7-4833-acd6-69150e64d952"
          },
          {
            "reference": "PractitionerRole/c1e32025-2b76-4a53-b4e1-8780d379f5be"
          },
          {
            "reference": "Organization/74e723df-50cc-420f-987c-13c0bd9d9021"
          }
        ],
        "activity": {
          "text": "Synthetic Example Data Generation"
        },
        "policy": [
          "https://synderai.net/synderai-synthetic-data-policy"
        ],
        "agent": [
          {
            "type": {
              "text": "author"
            },
            "who": {
              "reference": "Device/fc9abac1-cd26-42ad-9207-a9ad937b8cfc"
            }
          }
        ],
        "reason": [
          {
            "text": "Interoperability Testing and Training (non-clinical use)"
          }
        ],
        "text": {
          "status": "generated",
          "div": "<div xmlns=\"http://www.w3.org/1999/xhtml\">Provenance for SYNDERAI Synthetic Example Data Resource</div>"
        },
        "recorded": "2017-10-16T00:53:36Z"
      }
    },
    {
      "fullUrl": "urn:uuid:395e64b0-7f5e-449f-b546-f1079ede1647",
      "resource": {
        "resourceType": "PractitionerRole",
        "id": "395e64b0-7f5e-449f-b546-f1079ede1647",
        "meta": {
          "profile": [
            "http://hl7.eu/fhir/base/StructureDefinition/practitionerRole-eu"
          ]
        },
        "text": {
          "status": "generated",
          "div": "<div xmlns=\"http://www.w3.org/1999/xhtml\">Laboratory Role Id: 395e64b0-7f5e-449f-b546-f1079ede1647</div>"
        },
        "practitioner": {
          "reference": "urn:uuid:6737e403-0ff7-4833-acd6-69150e64d952"
        }
      }
    },
    {
      "fullUrl": "urn:uuid:6737e403-0ff7-4833-acd6-69150e64d952",
      "resource": {
        "resourceType": "Practitioner",
        "id": "6737e403-0ff7-4833-acd6-69150e64d952",
        "meta": {
          "profile": [
            "http://hl7.eu/fhir/base/StructureDefinition/practitioner-eu"
          ]
        },
        "identifier": [
          {
            "assigner": {
              "display": "HL7 Europe"
            },
            "system": "urn:oid:2.16.840.1.113883.2.51.999",
            "value": "8ba25958-cb7a-40a9-a973-3bfc310cb6a7"
          }
        ],
        "name": [
          {
            "prefix": [
              "dr"
            ],
            "given": [
              "Ex"
            ],
            "family": "Ample"
          }
        ],
        "address": [
          {
            "line": [
              "Laboratoire Central Européenne",
              "Boulevard du Jardin Botanique 32"
            ],
            "postalCode": "1000",
            "city": "Brussels",
            "country": "Belgium"
          }
        ],
        "text": {
          "status": "generated",
          "div": "<div xmlns=\"http://www.w3.org/1999/xhtml\">Laboratory: Laboratoire Central Européenne, 1000 Brussels, Belgium</div>"
        }
      }
    }
  ],
  "type": "document",
  "timestamp": "2017-10-16T00:53:36Z"
}
