{
  "resourceType": "Bundle",
  "id": "d50d69b4-1de2-4a82-9a9e-c97e25671a45",
  "meta": {
    "profile": [
      "http://hl7.eu/fhir/laboratory/StructureDefinition/Bundle-eu-lab"
    ]
  },
  "identifier": {
    "assigner": {
      "display": "HL7 Europe"
    },
    "system": "urn:oid:2.16.840.1.113883.2.51.999",
    "value": "8d72ec8b-282e-4f5c-8bd2-e80bc9f08462"
  },
  "entry": [
    {
      "fullUrl": "urn:uuid:a1b2391c-3fb7-4363-96e1-fee1d75590d4",
      "resource": {
        "resourceType": "Composition",
        "id": "a1b2391c-3fb7-4363-96e1-fee1d75590d4",
        "meta": {
          "profile": [
            "http://hl7.eu/fhir/laboratory/StructureDefinition/Composition-eu-lab"
          ]
        },
        "identifier": {
          "assigner": {
            "display": "HL7 Europe"
          },
          "system": "urn:oid:2.16.840.1.113883.2.51.999",
          "value": "22d55c78-083c-4180-8fdb-5befc5070094"
        },
        "author": [
          {
            "reference": "urn:uuid:997056c8-a8d6-4724-84e1-6189738cb6bc"
          }
        ],
        "category": [
          {
            "coding": [
              {
                "code": "26436-6",
                "system": "http://loinc.org",
                "display": "Laboratory studies (set)"
              }
            ]
          }
        ],
        "type": {
          "coding": [
            {
              "code": "11502-2",
              "system": "http://loinc.org",
              "display": "Laboratory report"
            }
          ],
          "text": "Laboratory Report"
        },
        "section": [
          {
            "code": {
              "coding": [
                {
                  "code": "26436-6",
                  "system": "http://loinc.org",
                  "display": "Laboratory studies (set)"
                }
              ],
              "text": "Laboratory studies"
            },
            "section": [
              {
                "code": {
                  "coding": [
                    {
                      "code": "$18719-5",
                      "system": "http://loinc.org",
                      "display": "Chemistry studies (set)"
                    }
                  ],
                  "text": "Chemistry"
                },
                "entry": [
                  {
                    "reference": "urn:uuid:8ff66075-16c8-462c-b360-9dbac8cd1a52"
                  },
                  {
                    "reference": "urn:uuid:5736da1c-690e-43ee-8278-f66f7dc8da5a"
                  },
                  {
                    "reference": "urn:uuid:f9926d0a-b4a3-4d9a-a9d6-e2ad259389ba"
                  },
                  {
                    "reference": "urn:uuid:aca67f34-db8d-43ed-a961-854ba3a49dd3"
                  },
                  {
                    "reference": "urn:uuid:f03e6d89-0c0b-40cf-ba1a-d7624d01b9fc"
                  },
                  {
                    "reference": "urn:uuid:e45020e8-4e67-41a2-aaf4-55d39e9376ca"
                  },
                  {
                    "reference": "urn:uuid:a22d072d-248e-4504-a413-ffb0f5bf0c93"
                  },
                  {
                    "reference": "urn:uuid:02c33aa0-3d43-4023-b090-2dbd22e864fb"
                  },
                  {
                    "reference": "urn:uuid:ef8d0758-8687-452c-ba02-bb4455c3188d"
                  }
                ],
                "text": {
                  "status": "generated",
                  "div": "<div xmlns=\"http://www.w3.org/1999/xhtml\"><h3>Chemistry</h3><table class=\"hl7__eu__lab__report\"><thead><tr><th>Test</th><th>20-OCT-2015</th><th>Reference&#xA0;Range</th><th>Unit</th></tr></thead><tbody><tr><td>Hemoglobin A1c/Hemoglobin.total in Blood</td><td>6.1</td><td>4.5 - 6.4</td><td>%</td></tr><tr><td>Glucose [Mass/volume] in Blood</td><td>93.9</td><td>70 - 140</td><td>mg/dL</td></tr><tr><td>Urea nitrogen [Mass/volume] in Blood</td><td>19.0</td><td>7 - 43</td><td>mg/dL</td></tr><tr><td>Creatinine [Mass/volume] in Blood</td><td>0.8</td><td>0.7 - 1.1</td><td>mg/dL</td></tr><tr><td>Calcium [Mass/volume] in Blood</td><td>9.7</td><td>8.5 - 10.4</td><td>mg/dL</td></tr><tr><td>Sodium [Moles/volume] in Blood</td><td>142.0</td><td>135 - 145</td><td>mmol/L</td></tr><tr><td>Potassium [Moles/volume] in Blood</td><td>3.9</td><td>3.5 - 5.1</td><td>mmol/L</td></tr><tr><td>Chloride [Moles/volume] in Blood</td><td>106.2</td><td>98 - 107</td><td>mmol/L</td></tr><tr><td>Carbon dioxide, total [Moles/volume] in Blood</td><td>28.8</td><td>22 - 32</td><td>mmol/L</td></tr></tbody></table></div>"
                },
                "title": "Chemistry"
              }
            ],
            "title": "Laboratory Report"
          },
          {
            "text": {
              "status": "generated",
              "div": "<div xmlns=\"http://www.w3.org/1999/xhtml\"><h3>Annotation</h3><table class=\"hl7__eu__lab__report\"><tr><th>Conclusion and Recommendations based on this report and previous findings known to us</th></tr><tr><td>All measured parameters are within normal limits. HbA1c is at the upper end of normal, suggesting good glycemic control but close monitoring for diabetes is recommended. Renal function, electrolytes, and metabolic parameters are unremarkable. No acute laboratory abnormalities detected.</td></tr></table></div>"
            },
            "code": {
              "coding": [
                {
                  "system": "http://loinc.org",
                  "code": "48767-8",
                  "display": "Annotation comment"
                }
              ]
            },
            "title": "Annotation comment"
          }
        ],
        "status": "final",
        "subject": {
          "reference": "urn:uuid:b1d29ba9-2e25-4788-aad7-aaff4461b7fb",
          "display": "Louise Köster"
        },
        "date": "2015-10-20T06:02:53Z",
        "title": "Laboratory Report",
        "confidentiality": "N"
      }
    },
    {
      "fullUrl": "urn:uuid:5cc5673a-16c8-4003-9d9e-896515fe4b87",
      "resource": {
        "resourceType": "DiagnosticReport",
        "id": "5cc5673a-16c8-4003-9d9e-896515fe4b87",
        "meta": {
          "profile": [
            "http://hl7.eu/fhir/laboratory/StructureDefinition/DiagnosticReport-eu-lab"
          ]
        },
        "identifier": [
          {
            "assigner": {
              "display": "HL7 Europe"
            },
            "system": "urn:oid:2.16.840.1.113883.2.51.999",
            "value": "f40ecd3f-68a9-41ff-83a1-fe1f75e94db8"
          }
        ],
        "extension": [
          {
            "url": "http://hl7.org/fhir/5.0/StructureDefinition/extension-DiagnosticReport.composition",
            "valueReference": {
              "reference": "urn:uuid:22d55c78-083c-4180-8fdb-5befc5070094"
            }
          }
        ],
        "category": [
          {
            "coding": [
              {
                "code": "26436-6",
                "system": "http://loinc.org",
                "display": "Laboratory studies (set)"
              }
            ]
          }
        ],
        "specimen": [
          {
            "reference": "urn:uuid:c4d2a5df-4ed5-4499-8af3-39954ea30965"
          }
        ],
        "result": [
          {
            "reference": "urn:uuid:8ff66075-16c8-462c-b360-9dbac8cd1a52"
          },
          {
            "reference": "urn:uuid:5736da1c-690e-43ee-8278-f66f7dc8da5a"
          },
          {
            "reference": "urn:uuid:f9926d0a-b4a3-4d9a-a9d6-e2ad259389ba"
          },
          {
            "reference": "urn:uuid:aca67f34-db8d-43ed-a961-854ba3a49dd3"
          },
          {
            "reference": "urn:uuid:f03e6d89-0c0b-40cf-ba1a-d7624d01b9fc"
          },
          {
            "reference": "urn:uuid:e45020e8-4e67-41a2-aaf4-55d39e9376ca"
          },
          {
            "reference": "urn:uuid:a22d072d-248e-4504-a413-ffb0f5bf0c93"
          },
          {
            "reference": "urn:uuid:02c33aa0-3d43-4023-b090-2dbd22e864fb"
          },
          {
            "reference": "urn:uuid:ef8d0758-8687-452c-ba02-bb4455c3188d"
          }
        ],
        "status": "registered",
        "code": {
          "coding": [
            {
              "code": "11502-2",
              "system": "http://loinc.org",
              "display": "Laboratory report"
            }
          ]
        },
        "subject": {
          "reference": "urn:uuid:b1d29ba9-2e25-4788-aad7-aaff4461b7fb",
          "display": "Louise Köster"
        }
      }
    },
    {
      "fullUrl": "urn:uuid:b1d29ba9-2e25-4788-aad7-aaff4461b7fb",
      "resource": {
        "resourceType": "Patient",
        "id": "b1d29ba9-2e25-4788-aad7-aaff4461b7fb",
        "meta": {
          "security": [
            {
              "system": "http://terminology.hl7.org/CodeSystem/v3-ActReason",
              "code": "HTEST"
            },
            {
              "system": "http://terminology.hl7.org/CodeSystem/v3-ActReason",
              "code": "TRAIN"
            }
          ],
          "tag": [
            {
              "system": "https://synderai.net/fhir/CodeSystem/tags",
              "code": "synthetic",
              "display": "SYNDERAI Synthetic data"
            }
          ],
          "profile": [
            "http://hl7.eu/fhir/base/StructureDefinition/patient-eu-core"
          ]
        },
        "identifier": [
          {
            "type": {
              "coding": [
                {
                  "code": "PT",
                  "system": "http://terminology.hl7.org/CodeSystem/v2-0203"
                }
              ]
            },
            "system": "http://ec.europa.eu/identifier/eci",
            "value": "1053-167357-1"
          },
          {
            "type": {
              "coding": [
                {
                  "code": "MR",
                  "system": "http://terminology.hl7.org/CodeSystem/v2-0203"
                }
              ]
            },
            "system": "http://local.setting.eu/identifier",
            "value": "706b1a23-528f-0ed7-639f-1dc54e8ecc5d"
          }
        ],
        "name": [
          {
            "family": "Köster"
          },
          {
            "given": [
              "Louise"
            ]
          },
          {
            "text": "Louise Köster"
          }
        ],
        "address": [
          {
            "line": [
              "Regina-Butte-Ring 737"
            ],
            "use": "home",
            "type": "physical",
            "postalCode": "88348",
            "city": "Saulgau",
            "country": "Germany"
          }
        ],
        "telecom": [
          {
            "system": "phone",
            "value": "+49(0)2075293938"
          }
        ],
        "extension": [
          {
            "url": "http://hl7.org/fhir/StructureDefinition/patient-nationality",
            "valueCodeableConcept": {
              "coding": [
                {
                  "code": "DE",
                  "system": "http://hl7.org/fhir/ValueSet/country"
                }
              ]
            }
          }
        ],
        "text": {
          "status": "generated",
          "div": "<div xmlns=\"http://www.w3.org/1999/xhtml\"><table class=\"hl7__ips\"><tr><td>Louise Köster</td><td>female</td><td>01-Jul-1957</td></tr></table></div>"
        },
        "gender": "female",
        "birthDate": "1957-07-01"
      }
    },
    {
      "fullUrl": "urn:uuid:c0238118-24de-4c8c-b8f8-a27c5da52ebd",
      "resource": {
        "resourceType": "ServiceRequest",
        "id": "c0238118-24de-4c8c-b8f8-a27c5da52ebd",
        "meta": {
          "profile": [
            "http://hl7.eu/fhir/laboratory/StructureDefinition/ServiceRequest-eu-lab"
          ]
        },
        "identifier": [
          {
            "system": "http://example.org",
            "value": "cdf8570e-a24b-4064-a91d-5c22e0a9e7c5"
          }
        ],
        "specimen": [
          {
            "reference": "urn:uuid:c4d2a5df-4ed5-4499-8af3-39954ea30965"
          }
        ],
        "reasonCode": [
          {
            "coding": [
              {
                "code": "15777000",
                "system": "http://snomed.info/sct",
                "display": "Prediabetes"
              }
            ]
          },
          {
            "coding": [
              {
                "code": "237602007",
                "system": "http://snomed.info/sct",
                "display": "Metabolic syndrome X"
              }
            ]
          },
          {
            "coding": [
              {
                "code": "414545008",
                "system": "http://snomed.info/sct",
                "display": "Ischemic heart disease"
              }
            ]
          },
          {
            "coding": [
              {
                "code": "59621000",
                "system": "http://snomed.info/sct",
                "display": "Essential hypertension"
              }
            ]
          }
        ],
        "status": "active",
        "intent": "order",
        "code": {
          "coding": [
            {
              "code": "108252007",
              "system": "http://snomed.info/sct",
              "display": "Laboratory procedure"
            }
          ]
        },
        "subject": {
          "reference": "urn:uuid:b1d29ba9-2e25-4788-aad7-aaff4461b7fb",
          "display": "Louise Köster"
        },
        "requester": {
          "reference": "urn:uuid:62c0d77d-1a39-4c21-adbd-0aea14b93207"
        }
      }
    },
    {
      "fullUrl": "urn:uuid:62c0d77d-1a39-4c21-adbd-0aea14b93207",
      "resource": {
        "resourceType": "PractitionerRole",
        "id": "62c0d77d-1a39-4c21-adbd-0aea14b93207",
        "meta": {
          "profile": [
            "http://hl7.eu/fhir/base/StructureDefinition/practitionerRole-eu"
          ]
        },
        "text": {
          "status": "generated",
          "div": "<div xmlns=\"http://www.w3.org/1999/xhtml\">Provider Role Id: 62c0d77d-1a39-4c21-adbd-0aea14b93207</div>"
        },
        "organization": {
          "reference": "urn:uuid:340266d9-d3e9-4741-bc66-c3fb3d60e9ba"
        }
      }
    },
    {
      "fullUrl": "urn:uuid:340266d9-d3e9-4741-bc66-c3fb3d60e9ba",
      "resource": {
        "resourceType": "Organization",
        "id": "340266d9-d3e9-4741-bc66-c3fb3d60e9ba",
        "meta": {
          "profile": [
            "http://hl7.eu/fhir/base/StructureDefinition/organization-eu"
          ]
        },
        "identifier": [
          {
            "assigner": {
              "display": "HL7 Europe"
            },
            "system": "urn:oid:2.16.840.1.113883.2.51.999",
            "value": "d0d7ce4c-b11e-4bbd-a0ec-3feced8ba128"
          }
        ],
        "address": [
          {
            "line": [
              "Am Schönen Moos 7"
            ],
            "city": "Bad Saulgau",
            "postalCode": "88348",
            "country": "Germany"
          }
        ],
        "text": {
          "status": "generated",
          "div": "<div xmlns=\"http://www.w3.org/1999/xhtml\">Provider Organization: Klinik am schönen Moos</div>"
        },
        "name": "Klinik am schönen Moos"
      }
    },
    {
      "fullUrl": "urn:uuid:c4d2a5df-4ed5-4499-8af3-39954ea30965",
      "resource": {
        "resourceType": "Specimen",
        "id": "c4d2a5df-4ed5-4499-8af3-39954ea30965",
        "meta": {
          "profile": [
            "http://hl7.eu/fhir/laboratory/StructureDefinition/Specimen-eu-lab"
          ]
        },
        "collection": {
          "collectedDateTime": "2015-10-20"
        },
        "text": {
          "status": "generated",
          "div": "<div xmlns=\"http://www.w3.org/1999/xhtml\"><table class=\"hl7__eu__lab__report\"><tr><th>Specimen</th><th>Collection Date</th></tr><tr><td>Whole blood specimen (specimen)</td><td><span class=\"nb\">20-Oct-2015</span></td></tr></table></div>"
        },
        "type": {
          "coding": [
            {
              "code": "258580003",
              "system": "http://snomed.info/sct",
              "display": "Whole blood specimen (specimen)"
            }
          ]
        }
      }
    },
    {
      "fullUrl": "urn:uuid:8ff66075-16c8-462c-b360-9dbac8cd1a52",
      "resource": {
        "resourceType": "Observation",
        "id": "8ff66075-16c8-462c-b360-9dbac8cd1a52",
        "meta": {
          "profile": [
            "http://hl7.eu/fhir/laboratory/StructureDefinition/Observation-resultslab-eu-lab"
          ]
        },
        "performer": [
          {
            "display": "The Central European Lab"
          }
        ],
        "category": [
          {
            "coding": [
              {
                "system": "http://terminology.hl7.org/CodeSystem/observation-category",
                "code": "laboratory"
              }
            ]
          }
        ],
        "code": {
          "coding": [
            {
              "code": "4548-4",
              "system": "http://loinc.org",
              "display": "Hemoglobin A1c/Hemoglobin.total in Blood"
            }
          ],
          "text": "Hemoglobin A1c/Hemoglobin.total in Blood"
        },
        "valueQuantity": {
          "system": "http://unitsofmeasure.org",
          "value": 6.1,
          "unit": "%",
          "code": "%"
        },
        "referenceRange": [
          {
            "low": {
              "value": 4.5,
              "code": "%",
              "system": "http://unitsofmeasure.org"
            }
          },
          {
            "high": {
              "value": 6.4,
              "code": "%",
              "system": "http://unitsofmeasure.org"
            }
          }
        ],
        "text": {
          "status": "generated",
          "div": "<div xmlns=\"http://www.w3.org/1999/xhtml\"><table class=\"hl7__eu__lab__report\"><tr><th>Test</th><th>20-Oct-2015</th><th>Reference&#xA0;Range</th><th>Unit</th></tr><tr><td>Hemoglobin A1c/Hemoglobin.total in Blood</td><td>6.1</td><td>4.5 - 6.4</td><td></td><td>%</td></tr></table></div>"
        },
        "status": "final",
        "subject": {
          "reference": "urn:uuid:b1d29ba9-2e25-4788-aad7-aaff4461b7fb",
          "display": "Louise Köster"
        },
        "effectiveDateTime": "2015-10-20T04:02:53Z",
        "specimen": {
          "reference": "urn:uuid:c4d2a5df-4ed5-4499-8af3-39954ea30965"
        }
      }
    },
    {
      "fullUrl": "urn:uuid:5736da1c-690e-43ee-8278-f66f7dc8da5a",
      "resource": {
        "resourceType": "Observation",
        "id": "5736da1c-690e-43ee-8278-f66f7dc8da5a",
        "meta": {
          "profile": [
            "http://hl7.eu/fhir/laboratory/StructureDefinition/Observation-resultslab-eu-lab"
          ]
        },
        "performer": [
          {
            "display": "The Central European Lab"
          }
        ],
        "category": [
          {
            "coding": [
              {
                "system": "http://terminology.hl7.org/CodeSystem/observation-category",
                "code": "laboratory"
              }
            ]
          }
        ],
        "code": {
          "coding": [
            {
              "code": "2339-0",
              "system": "http://loinc.org",
              "display": "Glucose [Mass/volume] in Blood"
            }
          ],
          "text": "Glucose [Mass/volume] in Blood"
        },
        "valueQuantity": {
          "system": "http://unitsofmeasure.org",
          "value": 93.9,
          "unit": "mg/dL",
          "code": "mg/dL"
        },
        "referenceRange": [
          {
            "low": {
              "value": 70,
              "code": "mg/dL",
              "system": "http://unitsofmeasure.org"
            }
          },
          {
            "high": {
              "value": 140,
              "code": "mg/dL",
              "system": "http://unitsofmeasure.org"
            }
          }
        ],
        "text": {
          "status": "generated",
          "div": "<div xmlns=\"http://www.w3.org/1999/xhtml\"><table class=\"hl7__eu__lab__report\"><tr><th>Test</th><th>20-Oct-2015</th><th>Reference&#xA0;Range</th><th>Unit</th></tr><tr><td>Glucose [Mass/volume] in Blood</td><td>93.9</td><td>70 - 140</td><td></td><td>mg/dL</td></tr></table></div>"
        },
        "status": "final",
        "subject": {
          "reference": "urn:uuid:b1d29ba9-2e25-4788-aad7-aaff4461b7fb",
          "display": "Louise Köster"
        },
        "effectiveDateTime": "2015-10-20T04:02:53Z",
        "specimen": {
          "reference": "urn:uuid:c4d2a5df-4ed5-4499-8af3-39954ea30965"
        }
      }
    },
    {
      "fullUrl": "urn:uuid:f9926d0a-b4a3-4d9a-a9d6-e2ad259389ba",
      "resource": {
        "resourceType": "Observation",
        "id": "f9926d0a-b4a3-4d9a-a9d6-e2ad259389ba",
        "meta": {
          "profile": [
            "http://hl7.eu/fhir/laboratory/StructureDefinition/Observation-resultslab-eu-lab"
          ]
        },
        "performer": [
          {
            "display": "The Central European Lab"
          }
        ],
        "category": [
          {
            "coding": [
              {
                "system": "http://terminology.hl7.org/CodeSystem/observation-category",
                "code": "laboratory"
              }
            ]
          }
        ],
        "code": {
          "coding": [
            {
              "code": "6299-2",
              "system": "http://loinc.org",
              "display": "Urea nitrogen [Mass/volume] in Blood"
            }
          ],
          "text": "Urea nitrogen [Mass/volume] in Blood"
        },
        "valueQuantity": {
          "system": "http://unitsofmeasure.org",
          "value": 19,
          "unit": "mg/dL",
          "code": "mg/dL"
        },
        "referenceRange": [
          {
            "low": {
              "value": 7,
              "code": "mg/dL",
              "system": "http://unitsofmeasure.org"
            }
          },
          {
            "high": {
              "value": 43,
              "code": "mg/dL",
              "system": "http://unitsofmeasure.org"
            }
          }
        ],
        "text": {
          "status": "generated",
          "div": "<div xmlns=\"http://www.w3.org/1999/xhtml\"><table class=\"hl7__eu__lab__report\"><tr><th>Test</th><th>20-Oct-2015</th><th>Reference&#xA0;Range</th><th>Unit</th></tr><tr><td>Urea nitrogen [Mass/volume] in Blood</td><td>19.0</td><td>7 - 43</td><td></td><td>mg/dL</td></tr></table></div>"
        },
        "status": "final",
        "subject": {
          "reference": "urn:uuid:b1d29ba9-2e25-4788-aad7-aaff4461b7fb",
          "display": "Louise Köster"
        },
        "effectiveDateTime": "2015-10-20T04:02:53Z",
        "specimen": {
          "reference": "urn:uuid:c4d2a5df-4ed5-4499-8af3-39954ea30965"
        }
      }
    },
    {
      "fullUrl": "urn:uuid:aca67f34-db8d-43ed-a961-854ba3a49dd3",
      "resource": {
        "resourceType": "Observation",
        "id": "aca67f34-db8d-43ed-a961-854ba3a49dd3",
        "meta": {
          "profile": [
            "http://hl7.eu/fhir/laboratory/StructureDefinition/Observation-resultslab-eu-lab"
          ]
        },
        "performer": [
          {
            "display": "The Central European Lab"
          }
        ],
        "category": [
          {
            "coding": [
              {
                "system": "http://terminology.hl7.org/CodeSystem/observation-category",
                "code": "laboratory"
              }
            ]
          }
        ],
        "code": {
          "coding": [
            {
              "code": "38483-4",
              "system": "http://loinc.org",
              "display": "Creatinine [Mass/volume] in Blood"
            }
          ],
          "text": "Creatinine [Mass/volume] in Blood"
        },
        "valueQuantity": {
          "system": "http://unitsofmeasure.org",
          "value": 0.8,
          "unit": "mg/dL",
          "code": "mg/dL"
        },
        "referenceRange": [
          {
            "low": {
              "value": 0.7,
              "code": "mg/dL",
              "system": "http://unitsofmeasure.org"
            }
          },
          {
            "high": {
              "value": 1.1,
              "code": "mg/dL",
              "system": "http://unitsofmeasure.org"
            }
          }
        ],
        "text": {
          "status": "generated",
          "div": "<div xmlns=\"http://www.w3.org/1999/xhtml\"><table class=\"hl7__eu__lab__report\"><tr><th>Test</th><th>20-Oct-2015</th><th>Reference&#xA0;Range</th><th>Unit</th></tr><tr><td>Creatinine [Mass/volume] in Blood</td><td>0.8</td><td>0.7 - 1.1</td><td></td><td>mg/dL</td></tr></table></div>"
        },
        "status": "final",
        "subject": {
          "reference": "urn:uuid:b1d29ba9-2e25-4788-aad7-aaff4461b7fb",
          "display": "Louise Köster"
        },
        "effectiveDateTime": "2015-10-20T04:02:53Z",
        "specimen": {
          "reference": "urn:uuid:c4d2a5df-4ed5-4499-8af3-39954ea30965"
        }
      }
    },
    {
      "fullUrl": "urn:uuid:f03e6d89-0c0b-40cf-ba1a-d7624d01b9fc",
      "resource": {
        "resourceType": "Observation",
        "id": "f03e6d89-0c0b-40cf-ba1a-d7624d01b9fc",
        "meta": {
          "profile": [
            "http://hl7.eu/fhir/laboratory/StructureDefinition/Observation-resultslab-eu-lab"
          ]
        },
        "performer": [
          {
            "display": "The Central European Lab"
          }
        ],
        "category": [
          {
            "coding": [
              {
                "system": "http://terminology.hl7.org/CodeSystem/observation-category",
                "code": "laboratory"
              }
            ]
          }
        ],
        "code": {
          "coding": [
            {
              "code": "49765-1",
              "system": "http://loinc.org",
              "display": "Calcium [Mass/volume] in Blood"
            }
          ],
          "text": "Calcium [Mass/volume] in Blood"
        },
        "valueQuantity": {
          "system": "http://unitsofmeasure.org",
          "value": 9.7,
          "unit": "mg/dL",
          "code": "mg/dL"
        },
        "referenceRange": [
          {
            "low": {
              "value": 8.5,
              "code": "mg/dL",
              "system": "http://unitsofmeasure.org"
            }
          },
          {
            "high": {
              "value": 10.4,
              "code": "mg/dL",
              "system": "http://unitsofmeasure.org"
            }
          }
        ],
        "text": {
          "status": "generated",
          "div": "<div xmlns=\"http://www.w3.org/1999/xhtml\"><table class=\"hl7__eu__lab__report\"><tr><th>Test</th><th>20-Oct-2015</th><th>Reference&#xA0;Range</th><th>Unit</th></tr><tr><td>Calcium [Mass/volume] in Blood</td><td>9.7</td><td>8.5 - 10.4</td><td></td><td>mg/dL</td></tr></table></div>"
        },
        "status": "final",
        "subject": {
          "reference": "urn:uuid:b1d29ba9-2e25-4788-aad7-aaff4461b7fb",
          "display": "Louise Köster"
        },
        "effectiveDateTime": "2015-10-20T04:02:53Z",
        "specimen": {
          "reference": "urn:uuid:c4d2a5df-4ed5-4499-8af3-39954ea30965"
        }
      }
    },
    {
      "fullUrl": "urn:uuid:e45020e8-4e67-41a2-aaf4-55d39e9376ca",
      "resource": {
        "resourceType": "Observation",
        "id": "e45020e8-4e67-41a2-aaf4-55d39e9376ca",
        "meta": {
          "profile": [
            "http://hl7.eu/fhir/laboratory/StructureDefinition/Observation-resultslab-eu-lab"
          ]
        },
        "performer": [
          {
            "display": "The Central European Lab"
          }
        ],
        "category": [
          {
            "coding": [
              {
                "system": "http://terminology.hl7.org/CodeSystem/observation-category",
                "code": "laboratory"
              }
            ]
          }
        ],
        "code": {
          "coding": [
            {
              "code": "2947-0",
              "system": "http://loinc.org",
              "display": "Sodium [Moles/volume] in Blood"
            }
          ],
          "text": "Sodium [Moles/volume] in Blood"
        },
        "valueQuantity": {
          "system": "http://unitsofmeasure.org",
          "value": 142,
          "unit": "mmol/L",
          "code": "mmol/L"
        },
        "referenceRange": [
          {
            "low": {
              "value": 135,
              "code": "mmol/L",
              "system": "http://unitsofmeasure.org"
            }
          },
          {
            "high": {
              "value": 145,
              "code": "mmol/L",
              "system": "http://unitsofmeasure.org"
            }
          }
        ],
        "text": {
          "status": "generated",
          "div": "<div xmlns=\"http://www.w3.org/1999/xhtml\"><table class=\"hl7__eu__lab__report\"><tr><th>Test</th><th>20-Oct-2015</th><th>Reference&#xA0;Range</th><th>Unit</th></tr><tr><td>Sodium [Moles/volume] in Blood</td><td>142.0</td><td>135 - 145</td><td></td><td>mmol/L</td></tr></table></div>"
        },
        "status": "final",
        "subject": {
          "reference": "urn:uuid:b1d29ba9-2e25-4788-aad7-aaff4461b7fb",
          "display": "Louise Köster"
        },
        "effectiveDateTime": "2015-10-20T04:02:53Z",
        "specimen": {
          "reference": "urn:uuid:c4d2a5df-4ed5-4499-8af3-39954ea30965"
        }
      }
    },
    {
      "fullUrl": "urn:uuid:a22d072d-248e-4504-a413-ffb0f5bf0c93",
      "resource": {
        "resourceType": "Observation",
        "id": "a22d072d-248e-4504-a413-ffb0f5bf0c93",
        "meta": {
          "profile": [
            "http://hl7.eu/fhir/laboratory/StructureDefinition/Observation-resultslab-eu-lab"
          ]
        },
        "performer": [
          {
            "display": "The Central European Lab"
          }
        ],
        "category": [
          {
            "coding": [
              {
                "system": "http://terminology.hl7.org/CodeSystem/observation-category",
                "code": "laboratory"
              }
            ]
          }
        ],
        "code": {
          "coding": [
            {
              "code": "6298-4",
              "system": "http://loinc.org",
              "display": "Potassium [Moles/volume] in Blood"
            }
          ],
          "text": "Potassium [Moles/volume] in Blood"
        },
        "valueQuantity": {
          "system": "http://unitsofmeasure.org",
          "value": 3.9,
          "unit": "mmol/L",
          "code": "mmol/L"
        },
        "referenceRange": [
          {
            "low": {
              "value": 3.5,
              "code": "mmol/L",
              "system": "http://unitsofmeasure.org"
            }
          },
          {
            "high": {
              "value": 5.1,
              "code": "mmol/L",
              "system": "http://unitsofmeasure.org"
            }
          }
        ],
        "text": {
          "status": "generated",
          "div": "<div xmlns=\"http://www.w3.org/1999/xhtml\"><table class=\"hl7__eu__lab__report\"><tr><th>Test</th><th>20-Oct-2015</th><th>Reference&#xA0;Range</th><th>Unit</th></tr><tr><td>Potassium [Moles/volume] in Blood</td><td>3.9</td><td>3.5 - 5.1</td><td></td><td>mmol/L</td></tr></table></div>"
        },
        "status": "final",
        "subject": {
          "reference": "urn:uuid:b1d29ba9-2e25-4788-aad7-aaff4461b7fb",
          "display": "Louise Köster"
        },
        "effectiveDateTime": "2015-10-20T04:02:53Z",
        "specimen": {
          "reference": "urn:uuid:c4d2a5df-4ed5-4499-8af3-39954ea30965"
        }
      }
    },
    {
      "fullUrl": "urn:uuid:02c33aa0-3d43-4023-b090-2dbd22e864fb",
      "resource": {
        "resourceType": "Observation",
        "id": "02c33aa0-3d43-4023-b090-2dbd22e864fb",
        "meta": {
          "profile": [
            "http://hl7.eu/fhir/laboratory/StructureDefinition/Observation-resultslab-eu-lab"
          ]
        },
        "performer": [
          {
            "display": "The Central European Lab"
          }
        ],
        "category": [
          {
            "coding": [
              {
                "system": "http://terminology.hl7.org/CodeSystem/observation-category",
                "code": "laboratory"
              }
            ]
          }
        ],
        "code": {
          "coding": [
            {
              "code": "2069-3",
              "system": "http://loinc.org",
              "display": "Chloride [Moles/volume] in Blood"
            }
          ],
          "text": "Chloride [Moles/volume] in Blood"
        },
        "valueQuantity": {
          "system": "http://unitsofmeasure.org",
          "value": 106.2,
          "unit": "mmol/L",
          "code": "mmol/L"
        },
        "referenceRange": [
          {
            "low": {
              "value": 98,
              "code": "mmol/L",
              "system": "http://unitsofmeasure.org"
            }
          },
          {
            "high": {
              "value": 107,
              "code": "mmol/L",
              "system": "http://unitsofmeasure.org"
            }
          }
        ],
        "text": {
          "status": "generated",
          "div": "<div xmlns=\"http://www.w3.org/1999/xhtml\"><table class=\"hl7__eu__lab__report\"><tr><th>Test</th><th>20-Oct-2015</th><th>Reference&#xA0;Range</th><th>Unit</th></tr><tr><td>Chloride [Moles/volume] in Blood</td><td>106.2</td><td>98 - 107</td><td></td><td>mmol/L</td></tr></table></div>"
        },
        "status": "final",
        "subject": {
          "reference": "urn:uuid:b1d29ba9-2e25-4788-aad7-aaff4461b7fb",
          "display": "Louise Köster"
        },
        "effectiveDateTime": "2015-10-20T04:02:53Z",
        "specimen": {
          "reference": "urn:uuid:c4d2a5df-4ed5-4499-8af3-39954ea30965"
        }
      }
    },
    {
      "fullUrl": "urn:uuid:ef8d0758-8687-452c-ba02-bb4455c3188d",
      "resource": {
        "resourceType": "Observation",
        "id": "ef8d0758-8687-452c-ba02-bb4455c3188d",
        "meta": {
          "profile": [
            "http://hl7.eu/fhir/laboratory/StructureDefinition/Observation-resultslab-eu-lab"
          ]
        },
        "performer": [
          {
            "display": "The Central European Lab"
          }
        ],
        "category": [
          {
            "coding": [
              {
                "system": "http://terminology.hl7.org/CodeSystem/observation-category",
                "code": "laboratory"
              }
            ]
          }
        ],
        "code": {
          "coding": [
            {
              "code": "20565-8",
              "system": "http://loinc.org",
              "display": "Carbon dioxide, total [Moles/volume] in Blood"
            }
          ],
          "text": "Carbon dioxide, total [Moles/volume] in Blood"
        },
        "valueQuantity": {
          "system": "http://unitsofmeasure.org",
          "value": 28.8,
          "unit": "mmol/L",
          "code": "mmol/L"
        },
        "referenceRange": [
          {
            "low": {
              "value": 22,
              "code": "mmol/L",
              "system": "http://unitsofmeasure.org"
            }
          },
          {
            "high": {
              "value": 32,
              "code": "mmol/L",
              "system": "http://unitsofmeasure.org"
            }
          }
        ],
        "text": {
          "status": "generated",
          "div": "<div xmlns=\"http://www.w3.org/1999/xhtml\"><table class=\"hl7__eu__lab__report\"><tr><th>Test</th><th>20-Oct-2015</th><th>Reference&#xA0;Range</th><th>Unit</th></tr><tr><td>Carbon dioxide, total [Moles/volume] in Blood</td><td>28.8</td><td>22 - 32</td><td></td><td>mmol/L</td></tr></table></div>"
        },
        "status": "final",
        "subject": {
          "reference": "urn:uuid:b1d29ba9-2e25-4788-aad7-aaff4461b7fb",
          "display": "Louise Köster"
        },
        "effectiveDateTime": "2015-10-20T04:02:53Z",
        "specimen": {
          "reference": "urn:uuid:c4d2a5df-4ed5-4499-8af3-39954ea30965"
        }
      }
    },
    {
      "fullUrl": "urn:uuid:52b0a034-fab1-445b-b50f-f7f38bb066ac",
      "resource": {
        "resourceType": "Device",
        "id": "52b0a034-fab1-445b-b50f-f7f38bb066ac",
        "deviceName": [
          {
            "name": "SYNDERAI Synthetic Generator",
            "type": "manufacturer-name"
          }
        ],
        "version": [
          {
            "value": "5.0"
          }
        ],
        "text": {
          "status": "generated",
          "div": "<div xmlns=\"http://www.w3.org/1999/xhtml\">SYNDERAI Synthetic Generator v5.0</div>"
        },
        "status": "active\"",
        "distinctIdentifier": "synderai-generator-50",
        "manufacturer": "SYNDERAI Project"
      }
    },
    {
      "fullUrl": "urn:uuid:bf1cbb1c-72a7-456f-bb6f-a4245b9e01df",
      "resource": {
        "resourceType": "Provenance",
        "id": "bf1cbb1c-72a7-456f-bb6f-a4245b9e01df",
        "target": [
          {
            "reference": "Patient/b1d29ba9-2e25-4788-aad7-aaff4461b7fb"
          },
          {
            "reference": "Bundle/d50d69b4-1de2-4a82-9a9e-c97e25671a45"
          },
          {
            "reference": "Composition/a1b2391c-3fb7-4363-96e1-fee1d75590d4"
          },
          {
            "reference": "PractitionerRole/997056c8-a8d6-4724-84e1-6189738cb6bc"
          },
          {
            "reference": "Practitioner/24b9dc0a-5e0a-4d42-a51c-620ffe605a8f"
          },
          {
            "reference": "PractitionerRole/62c0d77d-1a39-4c21-adbd-0aea14b93207"
          },
          {
            "reference": "Organization/340266d9-d3e9-4741-bc66-c3fb3d60e9ba"
          }
        ],
        "activity": {
          "text": "Synthetic Example Data Generation"
        },
        "policy": [
          "https://synderai.net/synderai-synthetic-data-policy"
        ],
        "agent": [
          {
            "type": {
              "text": "author"
            },
            "who": {
              "reference": "Device/52b0a034-fab1-445b-b50f-f7f38bb066ac"
            }
          }
        ],
        "reason": [
          {
            "text": "Interoperability Testing and Training (non-clinical use)"
          }
        ],
        "text": {
          "status": "generated",
          "div": "<div xmlns=\"http://www.w3.org/1999/xhtml\">Provenance for SYNDERAI Synthetic Example Data Resource</div>"
        },
        "recorded": "2015-10-20T06:02:53Z"
      }
    },
    {
      "fullUrl": "urn:uuid:997056c8-a8d6-4724-84e1-6189738cb6bc",
      "resource": {
        "resourceType": "PractitionerRole",
        "id": "997056c8-a8d6-4724-84e1-6189738cb6bc",
        "meta": {
          "profile": [
            "http://hl7.eu/fhir/base/StructureDefinition/practitionerRole-eu"
          ]
        },
        "text": {
          "status": "generated",
          "div": "<div xmlns=\"http://www.w3.org/1999/xhtml\">Laboratory Role Id: 997056c8-a8d6-4724-84e1-6189738cb6bc</div>"
        },
        "practitioner": {
          "reference": "urn:uuid:24b9dc0a-5e0a-4d42-a51c-620ffe605a8f"
        }
      }
    },
    {
      "fullUrl": "urn:uuid:24b9dc0a-5e0a-4d42-a51c-620ffe605a8f",
      "resource": {
        "resourceType": "Practitioner",
        "id": "24b9dc0a-5e0a-4d42-a51c-620ffe605a8f",
        "meta": {
          "profile": [
            "http://hl7.eu/fhir/base/StructureDefinition/practitioner-eu"
          ]
        },
        "identifier": [
          {
            "assigner": {
              "display": "HL7 Europe"
            },
            "system": "urn:oid:2.16.840.1.113883.2.51.999",
            "value": "95bda62b-aebf-407a-adb5-8ee89a2de9f7"
          }
        ],
        "name": [
          {
            "prefix": [
              "dr"
            ],
            "given": [
              "Ex"
            ],
            "family": "Ample"
          }
        ],
        "address": [
          {
            "line": [
              "Laboratoire Central Européenne",
              "Boulevard du Jardin Botanique 32"
            ],
            "postalCode": "1000",
            "city": "Brussels",
            "country": "Belgium"
          }
        ],
        "text": {
          "status": "generated",
          "div": "<div xmlns=\"http://www.w3.org/1999/xhtml\">Laboratory: Laboratoire Central Européenne, 1000 Brussels, Belgium</div>"
        }
      }
    }
  ],
  "type": "document",
  "timestamp": "2015-10-20T06:02:53Z"
}
