{
  "resourceType": "Bundle",
  "id": "861970b4-8cc9-4edf-a336-590e4127420d",
  "meta": {
    "profile": [
      "http://hl7.eu/fhir/laboratory/StructureDefinition/Bundle-eu-lab"
    ]
  },
  "identifier": {
    "assigner": {
      "display": "HL7 Europe"
    },
    "system": "urn:oid:2.16.840.1.113883.2.51.999",
    "value": "912a6efc-cf9d-43f2-99f3-e807b9b6749b"
  },
  "entry": [
    {
      "fullUrl": "urn:uuid:5847e060-0662-462f-972a-242416768d0f",
      "resource": {
        "resourceType": "Composition",
        "id": "5847e060-0662-462f-972a-242416768d0f",
        "meta": {
          "profile": [
            "http://hl7.eu/fhir/laboratory/StructureDefinition/Composition-eu-lab"
          ]
        },
        "identifier": {
          "assigner": {
            "display": "HL7 Europe"
          },
          "system": "urn:oid:2.16.840.1.113883.2.51.999",
          "value": "d8099580-604a-43c3-9237-5bb495b3d49c"
        },
        "author": [
          {
            "reference": "urn:uuid:8286f7f0-47d1-4fe3-90bc-0900993125bb"
          }
        ],
        "category": [
          {
            "coding": [
              {
                "code": "26436-6",
                "system": "http://loinc.org",
                "display": "Laboratory studies (set)"
              }
            ]
          }
        ],
        "type": {
          "coding": [
            {
              "code": "11502-2",
              "system": "http://loinc.org",
              "display": "Laboratory report"
            }
          ],
          "text": "Laboratory Report"
        },
        "section": [
          {
            "code": {
              "coding": [
                {
                  "code": "26436-6",
                  "system": "http://loinc.org",
                  "display": "Laboratory studies (set)"
                }
              ],
              "text": "Laboratory studies"
            },
            "section": [
              {
                "code": {
                  "coding": [
                    {
                      "code": "$18723-7",
                      "system": "http://loinc.org",
                      "display": "Hematology studies (set)"
                    }
                  ],
                  "text": "Hematology"
                },
                "entry": [
                  {
                    "reference": "urn:uuid:0f40b10f-0adb-4ec7-adcb-e67ca34bec03"
                  },
                  {
                    "reference": "urn:uuid:284a06d5-20ad-41a4-8624-e6abb5afdd26"
                  },
                  {
                    "reference": "urn:uuid:a64bfc00-6904-4028-aac1-08e3131d7f45"
                  },
                  {
                    "reference": "urn:uuid:c691590a-19c7-429b-bd17-059894ec02d1"
                  },
                  {
                    "reference": "urn:uuid:58fb55aa-d09f-4fa5-9f23-0f7f76e0ad3e"
                  },
                  {
                    "reference": "urn:uuid:c406c82e-888c-4376-99b4-082106723dbb"
                  },
                  {
                    "reference": "urn:uuid:3aa180b2-2732-454b-8df6-872da3e30ebf"
                  },
                  {
                    "reference": "urn:uuid:d4559192-becb-44ca-a494-ac6aec5afbf5"
                  },
                  {
                    "reference": "urn:uuid:f9334f42-ad90-4625-a718-26fb3118431a"
                  },
                  {
                    "reference": "urn:uuid:66dda15f-5728-440d-8898-3d2c61fd45e4"
                  },
                  {
                    "reference": "urn:uuid:62f02a6a-ed66-4639-8214-f3b22d6c930a"
                  }
                ],
                "text": {
                  "status": "generated",
                  "div": "<div xmlns=\"http://www.w3.org/1999/xhtml\"><h3>Hematology</h3><table class=\"hl7__eu__lab__report\"><thead><tr><th>Test</th><th>05-APR-2021</th><th>Reference&#xA0;Range</th><th>Unit</th></tr></thead><tbody><tr><td>Leukocytes [#/volume] in Blood by Automated count</td><td>5.0</td><td>4 - 11</td><td>10*3/uL</td></tr><tr><td>Erythrocytes [#/volume] in Blood by Automated count</td><td><strong>5.3 H</strong></td><td>3.4 - 5.2</td><td>10*6/uL</td></tr><tr><td>Hemoglobin [Mass/volume] in Blood</td><td>14.9</td><td>12 - 16</td><td>g/dL</td></tr><tr><td>Hematocrit [Volume Fraction] of Blood by Automated count</td><td>43.6</td><td>38 - 54</td><td>%</td></tr><tr><td>MCV [Entitic volume] by Automated count</td><td>86.3</td><td>82 - 98</td><td>fL</td></tr><tr><td>MCH [Entitic mass] by Automated count</td><td>28.2</td><td>27 - 33</td><td>pg</td></tr><tr><td>MCHC [Mass/volume] by Automated count</td><td>34.6</td><td>31 - 35</td><td>g/dL</td></tr><tr><td>Erythrocyte distribution width [Entitic volume] by Automated count</td><td>45.9</td><td>36 - 56</td><td>fL</td></tr><tr><td>Platelets [#/volume] in Blood by Automated count</td><td>415.0</td><td>157 - 415</td><td>10*3/uL</td></tr><tr><td>Platelet distribution width [Entitic volume] in Blood by Automated count</td><td><strong>205.9 H</strong></td><td>13.4 - 17.4</td><td>fL</td></tr><tr><td>Platelet mean volume [Entitic volume] in Blood by Automated count</td><td>11.8</td><td>9.8 - 13.8</td><td>fL</td></tr></tbody></table></div>"
                },
                "title": "Hematology"
              }
            ],
            "title": "Laboratory Report"
          },
          {
            "text": {
              "status": "generated",
              "div": "<div xmlns=\"http://www.w3.org/1999/xhtml\"><h3>Annotation</h3><table class=\"hl7__eu__lab__report\"><tr><th>Conclusion and Recommendations based on this report and previous findings known to us</th></tr><tr><td>The blood count is largely within normal limits. There is a mild erythrocytosis (elevated erythrocyte count) and a markedly increased platelet distribution width, which may indicate increased platelet size variability, possibly due to reactive or regenerative processes. No evidence of anemia, leukocytosis, or thrombocytopenia. Correlation with clinical context is recommended.</td></tr></table></div>"
            },
            "code": {
              "coding": [
                {
                  "system": "http://loinc.org",
                  "code": "48767-8",
                  "display": "Annotation comment"
                }
              ]
            },
            "title": "Annotation comment"
          }
        ],
        "status": "final",
        "subject": {
          "reference": "urn:uuid:819a4a6a-9c2f-46fb-a0f5-c9d3649cc006",
          "display": "Eileen Taylor"
        },
        "date": "2021-04-05T07:47:02Z",
        "title": "Laboratory Report",
        "confidentiality": "N"
      }
    },
    {
      "fullUrl": "urn:uuid:7531116b-ad04-48ab-9e11-b20038b25eaf",
      "resource": {
        "resourceType": "DiagnosticReport",
        "id": "7531116b-ad04-48ab-9e11-b20038b25eaf",
        "meta": {
          "profile": [
            "http://hl7.eu/fhir/laboratory/StructureDefinition/DiagnosticReport-eu-lab"
          ]
        },
        "identifier": [
          {
            "assigner": {
              "display": "HL7 Europe"
            },
            "system": "urn:oid:2.16.840.1.113883.2.51.999",
            "value": "4a8d38d2-f9eb-4b9e-bede-829f1a34e5e8"
          }
        ],
        "extension": [
          {
            "url": "http://hl7.org/fhir/5.0/StructureDefinition/extension-DiagnosticReport.composition",
            "valueReference": {
              "reference": "urn:uuid:d8099580-604a-43c3-9237-5bb495b3d49c"
            }
          }
        ],
        "category": [
          {
            "coding": [
              {
                "code": "26436-6",
                "system": "http://loinc.org",
                "display": "Laboratory studies (set)"
              }
            ]
          }
        ],
        "specimen": [
          {
            "reference": "urn:uuid:7f6b00b4-c78d-481e-9cdf-315654d1dcbd"
          },
          {
            "reference": "urn:uuid:7f6b00b4-c78d-481e-9cdf-315654d1dcbd"
          }
        ],
        "result": [
          {
            "reference": "urn:uuid:0f40b10f-0adb-4ec7-adcb-e67ca34bec03"
          },
          {
            "reference": "urn:uuid:284a06d5-20ad-41a4-8624-e6abb5afdd26"
          },
          {
            "reference": "urn:uuid:a64bfc00-6904-4028-aac1-08e3131d7f45"
          },
          {
            "reference": "urn:uuid:c691590a-19c7-429b-bd17-059894ec02d1"
          },
          {
            "reference": "urn:uuid:58fb55aa-d09f-4fa5-9f23-0f7f76e0ad3e"
          },
          {
            "reference": "urn:uuid:c406c82e-888c-4376-99b4-082106723dbb"
          },
          {
            "reference": "urn:uuid:3aa180b2-2732-454b-8df6-872da3e30ebf"
          },
          {
            "reference": "urn:uuid:d4559192-becb-44ca-a494-ac6aec5afbf5"
          },
          {
            "reference": "urn:uuid:f9334f42-ad90-4625-a718-26fb3118431a"
          },
          {
            "reference": "urn:uuid:66dda15f-5728-440d-8898-3d2c61fd45e4"
          },
          {
            "reference": "urn:uuid:62f02a6a-ed66-4639-8214-f3b22d6c930a"
          }
        ],
        "status": "registered",
        "code": {
          "coding": [
            {
              "code": "11502-2",
              "system": "http://loinc.org",
              "display": "Laboratory report"
            }
          ]
        },
        "subject": {
          "reference": "urn:uuid:819a4a6a-9c2f-46fb-a0f5-c9d3649cc006",
          "display": "Eileen Taylor"
        }
      }
    },
    {
      "fullUrl": "urn:uuid:819a4a6a-9c2f-46fb-a0f5-c9d3649cc006",
      "resource": {
        "resourceType": "Patient",
        "id": "819a4a6a-9c2f-46fb-a0f5-c9d3649cc006",
        "meta": {
          "security": [
            {
              "system": "http://terminology.hl7.org/CodeSystem/v3-ActReason",
              "code": "HTEST"
            },
            {
              "system": "http://terminology.hl7.org/CodeSystem/v3-ActReason",
              "code": "TRAIN"
            }
          ],
          "tag": [
            {
              "system": "https://synderai.net/fhir/CodeSystem/tags",
              "code": "synthetic",
              "display": "SYNDERAI Synthetic data"
            }
          ],
          "profile": [
            "http://hl7.eu/fhir/base/StructureDefinition/patient-eu-core"
          ]
        },
        "identifier": [
          {
            "type": {
              "coding": [
                {
                  "code": "PT",
                  "system": "http://terminology.hl7.org/CodeSystem/v2-0203"
                }
              ]
            },
            "system": "http://ec.europa.eu/identifier/eci",
            "value": "6172-576075-7"
          },
          {
            "type": {
              "coding": [
                {
                  "code": "MR",
                  "system": "http://terminology.hl7.org/CodeSystem/v2-0203"
                }
              ]
            },
            "system": "http://local.setting.eu/identifier",
            "value": "f7f175da-cf0d-5686-8800-840d9ab7b47b"
          }
        ],
        "name": [
          {
            "family": "Taylor"
          },
          {
            "given": [
              "Eileen"
            ]
          },
          {
            "text": "Eileen Taylor"
          }
        ],
        "address": [
          {
            "line": [
              "39 Slater harbors"
            ],
            "use": "home",
            "type": "physical",
            "postalCode": "LE17",
            "city": "Smithtown",
            "country": "United Kingdom"
          }
        ],
        "telecom": [
          {
            "system": "phone",
            "value": "+44(0)1614960460"
          }
        ],
        "extension": [
          {
            "url": "http://hl7.org/fhir/StructureDefinition/patient-nationality",
            "valueCodeableConcept": {
              "coding": [
                {
                  "code": "GB",
                  "system": "http://hl7.org/fhir/ValueSet/country"
                }
              ]
            }
          }
        ],
        "text": {
          "status": "generated",
          "div": "<div xmlns=\"http://www.w3.org/1999/xhtml\"><table class=\"hl7__ips\"><tr><td>Eileen Taylor</td><td>female</td><td>11-Dec-1951</td></tr></table></div>"
        },
        "gender": "female",
        "birthDate": "1951-12-11"
      }
    },
    {
      "fullUrl": "urn:uuid:7cfe8c37-ead8-45b8-a4ed-48bc5d8a5446",
      "resource": {
        "resourceType": "ServiceRequest",
        "id": "7cfe8c37-ead8-45b8-a4ed-48bc5d8a5446",
        "meta": {
          "profile": [
            "http://hl7.eu/fhir/laboratory/StructureDefinition/ServiceRequest-eu-lab"
          ]
        },
        "identifier": [
          {
            "system": "http://example.org",
            "value": "304600cf-1f7b-4af8-ba57-d95f9a9bdba4"
          }
        ],
        "specimen": [
          {
            "reference": "urn:uuid:7f6b00b4-c78d-481e-9cdf-315654d1dcbd"
          }
        ],
        "reasonCode": [
          {
            "coding": [
              {
                "code": "203082005",
                "system": "http://snomed.info/sct",
                "display": "Fibromyalgia"
              }
            ]
          },
          {
            "coding": [
              {
                "code": "239873007",
                "system": "http://snomed.info/sct",
                "display": "Osteoarthritis of knee"
              }
            ]
          },
          {
            "coding": [
              {
                "code": "55822004",
                "system": "http://snomed.info/sct",
                "display": "Hyperlipidemia"
              }
            ]
          },
          {
            "coding": [
              {
                "code": "254837009",
                "system": "http://snomed.info/sct",
                "display": "Malignant neoplasm of breast"
              }
            ]
          },
          {
            "coding": [
              {
                "code": "197927001",
                "system": "http://snomed.info/sct",
                "display": "Recurrent urinary tract infection"
              }
            ]
          }
        ],
        "status": "active",
        "intent": "order",
        "code": {
          "coding": [
            {
              "code": "108252007",
              "system": "http://snomed.info/sct",
              "display": "Laboratory procedure"
            }
          ]
        },
        "subject": {
          "reference": "urn:uuid:819a4a6a-9c2f-46fb-a0f5-c9d3649cc006",
          "display": "Eileen Taylor"
        },
        "requester": {
          "reference": "urn:uuid:81a2df5f-0439-4c55-a4c7-44a4ce2b1454"
        }
      }
    },
    {
      "fullUrl": "urn:uuid:81a2df5f-0439-4c55-a4c7-44a4ce2b1454",
      "resource": {
        "resourceType": "PractitionerRole",
        "id": "81a2df5f-0439-4c55-a4c7-44a4ce2b1454",
        "meta": {
          "profile": [
            "http://hl7.eu/fhir/base/StructureDefinition/practitionerRole-eu"
          ]
        },
        "text": {
          "status": "generated",
          "div": "<div xmlns=\"http://www.w3.org/1999/xhtml\">Provider Role Id: 81a2df5f-0439-4c55-a4c7-44a4ce2b1454</div>"
        },
        "organization": {
          "reference": "urn:uuid:b96c169e-a2ec-4ec2-84c6-28aba331344d"
        }
      }
    },
    {
      "fullUrl": "urn:uuid:b96c169e-a2ec-4ec2-84c6-28aba331344d",
      "resource": {
        "resourceType": "Organization",
        "id": "b96c169e-a2ec-4ec2-84c6-28aba331344d",
        "meta": {
          "profile": [
            "http://hl7.eu/fhir/base/StructureDefinition/organization-eu"
          ]
        },
        "identifier": [
          {
            "assigner": {
              "display": "HL7 Europe"
            },
            "system": "urn:oid:2.16.840.1.113883.2.51.999",
            "value": "65a9908b-1045-438d-b075-2da509bfe2fe"
          }
        ],
        "address": [
          {
            "city": "Leicester",
            "postalCode": "LE2 7",
            "country": "United Kingdom"
          }
        ],
        "text": {
          "status": "generated",
          "div": "<div xmlns=\"http://www.w3.org/1999/xhtml\">Provider Organization: Leicester Royal Infirmary</div>"
        },
        "name": "Leicester Royal Infirmary"
      }
    },
    {
      "fullUrl": "urn:uuid:7f6b00b4-c78d-481e-9cdf-315654d1dcbd",
      "resource": {
        "resourceType": "Specimen",
        "id": "7f6b00b4-c78d-481e-9cdf-315654d1dcbd",
        "meta": {
          "profile": [
            "http://hl7.eu/fhir/laboratory/StructureDefinition/Specimen-eu-lab"
          ]
        },
        "collection": {
          "collectedDateTime": "2021-04-05"
        },
        "text": {
          "status": "generated",
          "div": "<div xmlns=\"http://www.w3.org/1999/xhtml\"><table class=\"hl7__eu__lab__report\"><tr><th>Specimen</th><th>Collection Date</th></tr><tr><td>Whole blood specimen (specimen)</td><td><span class=\"nb\">05-Apr-2021</span></td></tr></table></div>"
        },
        "type": {
          "coding": [
            {
              "code": "258580003",
              "system": "http://snomed.info/sct",
              "display": "Whole blood specimen (specimen)"
            }
          ]
        }
      }
    },
    {
      "fullUrl": "urn:uuid:7f6b00b4-c78d-481e-9cdf-315654d1dcbd",
      "resource": {
        "resourceType": "Specimen",
        "id": "7f6b00b4-c78d-481e-9cdf-315654d1dcbd",
        "meta": {
          "profile": [
            "http://hl7.eu/fhir/laboratory/StructureDefinition/Specimen-eu-lab"
          ]
        },
        "collection": {
          "collectedDateTime": "2021-04-05"
        },
        "text": {
          "status": "generated",
          "div": "<div xmlns=\"http://www.w3.org/1999/xhtml\"><table class=\"hl7__eu__lab__report\"><tr><th>Specimen</th><th>Collection Date</th></tr><tr><td>Whole blood specimen (specimen)</td><td><span class=\"nb\">05-Apr-2021</span></td></tr></table></div>"
        },
        "type": {
          "coding": [
            {
              "code": "258580003",
              "system": "http://snomed.info/sct",
              "display": "Whole blood specimen (specimen)"
            }
          ]
        }
      }
    },
    {
      "fullUrl": "urn:uuid:0f40b10f-0adb-4ec7-adcb-e67ca34bec03",
      "resource": {
        "resourceType": "Observation",
        "id": "0f40b10f-0adb-4ec7-adcb-e67ca34bec03",
        "meta": {
          "profile": [
            "http://hl7.eu/fhir/laboratory/StructureDefinition/Observation-resultslab-eu-lab"
          ]
        },
        "performer": [
          {
            "display": "The Central European Lab"
          }
        ],
        "category": [
          {
            "coding": [
              {
                "system": "http://terminology.hl7.org/CodeSystem/observation-category",
                "code": "laboratory"
              }
            ]
          }
        ],
        "code": {
          "coding": [
            {
              "code": "6690-2",
              "system": "http://loinc.org",
              "display": "Leukocytes [#/volume] in Blood by Automated count"
            }
          ],
          "text": "Leukocytes [#/volume] in Blood by Automated count"
        },
        "valueQuantity": {
          "system": "http://unitsofmeasure.org",
          "value": 5,
          "unit": "10*3/uL",
          "code": "10*3/uL"
        },
        "referenceRange": [
          {
            "low": {
              "value": 4,
              "code": "10*3/uL",
              "system": "http://unitsofmeasure.org"
            }
          },
          {
            "high": {
              "value": 11,
              "code": "10*3/uL",
              "system": "http://unitsofmeasure.org"
            }
          }
        ],
        "text": {
          "status": "generated",
          "div": "<div xmlns=\"http://www.w3.org/1999/xhtml\"><table class=\"hl7__eu__lab__report\"><tr><th>Test</th><th>05-Apr-2021</th><th>Reference&#xA0;Range</th><th>Unit</th></tr><tr><td>Leukocytes [#/volume] in Blood by Automated count</td><td>5.0</td><td>4 - 11</td><td></td><td>10*3/uL</td></tr></table></div>"
        },
        "status": "final",
        "subject": {
          "reference": "urn:uuid:819a4a6a-9c2f-46fb-a0f5-c9d3649cc006",
          "display": "Eileen Taylor"
        },
        "effectiveDateTime": "2021-04-05T05:47:02Z",
        "specimen": {
          "reference": "urn:uuid:7f6b00b4-c78d-481e-9cdf-315654d1dcbd"
        }
      }
    },
    {
      "fullUrl": "urn:uuid:284a06d5-20ad-41a4-8624-e6abb5afdd26",
      "resource": {
        "resourceType": "Observation",
        "id": "284a06d5-20ad-41a4-8624-e6abb5afdd26",
        "meta": {
          "profile": [
            "http://hl7.eu/fhir/laboratory/StructureDefinition/Observation-resultslab-eu-lab"
          ]
        },
        "performer": [
          {
            "display": "The Central European Lab"
          }
        ],
        "category": [
          {
            "coding": [
              {
                "system": "http://terminology.hl7.org/CodeSystem/observation-category",
                "code": "laboratory"
              }
            ]
          }
        ],
        "code": {
          "coding": [
            {
              "code": "789-8",
              "system": "http://loinc.org",
              "display": "Erythrocytes [#/volume] in Blood by Automated count"
            }
          ],
          "text": "Erythrocytes [#/volume] in Blood by Automated count"
        },
        "valueQuantity": {
          "system": "http://unitsofmeasure.org",
          "value": 5.3,
          "unit": "10*6/uL",
          "code": "10*6/uL"
        },
        "referenceRange": [
          {
            "low": {
              "value": 3.4,
              "code": "10*6/uL",
              "system": "http://unitsofmeasure.org"
            }
          },
          {
            "high": {
              "value": 5.2,
              "code": "10*6/uL",
              "system": "http://unitsofmeasure.org"
            }
          }
        ],
        "interpretation": [
          {
            "coding": [
              {
                "code": "H",
                "system": "http://terminology.hl7.org/CodeSystem/v3-ObservationInterpretation",
                "display": "High"
              }
            ]
          }
        ],
        "text": {
          "status": "generated",
          "div": "<div xmlns=\"http://www.w3.org/1999/xhtml\"><table class=\"hl7__eu__lab__report\"><tr><th>Test</th><th>05-Apr-2021</th><th>Reference&#xA0;Range</th><th>Unit</th></tr><tr><td>Erythrocytes [#/volume] in Blood by Automated count</td><td>5.3</td><td>3.4 - 5.2</td><td>H</td><td>10*6/uL</td></tr></table></div>"
        },
        "status": "final",
        "subject": {
          "reference": "urn:uuid:819a4a6a-9c2f-46fb-a0f5-c9d3649cc006",
          "display": "Eileen Taylor"
        },
        "effectiveDateTime": "2021-04-05T05:47:02Z",
        "specimen": {
          "reference": "urn:uuid:7f6b00b4-c78d-481e-9cdf-315654d1dcbd"
        }
      }
    },
    {
      "fullUrl": "urn:uuid:a64bfc00-6904-4028-aac1-08e3131d7f45",
      "resource": {
        "resourceType": "Observation",
        "id": "a64bfc00-6904-4028-aac1-08e3131d7f45",
        "meta": {
          "profile": [
            "http://hl7.eu/fhir/laboratory/StructureDefinition/Observation-resultslab-eu-lab"
          ]
        },
        "performer": [
          {
            "display": "The Central European Lab"
          }
        ],
        "category": [
          {
            "coding": [
              {
                "system": "http://terminology.hl7.org/CodeSystem/observation-category",
                "code": "laboratory"
              }
            ]
          }
        ],
        "code": {
          "coding": [
            {
              "code": "718-7",
              "system": "http://loinc.org",
              "display": "Hemoglobin [Mass/volume] in Blood"
            }
          ],
          "text": "Hemoglobin [Mass/volume] in Blood"
        },
        "valueQuantity": {
          "system": "http://unitsofmeasure.org",
          "value": 14.9,
          "unit": "g/dL",
          "code": "g/dL"
        },
        "referenceRange": [
          {
            "low": {
              "value": 12,
              "code": "g/dL",
              "system": "http://unitsofmeasure.org"
            }
          },
          {
            "high": {
              "value": 16,
              "code": "g/dL",
              "system": "http://unitsofmeasure.org"
            }
          }
        ],
        "text": {
          "status": "generated",
          "div": "<div xmlns=\"http://www.w3.org/1999/xhtml\"><table class=\"hl7__eu__lab__report\"><tr><th>Test</th><th>05-Apr-2021</th><th>Reference&#xA0;Range</th><th>Unit</th></tr><tr><td>Hemoglobin [Mass/volume] in Blood</td><td>14.9</td><td>12 - 16</td><td></td><td>g/dL</td></tr></table></div>"
        },
        "status": "final",
        "subject": {
          "reference": "urn:uuid:819a4a6a-9c2f-46fb-a0f5-c9d3649cc006",
          "display": "Eileen Taylor"
        },
        "effectiveDateTime": "2021-04-05T05:47:02Z",
        "specimen": {
          "reference": "urn:uuid:7f6b00b4-c78d-481e-9cdf-315654d1dcbd"
        }
      }
    },
    {
      "fullUrl": "urn:uuid:c691590a-19c7-429b-bd17-059894ec02d1",
      "resource": {
        "resourceType": "Observation",
        "id": "c691590a-19c7-429b-bd17-059894ec02d1",
        "meta": {
          "profile": [
            "http://hl7.eu/fhir/laboratory/StructureDefinition/Observation-resultslab-eu-lab"
          ]
        },
        "performer": [
          {
            "display": "The Central European Lab"
          }
        ],
        "category": [
          {
            "coding": [
              {
                "system": "http://terminology.hl7.org/CodeSystem/observation-category",
                "code": "laboratory"
              }
            ]
          }
        ],
        "code": {
          "coding": [
            {
              "code": "4544-3",
              "system": "http://loinc.org",
              "display": "Hematocrit [Volume Fraction] of Blood by Automated count"
            }
          ],
          "text": "Hematocrit [Volume Fraction] of Blood by Automated count"
        },
        "valueQuantity": {
          "system": "http://unitsofmeasure.org",
          "value": 43.6,
          "unit": "%",
          "code": "%"
        },
        "referenceRange": [
          {
            "low": {
              "value": 38,
              "code": "%",
              "system": "http://unitsofmeasure.org"
            }
          },
          {
            "high": {
              "value": 54,
              "code": "%",
              "system": "http://unitsofmeasure.org"
            }
          }
        ],
        "text": {
          "status": "generated",
          "div": "<div xmlns=\"http://www.w3.org/1999/xhtml\"><table class=\"hl7__eu__lab__report\"><tr><th>Test</th><th>05-Apr-2021</th><th>Reference&#xA0;Range</th><th>Unit</th></tr><tr><td>Hematocrit [Volume Fraction] of Blood by Automated count</td><td>43.6</td><td>38 - 54</td><td></td><td>%</td></tr></table></div>"
        },
        "status": "final",
        "subject": {
          "reference": "urn:uuid:819a4a6a-9c2f-46fb-a0f5-c9d3649cc006",
          "display": "Eileen Taylor"
        },
        "effectiveDateTime": "2021-04-05T05:47:02Z",
        "specimen": {
          "reference": "urn:uuid:7f6b00b4-c78d-481e-9cdf-315654d1dcbd"
        }
      }
    },
    {
      "fullUrl": "urn:uuid:58fb55aa-d09f-4fa5-9f23-0f7f76e0ad3e",
      "resource": {
        "resourceType": "Observation",
        "id": "58fb55aa-d09f-4fa5-9f23-0f7f76e0ad3e",
        "meta": {
          "profile": [
            "http://hl7.eu/fhir/laboratory/StructureDefinition/Observation-resultslab-eu-lab"
          ]
        },
        "performer": [
          {
            "display": "The Central European Lab"
          }
        ],
        "category": [
          {
            "coding": [
              {
                "system": "http://terminology.hl7.org/CodeSystem/observation-category",
                "code": "laboratory"
              }
            ]
          }
        ],
        "code": {
          "coding": [
            {
              "code": "787-2",
              "system": "http://loinc.org",
              "display": "MCV [Entitic volume] by Automated count"
            }
          ],
          "text": "MCV [Entitic volume] by Automated count"
        },
        "valueQuantity": {
          "system": "http://unitsofmeasure.org",
          "value": 86.3,
          "unit": "fL",
          "code": "fL"
        },
        "referenceRange": [
          {
            "low": {
              "value": 82,
              "code": "fL",
              "system": "http://unitsofmeasure.org"
            }
          },
          {
            "high": {
              "value": 98,
              "code": "fL",
              "system": "http://unitsofmeasure.org"
            }
          }
        ],
        "text": {
          "status": "generated",
          "div": "<div xmlns=\"http://www.w3.org/1999/xhtml\"><table class=\"hl7__eu__lab__report\"><tr><th>Test</th><th>05-Apr-2021</th><th>Reference&#xA0;Range</th><th>Unit</th></tr><tr><td>MCV [Entitic volume] by Automated count</td><td>86.3</td><td>82 - 98</td><td></td><td>fL</td></tr></table></div>"
        },
        "status": "final",
        "subject": {
          "reference": "urn:uuid:819a4a6a-9c2f-46fb-a0f5-c9d3649cc006",
          "display": "Eileen Taylor"
        },
        "effectiveDateTime": "2021-04-05T05:47:02Z",
        "specimen": {
          "reference": "urn:uuid:7f6b00b4-c78d-481e-9cdf-315654d1dcbd"
        }
      }
    },
    {
      "fullUrl": "urn:uuid:c406c82e-888c-4376-99b4-082106723dbb",
      "resource": {
        "resourceType": "Observation",
        "id": "c406c82e-888c-4376-99b4-082106723dbb",
        "meta": {
          "profile": [
            "http://hl7.eu/fhir/laboratory/StructureDefinition/Observation-resultslab-eu-lab"
          ]
        },
        "performer": [
          {
            "display": "The Central European Lab"
          }
        ],
        "category": [
          {
            "coding": [
              {
                "system": "http://terminology.hl7.org/CodeSystem/observation-category",
                "code": "laboratory"
              }
            ]
          }
        ],
        "code": {
          "coding": [
            {
              "code": "785-6",
              "system": "http://loinc.org",
              "display": "MCH [Entitic mass] by Automated count"
            }
          ],
          "text": "MCH [Entitic mass] by Automated count"
        },
        "valueQuantity": {
          "system": "http://unitsofmeasure.org",
          "value": 28.2,
          "unit": "pg",
          "code": "pg"
        },
        "referenceRange": [
          {
            "low": {
              "value": 27,
              "code": "pg",
              "system": "http://unitsofmeasure.org"
            }
          },
          {
            "high": {
              "value": 33,
              "code": "pg",
              "system": "http://unitsofmeasure.org"
            }
          }
        ],
        "text": {
          "status": "generated",
          "div": "<div xmlns=\"http://www.w3.org/1999/xhtml\"><table class=\"hl7__eu__lab__report\"><tr><th>Test</th><th>05-Apr-2021</th><th>Reference&#xA0;Range</th><th>Unit</th></tr><tr><td>MCH [Entitic mass] by Automated count</td><td>28.2</td><td>27 - 33</td><td></td><td>pg</td></tr></table></div>"
        },
        "status": "final",
        "subject": {
          "reference": "urn:uuid:819a4a6a-9c2f-46fb-a0f5-c9d3649cc006",
          "display": "Eileen Taylor"
        },
        "effectiveDateTime": "2021-04-05T05:47:02Z",
        "specimen": {
          "reference": "urn:uuid:7f6b00b4-c78d-481e-9cdf-315654d1dcbd"
        }
      }
    },
    {
      "fullUrl": "urn:uuid:3aa180b2-2732-454b-8df6-872da3e30ebf",
      "resource": {
        "resourceType": "Observation",
        "id": "3aa180b2-2732-454b-8df6-872da3e30ebf",
        "meta": {
          "profile": [
            "http://hl7.eu/fhir/laboratory/StructureDefinition/Observation-resultslab-eu-lab"
          ]
        },
        "performer": [
          {
            "display": "The Central European Lab"
          }
        ],
        "category": [
          {
            "coding": [
              {
                "system": "http://terminology.hl7.org/CodeSystem/observation-category",
                "code": "laboratory"
              }
            ]
          }
        ],
        "code": {
          "coding": [
            {
              "code": "786-4",
              "system": "http://loinc.org",
              "display": "MCHC [Mass/volume] by Automated count"
            }
          ],
          "text": "MCHC [Mass/volume] by Automated count"
        },
        "valueQuantity": {
          "system": "http://unitsofmeasure.org",
          "value": 34.6,
          "unit": "g/dL",
          "code": "g/dL"
        },
        "referenceRange": [
          {
            "low": {
              "value": 31,
              "code": "g/dL",
              "system": "http://unitsofmeasure.org"
            }
          },
          {
            "high": {
              "value": 35,
              "code": "g/dL",
              "system": "http://unitsofmeasure.org"
            }
          }
        ],
        "text": {
          "status": "generated",
          "div": "<div xmlns=\"http://www.w3.org/1999/xhtml\"><table class=\"hl7__eu__lab__report\"><tr><th>Test</th><th>05-Apr-2021</th><th>Reference&#xA0;Range</th><th>Unit</th></tr><tr><td>MCHC [Mass/volume] by Automated count</td><td>34.6</td><td>31 - 35</td><td></td><td>g/dL</td></tr></table></div>"
        },
        "status": "final",
        "subject": {
          "reference": "urn:uuid:819a4a6a-9c2f-46fb-a0f5-c9d3649cc006",
          "display": "Eileen Taylor"
        },
        "effectiveDateTime": "2021-04-05T05:47:02Z",
        "specimen": {
          "reference": "urn:uuid:7f6b00b4-c78d-481e-9cdf-315654d1dcbd"
        }
      }
    },
    {
      "fullUrl": "urn:uuid:d4559192-becb-44ca-a494-ac6aec5afbf5",
      "resource": {
        "resourceType": "Observation",
        "id": "d4559192-becb-44ca-a494-ac6aec5afbf5",
        "meta": {
          "profile": [
            "http://hl7.eu/fhir/laboratory/StructureDefinition/Observation-resultslab-eu-lab"
          ]
        },
        "performer": [
          {
            "display": "The Central European Lab"
          }
        ],
        "category": [
          {
            "coding": [
              {
                "system": "http://terminology.hl7.org/CodeSystem/observation-category",
                "code": "laboratory"
              }
            ]
          }
        ],
        "code": {
          "coding": [
            {
              "code": "21000-5",
              "system": "http://loinc.org",
              "display": "Erythrocyte distribution width [Entitic volume] by Automated count"
            }
          ],
          "text": "Erythrocyte distribution width [Entitic volume] by Automated count"
        },
        "valueQuantity": {
          "system": "http://unitsofmeasure.org",
          "value": 45.9,
          "unit": "fL",
          "code": "fL"
        },
        "referenceRange": [
          {
            "low": {
              "value": 36,
              "code": "fL",
              "system": "http://unitsofmeasure.org"
            }
          },
          {
            "high": {
              "value": 56,
              "code": "fL",
              "system": "http://unitsofmeasure.org"
            }
          }
        ],
        "text": {
          "status": "generated",
          "div": "<div xmlns=\"http://www.w3.org/1999/xhtml\"><table class=\"hl7__eu__lab__report\"><tr><th>Test</th><th>05-Apr-2021</th><th>Reference&#xA0;Range</th><th>Unit</th></tr><tr><td>Erythrocyte distribution width [Entitic volume] by Automated count</td><td>45.9</td><td>36 - 56</td><td></td><td>fL</td></tr></table></div>"
        },
        "status": "final",
        "subject": {
          "reference": "urn:uuid:819a4a6a-9c2f-46fb-a0f5-c9d3649cc006",
          "display": "Eileen Taylor"
        },
        "effectiveDateTime": "2021-04-05T05:47:02Z",
        "specimen": {
          "reference": "urn:uuid:7f6b00b4-c78d-481e-9cdf-315654d1dcbd"
        }
      }
    },
    {
      "fullUrl": "urn:uuid:f9334f42-ad90-4625-a718-26fb3118431a",
      "resource": {
        "resourceType": "Observation",
        "id": "f9334f42-ad90-4625-a718-26fb3118431a",
        "meta": {
          "profile": [
            "http://hl7.eu/fhir/laboratory/StructureDefinition/Observation-resultslab-eu-lab"
          ]
        },
        "performer": [
          {
            "display": "The Central European Lab"
          }
        ],
        "category": [
          {
            "coding": [
              {
                "system": "http://terminology.hl7.org/CodeSystem/observation-category",
                "code": "laboratory"
              }
            ]
          }
        ],
        "code": {
          "coding": [
            {
              "code": "777-3",
              "system": "http://loinc.org",
              "display": "Platelets [#/volume] in Blood by Automated count"
            }
          ],
          "text": "Platelets [#/volume] in Blood by Automated count"
        },
        "valueQuantity": {
          "system": "http://unitsofmeasure.org",
          "value": 415,
          "unit": "10*3/uL",
          "code": "10*3/uL"
        },
        "referenceRange": [
          {
            "low": {
              "value": 157,
              "code": "10*3/uL",
              "system": "http://unitsofmeasure.org"
            }
          },
          {
            "high": {
              "value": 415,
              "code": "10*3/uL",
              "system": "http://unitsofmeasure.org"
            }
          }
        ],
        "text": {
          "status": "generated",
          "div": "<div xmlns=\"http://www.w3.org/1999/xhtml\"><table class=\"hl7__eu__lab__report\"><tr><th>Test</th><th>05-Apr-2021</th><th>Reference&#xA0;Range</th><th>Unit</th></tr><tr><td>Platelets [#/volume] in Blood by Automated count</td><td>415.0</td><td>157 - 415</td><td></td><td>10*3/uL</td></tr></table></div>"
        },
        "status": "final",
        "subject": {
          "reference": "urn:uuid:819a4a6a-9c2f-46fb-a0f5-c9d3649cc006",
          "display": "Eileen Taylor"
        },
        "effectiveDateTime": "2021-04-05T05:47:02Z",
        "specimen": {
          "reference": "urn:uuid:7f6b00b4-c78d-481e-9cdf-315654d1dcbd"
        }
      }
    },
    {
      "fullUrl": "urn:uuid:66dda15f-5728-440d-8898-3d2c61fd45e4",
      "resource": {
        "resourceType": "Observation",
        "id": "66dda15f-5728-440d-8898-3d2c61fd45e4",
        "meta": {
          "profile": [
            "http://hl7.eu/fhir/laboratory/StructureDefinition/Observation-resultslab-eu-lab"
          ]
        },
        "performer": [
          {
            "display": "The Central European Lab"
          }
        ],
        "category": [
          {
            "coding": [
              {
                "system": "http://terminology.hl7.org/CodeSystem/observation-category",
                "code": "laboratory"
              }
            ]
          }
        ],
        "code": {
          "coding": [
            {
              "code": "32207-3",
              "system": "http://loinc.org",
              "display": "Platelet distribution width [Entitic volume] in Blood by Automated count"
            }
          ],
          "text": "Platelet distribution width [Entitic volume] in Blood by Automated count"
        },
        "valueQuantity": {
          "system": "http://unitsofmeasure.org",
          "value": 205.9,
          "unit": "fL",
          "code": "fL"
        },
        "referenceRange": [
          {
            "low": {
              "value": 13.4,
              "code": "fL",
              "system": "http://unitsofmeasure.org"
            }
          },
          {
            "high": {
              "value": 17.4,
              "code": "fL",
              "system": "http://unitsofmeasure.org"
            }
          }
        ],
        "interpretation": [
          {
            "coding": [
              {
                "code": "H",
                "system": "http://terminology.hl7.org/CodeSystem/v3-ObservationInterpretation",
                "display": "High"
              }
            ]
          }
        ],
        "text": {
          "status": "generated",
          "div": "<div xmlns=\"http://www.w3.org/1999/xhtml\"><table class=\"hl7__eu__lab__report\"><tr><th>Test</th><th>05-Apr-2021</th><th>Reference&#xA0;Range</th><th>Unit</th></tr><tr><td>Platelet distribution width [Entitic volume] in Blood by Automated count</td><td>205.9</td><td>13.4 - 17.4</td><td>H</td><td>fL</td></tr></table></div>"
        },
        "status": "final",
        "subject": {
          "reference": "urn:uuid:819a4a6a-9c2f-46fb-a0f5-c9d3649cc006",
          "display": "Eileen Taylor"
        },
        "effectiveDateTime": "2021-04-05T05:47:02Z",
        "specimen": {
          "reference": "urn:uuid:7f6b00b4-c78d-481e-9cdf-315654d1dcbd"
        }
      }
    },
    {
      "fullUrl": "urn:uuid:62f02a6a-ed66-4639-8214-f3b22d6c930a",
      "resource": {
        "resourceType": "Observation",
        "id": "62f02a6a-ed66-4639-8214-f3b22d6c930a",
        "meta": {
          "profile": [
            "http://hl7.eu/fhir/laboratory/StructureDefinition/Observation-resultslab-eu-lab"
          ]
        },
        "performer": [
          {
            "display": "The Central European Lab"
          }
        ],
        "category": [
          {
            "coding": [
              {
                "system": "http://terminology.hl7.org/CodeSystem/observation-category",
                "code": "laboratory"
              }
            ]
          }
        ],
        "code": {
          "coding": [
            {
              "code": "32623-1",
              "system": "http://loinc.org",
              "display": "Platelet mean volume [Entitic volume] in Blood by Automated count"
            }
          ],
          "text": "Platelet mean volume [Entitic volume] in Blood by Automated count"
        },
        "valueQuantity": {
          "system": "http://unitsofmeasure.org",
          "value": 11.8,
          "unit": "fL",
          "code": "fL"
        },
        "referenceRange": [
          {
            "low": {
              "value": 9.8,
              "code": "fL",
              "system": "http://unitsofmeasure.org"
            }
          },
          {
            "high": {
              "value": 13.8,
              "code": "fL",
              "system": "http://unitsofmeasure.org"
            }
          }
        ],
        "text": {
          "status": "generated",
          "div": "<div xmlns=\"http://www.w3.org/1999/xhtml\"><table class=\"hl7__eu__lab__report\"><tr><th>Test</th><th>05-Apr-2021</th><th>Reference&#xA0;Range</th><th>Unit</th></tr><tr><td>Platelet mean volume [Entitic volume] in Blood by Automated count</td><td>11.8</td><td>9.8 - 13.8</td><td></td><td>fL</td></tr></table></div>"
        },
        "status": "final",
        "subject": {
          "reference": "urn:uuid:819a4a6a-9c2f-46fb-a0f5-c9d3649cc006",
          "display": "Eileen Taylor"
        },
        "effectiveDateTime": "2021-04-05T05:47:02Z",
        "specimen": {
          "reference": "urn:uuid:7f6b00b4-c78d-481e-9cdf-315654d1dcbd"
        }
      }
    },
    {
      "fullUrl": "urn:uuid:f82df5c3-885f-4741-945e-8a851c8f7d92",
      "resource": {
        "resourceType": "Device",
        "id": "f82df5c3-885f-4741-945e-8a851c8f7d92",
        "deviceName": [
          {
            "name": "SYNDERAI Synthetic Generator",
            "type": "manufacturer-name"
          }
        ],
        "version": [
          {
            "value": "5.0"
          }
        ],
        "text": {
          "status": "generated",
          "div": "<div xmlns=\"http://www.w3.org/1999/xhtml\">SYNDERAI Synthetic Generator v5.0</div>"
        },
        "status": "active\"",
        "distinctIdentifier": "synderai-generator-50",
        "manufacturer": "SYNDERAI Project"
      }
    },
    {
      "fullUrl": "urn:uuid:7a26dfbf-8265-4f98-b94a-de8b15f97012",
      "resource": {
        "resourceType": "Provenance",
        "id": "7a26dfbf-8265-4f98-b94a-de8b15f97012",
        "target": [
          {
            "reference": "Patient/819a4a6a-9c2f-46fb-a0f5-c9d3649cc006"
          },
          {
            "reference": "Bundle/861970b4-8cc9-4edf-a336-590e4127420d"
          },
          {
            "reference": "Composition/5847e060-0662-462f-972a-242416768d0f"
          },
          {
            "reference": "PractitionerRole/8286f7f0-47d1-4fe3-90bc-0900993125bb"
          },
          {
            "reference": "Practitioner/a1956e01-6896-4b6e-a191-0c303e8cb927"
          },
          {
            "reference": "PractitionerRole/81a2df5f-0439-4c55-a4c7-44a4ce2b1454"
          },
          {
            "reference": "Organization/b96c169e-a2ec-4ec2-84c6-28aba331344d"
          }
        ],
        "activity": {
          "text": "Synthetic Example Data Generation"
        },
        "policy": [
          "https://synderai.net/synderai-synthetic-data-policy"
        ],
        "agent": [
          {
            "type": {
              "text": "author"
            },
            "who": {
              "reference": "Device/f82df5c3-885f-4741-945e-8a851c8f7d92"
            }
          }
        ],
        "reason": [
          {
            "text": "Interoperability Testing and Training (non-clinical use)"
          }
        ],
        "text": {
          "status": "generated",
          "div": "<div xmlns=\"http://www.w3.org/1999/xhtml\">Provenance for SYNDERAI Synthetic Example Data Resource</div>"
        },
        "recorded": "2021-04-05T07:47:02Z"
      }
    },
    {
      "fullUrl": "urn:uuid:8286f7f0-47d1-4fe3-90bc-0900993125bb",
      "resource": {
        "resourceType": "PractitionerRole",
        "id": "8286f7f0-47d1-4fe3-90bc-0900993125bb",
        "meta": {
          "profile": [
            "http://hl7.eu/fhir/base/StructureDefinition/practitionerRole-eu"
          ]
        },
        "text": {
          "status": "generated",
          "div": "<div xmlns=\"http://www.w3.org/1999/xhtml\">Laboratory Role Id: 8286f7f0-47d1-4fe3-90bc-0900993125bb</div>"
        },
        "practitioner": {
          "reference": "urn:uuid:a1956e01-6896-4b6e-a191-0c303e8cb927"
        }
      }
    },
    {
      "fullUrl": "urn:uuid:a1956e01-6896-4b6e-a191-0c303e8cb927",
      "resource": {
        "resourceType": "Practitioner",
        "id": "a1956e01-6896-4b6e-a191-0c303e8cb927",
        "meta": {
          "profile": [
            "http://hl7.eu/fhir/base/StructureDefinition/practitioner-eu"
          ]
        },
        "identifier": [
          {
            "assigner": {
              "display": "HL7 Europe"
            },
            "system": "urn:oid:2.16.840.1.113883.2.51.999",
            "value": "e5c28a6b-4ec8-4d12-be6a-59c6605b97f6"
          }
        ],
        "name": [
          {
            "prefix": [
              "dr"
            ],
            "given": [
              "Ex"
            ],
            "family": "Ample"
          }
        ],
        "address": [
          {
            "line": [
              "Laboratoire Central Européenne",
              "Boulevard du Jardin Botanique 32"
            ],
            "postalCode": "1000",
            "city": "Brussels",
            "country": "Belgium"
          }
        ],
        "text": {
          "status": "generated",
          "div": "<div xmlns=\"http://www.w3.org/1999/xhtml\">Laboratory: Laboratoire Central Européenne, 1000 Brussels, Belgium</div>"
        }
      }
    }
  ],
  "type": "document",
  "timestamp": "2021-04-05T07:47:02Z"
}
