{
  "resourceType": "Bundle",
  "id": "05d2340d-68ab-4199-a69d-87d9cd40b6b4",
  "meta": {
    "profile": [
      "http://hl7.eu/fhir/laboratory/StructureDefinition/Bundle-eu-lab"
    ]
  },
  "identifier": {
    "assigner": {
      "display": "HL7 Europe"
    },
    "system": "urn:oid:2.16.840.1.113883.2.51.999",
    "value": "29d3b4e6-49b6-4be7-bb1a-1c2d7a854faf"
  },
  "entry": [
    {
      "fullUrl": "urn:uuid:53dd8b2d-85d1-4982-9ace-5887b24edd4d",
      "resource": {
        "resourceType": "Composition",
        "id": "53dd8b2d-85d1-4982-9ace-5887b24edd4d",
        "meta": {
          "profile": [
            "http://hl7.eu/fhir/laboratory/StructureDefinition/Composition-eu-lab"
          ]
        },
        "identifier": {
          "assigner": {
            "display": "HL7 Europe"
          },
          "system": "urn:oid:2.16.840.1.113883.2.51.999",
          "value": "08974687-2142-4980-9925-bd8563381bc1"
        },
        "author": [
          {
            "reference": "urn:uuid:12f95f0b-c329-43fd-b13f-6b46d85e4119"
          }
        ],
        "category": [
          {
            "coding": [
              {
                "code": "26436-6",
                "system": "http://loinc.org",
                "display": "Laboratory studies (set)"
              }
            ]
          }
        ],
        "type": {
          "coding": [
            {
              "code": "11502-2",
              "system": "http://loinc.org",
              "display": "Laboratory report"
            }
          ],
          "text": "Laboratory Report"
        },
        "section": [
          {
            "code": {
              "coding": [
                {
                  "code": "26436-6",
                  "system": "http://loinc.org",
                  "display": "Laboratory studies (set)"
                }
              ],
              "text": "Laboratory studies"
            },
            "section": [
              {
                "code": {
                  "coding": [
                    {
                      "code": "$18719-5",
                      "system": "http://loinc.org",
                      "display": "Chemistry studies (set)"
                    }
                  ],
                  "text": "Chemistry"
                },
                "entry": [
                  {
                    "reference": "urn:uuid:bf77c82d-322b-4c66-8902-3ad0ec2be96e"
                  },
                  {
                    "reference": "urn:uuid:d178806d-12db-4709-a061-e496cdadee11"
                  },
                  {
                    "reference": "urn:uuid:ff225d13-cd58-45e4-aece-f85c815e37c4"
                  },
                  {
                    "reference": "urn:uuid:a4502b56-1d8f-45a7-97f9-8efae814e86d"
                  },
                  {
                    "reference": "urn:uuid:9f718b8f-7ec5-480e-8430-5538dc6c10a0"
                  },
                  {
                    "reference": "urn:uuid:e60b0401-f417-4f02-aa95-24f1cf80895e"
                  },
                  {
                    "reference": "urn:uuid:8018893b-5739-4ecb-a754-74c4b4fc34a0"
                  },
                  {
                    "reference": "urn:uuid:321b6ede-960e-4fb4-8b0d-add0d655aea6"
                  },
                  {
                    "reference": "urn:uuid:7e539b65-3ca9-4f0c-a5f3-2300577144f1"
                  },
                  {
                    "reference": "urn:uuid:df560245-1276-4b51-9742-90f553366ebc"
                  },
                  {
                    "reference": "urn:uuid:59bb10d7-e691-49c6-bf11-93f8efeb9854"
                  },
                  {
                    "reference": "urn:uuid:26acc054-5d79-4fcf-b1da-17ba396c26dc"
                  },
                  {
                    "reference": "urn:uuid:bda9aebe-1357-4bc0-be4b-71309de1adad"
                  }
                ],
                "text": {
                  "status": "generated",
                  "div": "<div xmlns=\"http://www.w3.org/1999/xhtml\"><h3>Chemistry</h3><table class=\"hl7__eu__lab__report\"><thead><tr><th>Test</th><th>14-MAR-2016</th><th>Reference&#xA0;Range</th><th>Unit</th></tr></thead><tbody><tr><td>Hemoglobin A1c/Hemoglobin.total in Blood</td><td><strong>6.3 H</strong></td><td>4 - 6</td><td>%</td></tr><tr><td>Glucose [Mass/volume] in Blood</td><td>92.3</td><td>70 - 140</td><td>mg/dL</td></tr><tr><td>Urea nitrogen [Mass/volume] in Blood</td><td>18.1</td><td>7 - 20</td><td>mg/dL</td></tr><tr><td>Creatinine [Mass/volume] in Blood</td><td>0.9</td><td>0.9 - 1.3</td><td>mg/dL</td></tr><tr><td>Calcium [Mass/volume] in Blood</td><td>9.2</td><td>8.5 - 10.5</td><td>mg/dL</td></tr><tr><td>Sodium [Moles/volume] in Blood</td><td>142.5</td><td>135 - 145</td><td>mmol/L</td></tr><tr><td>Potassium [Moles/volume] in Blood</td><td>4.8</td><td>3.5 - 5</td><td>mmol/L</td></tr><tr><td>Chloride [Moles/volume] in Blood</td><td>107.8</td><td>98 - 110</td><td>mmol/L</td></tr><tr><td>Carbon dioxide, total [Moles/volume] in Blood</td><td>22.8</td><td>22 - 32</td><td>mmol/L</td></tr><tr><td>Cholesterol [Mass/volume] in Serum or Plasma</td><td>128.2</td><td>125 - 200</td><td>mg/dL</td></tr><tr><td>Triglyceride [Mass/volume] in Serum or Plasma</td><td>109.8</td><td>0 - 150</td><td>mg/dL</td></tr><tr><td>Cholesterol in LDL [Mass/volume] in Serum or Plasma by Direct assay</td><td>70.9</td><td>0 - 130</td><td>mg/dL</td></tr><tr><td>Cholesterol in HDL [Mass/volume] in Serum or Plasma</td><td><strong>35.3 L</strong></td><td>40 - 60</td><td>mg/dL</td></tr></tbody></table></div>"
                },
                "title": "Chemistry"
              }
            ],
            "title": "Laboratory Report"
          },
          {
            "text": {
              "status": "generated",
              "div": "<div xmlns=\"http://www.w3.org/1999/xhtml\"><h3>Annotation</h3><table class=\"hl7__eu__lab__report\"><tr><th>Conclusion and Recommendations based on this report and previous findings known to us</th></tr><tr><td>The patient shows mildly elevated HbA1c, indicating suboptimal long-term glucose control and possible prediabetes or early diabetes. All other parameters, including renal function, electrolytes, and lipid profile, are within normal limits except for low HDL cholesterol, which is a cardiovascular risk factor. Recommend lifestyle modification and follow-up for glycemic and lipid control.</td></tr></table></div>"
            },
            "code": {
              "coding": [
                {
                  "system": "http://loinc.org",
                  "code": "48767-8",
                  "display": "Annotation comment"
                }
              ]
            },
            "title": "Annotation comment"
          }
        ],
        "status": "final",
        "subject": {
          "reference": "urn:uuid:3d495701-1d08-484f-9d11-31969fcee76b",
          "display": "Alessio Fanucci"
        },
        "date": "2016-03-14T08:49:06Z",
        "title": "Laboratory Report",
        "confidentiality": "N"
      }
    },
    {
      "fullUrl": "urn:uuid:03cbdda3-84bd-4d25-a952-282ea0f128b3",
      "resource": {
        "resourceType": "DiagnosticReport",
        "id": "03cbdda3-84bd-4d25-a952-282ea0f128b3",
        "meta": {
          "profile": [
            "http://hl7.eu/fhir/laboratory/StructureDefinition/DiagnosticReport-eu-lab"
          ]
        },
        "identifier": [
          {
            "assigner": {
              "display": "HL7 Europe"
            },
            "system": "urn:oid:2.16.840.1.113883.2.51.999",
            "value": "12e781b0-7c8e-4910-bc08-7d474f9c2573"
          }
        ],
        "extension": [
          {
            "url": "http://hl7.org/fhir/5.0/StructureDefinition/extension-DiagnosticReport.composition",
            "valueReference": {
              "reference": "urn:uuid:08974687-2142-4980-9925-bd8563381bc1"
            }
          }
        ],
        "category": [
          {
            "coding": [
              {
                "code": "26436-6",
                "system": "http://loinc.org",
                "display": "Laboratory studies (set)"
              }
            ]
          }
        ],
        "specimen": [
          {
            "reference": "urn:uuid:258e637f-2958-4dd2-8488-35888538c937"
          },
          {
            "reference": "urn:uuid:ff6b9a07-eb8a-424b-b424-8860e04d0be1"
          }
        ],
        "result": [
          {
            "reference": "urn:uuid:bf77c82d-322b-4c66-8902-3ad0ec2be96e"
          },
          {
            "reference": "urn:uuid:d178806d-12db-4709-a061-e496cdadee11"
          },
          {
            "reference": "urn:uuid:ff225d13-cd58-45e4-aece-f85c815e37c4"
          },
          {
            "reference": "urn:uuid:a4502b56-1d8f-45a7-97f9-8efae814e86d"
          },
          {
            "reference": "urn:uuid:9f718b8f-7ec5-480e-8430-5538dc6c10a0"
          },
          {
            "reference": "urn:uuid:e60b0401-f417-4f02-aa95-24f1cf80895e"
          },
          {
            "reference": "urn:uuid:8018893b-5739-4ecb-a754-74c4b4fc34a0"
          },
          {
            "reference": "urn:uuid:321b6ede-960e-4fb4-8b0d-add0d655aea6"
          },
          {
            "reference": "urn:uuid:7e539b65-3ca9-4f0c-a5f3-2300577144f1"
          },
          {
            "reference": "urn:uuid:df560245-1276-4b51-9742-90f553366ebc"
          },
          {
            "reference": "urn:uuid:59bb10d7-e691-49c6-bf11-93f8efeb9854"
          },
          {
            "reference": "urn:uuid:26acc054-5d79-4fcf-b1da-17ba396c26dc"
          },
          {
            "reference": "urn:uuid:bda9aebe-1357-4bc0-be4b-71309de1adad"
          }
        ],
        "status": "registered",
        "code": {
          "coding": [
            {
              "code": "11502-2",
              "system": "http://loinc.org",
              "display": "Laboratory report"
            }
          ]
        },
        "subject": {
          "reference": "urn:uuid:3d495701-1d08-484f-9d11-31969fcee76b",
          "display": "Alessio Fanucci"
        }
      }
    },
    {
      "fullUrl": "urn:uuid:3d495701-1d08-484f-9d11-31969fcee76b",
      "resource": {
        "resourceType": "Patient",
        "id": "3d495701-1d08-484f-9d11-31969fcee76b",
        "meta": {
          "security": [
            {
              "system": "http://terminology.hl7.org/CodeSystem/v3-ActReason",
              "code": "HTEST"
            },
            {
              "system": "http://terminology.hl7.org/CodeSystem/v3-ActReason",
              "code": "TRAIN"
            }
          ],
          "tag": [
            {
              "system": "https://synderai.net/fhir/CodeSystem/tags",
              "code": "synthetic",
              "display": "SYNDERAI Synthetic data"
            }
          ],
          "profile": [
            "http://hl7.eu/fhir/base/StructureDefinition/patient-eu-core"
          ]
        },
        "identifier": [
          {
            "type": {
              "coding": [
                {
                  "code": "PT",
                  "system": "http://terminology.hl7.org/CodeSystem/v2-0203"
                }
              ]
            },
            "system": "http://ec.europa.eu/identifier/eci",
            "value": "4754-874768-3"
          },
          {
            "type": {
              "coding": [
                {
                  "code": "MR",
                  "system": "http://terminology.hl7.org/CodeSystem/v2-0203"
                }
              ]
            },
            "system": "http://local.setting.eu/identifier",
            "value": "4b888823-bdd8-59a3-b785-e7ba28e6a7b5"
          }
        ],
        "name": [
          {
            "family": "Fanucci"
          },
          {
            "given": [
              "Alessio"
            ]
          },
          {
            "text": "Alessio Fanucci"
          }
        ],
        "address": [
          {
            "line": [
              "Incrocio Combi, 822"
            ],
            "use": "home",
            "type": "physical",
            "postalCode": "33015",
            "city": "Moggio Udinese",
            "country": "Italy"
          }
        ],
        "telecom": [
          {
            "system": "phone",
            "value": "0125684636"
          }
        ],
        "extension": [
          {
            "url": "http://hl7.org/fhir/StructureDefinition/patient-nationality",
            "valueCodeableConcept": {
              "coding": [
                {
                  "code": "IT",
                  "system": "http://hl7.org/fhir/ValueSet/country"
                }
              ]
            }
          }
        ],
        "text": {
          "status": "generated",
          "div": "<div xmlns=\"http://www.w3.org/1999/xhtml\"><table class=\"hl7__ips\"><tr><td>Alessio Fanucci</td><td>male</td><td>12-Sep-1964</td></tr></table></div>"
        },
        "gender": "male",
        "birthDate": "1964-09-12"
      }
    },
    {
      "fullUrl": "urn:uuid:11c2c26b-da16-4a55-8bb5-2b51996f6d2e",
      "resource": {
        "resourceType": "ServiceRequest",
        "id": "11c2c26b-da16-4a55-8bb5-2b51996f6d2e",
        "meta": {
          "profile": [
            "http://hl7.eu/fhir/laboratory/StructureDefinition/ServiceRequest-eu-lab"
          ]
        },
        "identifier": [
          {
            "system": "http://example.org",
            "value": "89f29af8-9350-49f0-98a9-43956221340b"
          }
        ],
        "specimen": [
          {
            "reference": "urn:uuid:258e637f-2958-4dd2-8488-35888538c937"
          },
          {
            "reference": "urn:uuid:ff6b9a07-eb8a-424b-b424-8860e04d0be1"
          }
        ],
        "reasonCode": [
          {
            "coding": [
              {
                "code": "15777000",
                "system": "http://snomed.info/sct",
                "display": "Prediabetes"
              }
            ]
          },
          {
            "coding": [
              {
                "code": "271737000",
                "system": "http://snomed.info/sct",
                "display": "Anemia"
              }
            ]
          },
          {
            "coding": [
              {
                "code": "40055000",
                "system": "http://snomed.info/sct",
                "display": "Chronic sinusitis"
              }
            ]
          }
        ],
        "status": "active",
        "intent": "order",
        "code": {
          "coding": [
            {
              "code": "108252007",
              "system": "http://snomed.info/sct",
              "display": "Laboratory procedure"
            }
          ]
        },
        "subject": {
          "reference": "urn:uuid:3d495701-1d08-484f-9d11-31969fcee76b",
          "display": "Alessio Fanucci"
        },
        "requester": {
          "reference": "urn:uuid:0b996495-b081-4992-b487-a50a742a5d62"
        }
      }
    },
    {
      "fullUrl": "urn:uuid:0b996495-b081-4992-b487-a50a742a5d62",
      "resource": {
        "resourceType": "PractitionerRole",
        "id": "0b996495-b081-4992-b487-a50a742a5d62",
        "meta": {
          "profile": [
            "http://hl7.eu/fhir/base/StructureDefinition/practitionerRole-eu"
          ]
        },
        "text": {
          "status": "generated",
          "div": "<div xmlns=\"http://www.w3.org/1999/xhtml\">Provider Role Id: 0b996495-b081-4992-b487-a50a742a5d62</div>"
        },
        "organization": {
          "reference": "urn:uuid:251a49bd-8a02-4c01-ba17-556f246626cf"
        }
      }
    },
    {
      "fullUrl": "urn:uuid:251a49bd-8a02-4c01-ba17-556f246626cf",
      "resource": {
        "resourceType": "Organization",
        "id": "251a49bd-8a02-4c01-ba17-556f246626cf",
        "meta": {
          "profile": [
            "http://hl7.eu/fhir/base/StructureDefinition/organization-eu"
          ]
        },
        "identifier": [
          {
            "assigner": {
              "display": "HL7 Europe"
            },
            "system": "urn:oid:2.16.840.1.113883.2.51.999",
            "value": "a956436a-01c0-4537-8ce1-158990cc8e41"
          }
        ],
        "address": [
          {
            "city": "Artegna",
            "postalCode": "33011",
            "country": "Italy"
          }
        ],
        "text": {
          "status": "generated",
          "div": "<div xmlns=\"http://www.w3.org/1999/xhtml\">Provider Organization: Ambulatori</div>"
        },
        "name": "Ambulatori"
      }
    },
    {
      "fullUrl": "urn:uuid:258e637f-2958-4dd2-8488-35888538c937",
      "resource": {
        "resourceType": "Specimen",
        "id": "258e637f-2958-4dd2-8488-35888538c937",
        "meta": {
          "profile": [
            "http://hl7.eu/fhir/laboratory/StructureDefinition/Specimen-eu-lab"
          ]
        },
        "collection": {
          "collectedDateTime": "2016-03-14"
        },
        "text": {
          "status": "generated",
          "div": "<div xmlns=\"http://www.w3.org/1999/xhtml\"><table class=\"hl7__eu__lab__report\"><tr><th>Specimen</th><th>Collection Date</th></tr><tr><td>Whole blood specimen (specimen)</td><td><span class=\"nb\">14-Mar-2016</span></td></tr></table></div>"
        },
        "type": {
          "coding": [
            {
              "code": "258580003",
              "system": "http://snomed.info/sct",
              "display": "Whole blood specimen (specimen)"
            }
          ]
        }
      }
    },
    {
      "fullUrl": "urn:uuid:ff6b9a07-eb8a-424b-b424-8860e04d0be1",
      "resource": {
        "resourceType": "Specimen",
        "id": "ff6b9a07-eb8a-424b-b424-8860e04d0be1",
        "meta": {
          "profile": [
            "http://hl7.eu/fhir/laboratory/StructureDefinition/Specimen-eu-lab"
          ]
        },
        "collection": {
          "collectedDateTime": "2016-03-14"
        },
        "text": {
          "status": "generated",
          "div": "<div xmlns=\"http://www.w3.org/1999/xhtml\"><table class=\"hl7__eu__lab__report\"><tr><th>Specimen</th><th>Collection Date</th></tr><tr><td>Acellular blood (serum or plasma) specimen</td><td><span class=\"nb\">14-Mar-2016</span></td></tr></table></div>"
        },
        "type": {
          "coding": [
            {
              "code": "122592007",
              "system": "http://snomed.info/sct",
              "display": "Acellular blood (serum or plasma) specimen"
            }
          ]
        }
      }
    },
    {
      "fullUrl": "urn:uuid:bf77c82d-322b-4c66-8902-3ad0ec2be96e",
      "resource": {
        "resourceType": "Observation",
        "id": "bf77c82d-322b-4c66-8902-3ad0ec2be96e",
        "meta": {
          "profile": [
            "http://hl7.eu/fhir/laboratory/StructureDefinition/Observation-resultslab-eu-lab"
          ]
        },
        "performer": [
          {
            "display": "The Central European Lab"
          }
        ],
        "category": [
          {
            "coding": [
              {
                "system": "http://terminology.hl7.org/CodeSystem/observation-category",
                "code": "laboratory"
              }
            ]
          }
        ],
        "code": {
          "coding": [
            {
              "code": "4548-4",
              "system": "http://loinc.org",
              "display": "Hemoglobin A1c/Hemoglobin.total in Blood"
            }
          ],
          "text": "Hemoglobin A1c/Hemoglobin.total in Blood"
        },
        "valueQuantity": {
          "system": "http://unitsofmeasure.org",
          "value": 6.3,
          "unit": "%",
          "code": "%"
        },
        "referenceRange": [
          {
            "low": {
              "value": 4,
              "code": "%",
              "system": "http://unitsofmeasure.org"
            }
          },
          {
            "high": {
              "value": 6,
              "code": "%",
              "system": "http://unitsofmeasure.org"
            }
          }
        ],
        "interpretation": [
          {
            "coding": [
              {
                "code": "H",
                "system": "http://terminology.hl7.org/CodeSystem/v3-ObservationInterpretation",
                "display": "High"
              }
            ]
          }
        ],
        "text": {
          "status": "generated",
          "div": "<div xmlns=\"http://www.w3.org/1999/xhtml\"><table class=\"hl7__eu__lab__report\"><tr><th>Test</th><th>14-Mar-2016</th><th>Reference&#xA0;Range</th><th>Unit</th></tr><tr><td>Hemoglobin A1c/Hemoglobin.total in Blood</td><td>6.3</td><td>4 - 6</td><td>H</td><td>%</td></tr></table></div>"
        },
        "status": "final",
        "subject": {
          "reference": "urn:uuid:3d495701-1d08-484f-9d11-31969fcee76b",
          "display": "Alessio Fanucci"
        },
        "effectiveDateTime": "2016-03-14T07:49:06Z",
        "specimen": {
          "reference": "urn:uuid:258e637f-2958-4dd2-8488-35888538c937"
        }
      }
    },
    {
      "fullUrl": "urn:uuid:d178806d-12db-4709-a061-e496cdadee11",
      "resource": {
        "resourceType": "Observation",
        "id": "d178806d-12db-4709-a061-e496cdadee11",
        "meta": {
          "profile": [
            "http://hl7.eu/fhir/laboratory/StructureDefinition/Observation-resultslab-eu-lab"
          ]
        },
        "performer": [
          {
            "display": "The Central European Lab"
          }
        ],
        "category": [
          {
            "coding": [
              {
                "system": "http://terminology.hl7.org/CodeSystem/observation-category",
                "code": "laboratory"
              }
            ]
          }
        ],
        "code": {
          "coding": [
            {
              "code": "2339-0",
              "system": "http://loinc.org",
              "display": "Glucose [Mass/volume] in Blood"
            }
          ],
          "text": "Glucose [Mass/volume] in Blood"
        },
        "valueQuantity": {
          "system": "http://unitsofmeasure.org",
          "value": 92.3,
          "unit": "mg/dL",
          "code": "mg/dL"
        },
        "referenceRange": [
          {
            "low": {
              "value": 70,
              "code": "mg/dL",
              "system": "http://unitsofmeasure.org"
            }
          },
          {
            "high": {
              "value": 140,
              "code": "mg/dL",
              "system": "http://unitsofmeasure.org"
            }
          }
        ],
        "text": {
          "status": "generated",
          "div": "<div xmlns=\"http://www.w3.org/1999/xhtml\"><table class=\"hl7__eu__lab__report\"><tr><th>Test</th><th>14-Mar-2016</th><th>Reference&#xA0;Range</th><th>Unit</th></tr><tr><td>Glucose [Mass/volume] in Blood</td><td>92.3</td><td>70 - 140</td><td></td><td>mg/dL</td></tr></table></div>"
        },
        "status": "final",
        "subject": {
          "reference": "urn:uuid:3d495701-1d08-484f-9d11-31969fcee76b",
          "display": "Alessio Fanucci"
        },
        "effectiveDateTime": "2016-03-14T07:49:06Z",
        "specimen": {
          "reference": "urn:uuid:258e637f-2958-4dd2-8488-35888538c937"
        }
      }
    },
    {
      "fullUrl": "urn:uuid:ff225d13-cd58-45e4-aece-f85c815e37c4",
      "resource": {
        "resourceType": "Observation",
        "id": "ff225d13-cd58-45e4-aece-f85c815e37c4",
        "meta": {
          "profile": [
            "http://hl7.eu/fhir/laboratory/StructureDefinition/Observation-resultslab-eu-lab"
          ]
        },
        "performer": [
          {
            "display": "The Central European Lab"
          }
        ],
        "category": [
          {
            "coding": [
              {
                "system": "http://terminology.hl7.org/CodeSystem/observation-category",
                "code": "laboratory"
              }
            ]
          }
        ],
        "code": {
          "coding": [
            {
              "code": "6299-2",
              "system": "http://loinc.org",
              "display": "Urea nitrogen [Mass/volume] in Blood"
            }
          ],
          "text": "Urea nitrogen [Mass/volume] in Blood"
        },
        "valueQuantity": {
          "system": "http://unitsofmeasure.org",
          "value": 18.1,
          "unit": "mg/dL",
          "code": "mg/dL"
        },
        "referenceRange": [
          {
            "low": {
              "value": 7,
              "code": "mg/dL",
              "system": "http://unitsofmeasure.org"
            }
          },
          {
            "high": {
              "value": 20,
              "code": "mg/dL",
              "system": "http://unitsofmeasure.org"
            }
          }
        ],
        "text": {
          "status": "generated",
          "div": "<div xmlns=\"http://www.w3.org/1999/xhtml\"><table class=\"hl7__eu__lab__report\"><tr><th>Test</th><th>14-Mar-2016</th><th>Reference&#xA0;Range</th><th>Unit</th></tr><tr><td>Urea nitrogen [Mass/volume] in Blood</td><td>18.1</td><td>7 - 20</td><td></td><td>mg/dL</td></tr></table></div>"
        },
        "status": "final",
        "subject": {
          "reference": "urn:uuid:3d495701-1d08-484f-9d11-31969fcee76b",
          "display": "Alessio Fanucci"
        },
        "effectiveDateTime": "2016-03-14T07:49:06Z",
        "specimen": {
          "reference": "urn:uuid:258e637f-2958-4dd2-8488-35888538c937"
        }
      }
    },
    {
      "fullUrl": "urn:uuid:a4502b56-1d8f-45a7-97f9-8efae814e86d",
      "resource": {
        "resourceType": "Observation",
        "id": "a4502b56-1d8f-45a7-97f9-8efae814e86d",
        "meta": {
          "profile": [
            "http://hl7.eu/fhir/laboratory/StructureDefinition/Observation-resultslab-eu-lab"
          ]
        },
        "performer": [
          {
            "display": "The Central European Lab"
          }
        ],
        "category": [
          {
            "coding": [
              {
                "system": "http://terminology.hl7.org/CodeSystem/observation-category",
                "code": "laboratory"
              }
            ]
          }
        ],
        "code": {
          "coding": [
            {
              "code": "38483-4",
              "system": "http://loinc.org",
              "display": "Creatinine [Mass/volume] in Blood"
            }
          ],
          "text": "Creatinine [Mass/volume] in Blood"
        },
        "valueQuantity": {
          "system": "http://unitsofmeasure.org",
          "value": 0.9,
          "unit": "mg/dL",
          "code": "mg/dL"
        },
        "referenceRange": [
          {
            "low": {
              "value": 0.9,
              "code": "mg/dL",
              "system": "http://unitsofmeasure.org"
            }
          },
          {
            "high": {
              "value": 1.3,
              "code": "mg/dL",
              "system": "http://unitsofmeasure.org"
            }
          }
        ],
        "text": {
          "status": "generated",
          "div": "<div xmlns=\"http://www.w3.org/1999/xhtml\"><table class=\"hl7__eu__lab__report\"><tr><th>Test</th><th>14-Mar-2016</th><th>Reference&#xA0;Range</th><th>Unit</th></tr><tr><td>Creatinine [Mass/volume] in Blood</td><td>0.9</td><td>0.9 - 1.3</td><td></td><td>mg/dL</td></tr></table></div>"
        },
        "status": "final",
        "subject": {
          "reference": "urn:uuid:3d495701-1d08-484f-9d11-31969fcee76b",
          "display": "Alessio Fanucci"
        },
        "effectiveDateTime": "2016-03-14T07:49:06Z",
        "specimen": {
          "reference": "urn:uuid:258e637f-2958-4dd2-8488-35888538c937"
        }
      }
    },
    {
      "fullUrl": "urn:uuid:9f718b8f-7ec5-480e-8430-5538dc6c10a0",
      "resource": {
        "resourceType": "Observation",
        "id": "9f718b8f-7ec5-480e-8430-5538dc6c10a0",
        "meta": {
          "profile": [
            "http://hl7.eu/fhir/laboratory/StructureDefinition/Observation-resultslab-eu-lab"
          ]
        },
        "performer": [
          {
            "display": "The Central European Lab"
          }
        ],
        "category": [
          {
            "coding": [
              {
                "system": "http://terminology.hl7.org/CodeSystem/observation-category",
                "code": "laboratory"
              }
            ]
          }
        ],
        "code": {
          "coding": [
            {
              "code": "49765-1",
              "system": "http://loinc.org",
              "display": "Calcium [Mass/volume] in Blood"
            }
          ],
          "text": "Calcium [Mass/volume] in Blood"
        },
        "valueQuantity": {
          "system": "http://unitsofmeasure.org",
          "value": 9.2,
          "unit": "mg/dL",
          "code": "mg/dL"
        },
        "referenceRange": [
          {
            "low": {
              "value": 8.5,
              "code": "mg/dL",
              "system": "http://unitsofmeasure.org"
            }
          },
          {
            "high": {
              "value": 10.5,
              "code": "mg/dL",
              "system": "http://unitsofmeasure.org"
            }
          }
        ],
        "text": {
          "status": "generated",
          "div": "<div xmlns=\"http://www.w3.org/1999/xhtml\"><table class=\"hl7__eu__lab__report\"><tr><th>Test</th><th>14-Mar-2016</th><th>Reference&#xA0;Range</th><th>Unit</th></tr><tr><td>Calcium [Mass/volume] in Blood</td><td>9.2</td><td>8.5 - 10.5</td><td></td><td>mg/dL</td></tr></table></div>"
        },
        "status": "final",
        "subject": {
          "reference": "urn:uuid:3d495701-1d08-484f-9d11-31969fcee76b",
          "display": "Alessio Fanucci"
        },
        "effectiveDateTime": "2016-03-14T07:49:06Z",
        "specimen": {
          "reference": "urn:uuid:258e637f-2958-4dd2-8488-35888538c937"
        }
      }
    },
    {
      "fullUrl": "urn:uuid:e60b0401-f417-4f02-aa95-24f1cf80895e",
      "resource": {
        "resourceType": "Observation",
        "id": "e60b0401-f417-4f02-aa95-24f1cf80895e",
        "meta": {
          "profile": [
            "http://hl7.eu/fhir/laboratory/StructureDefinition/Observation-resultslab-eu-lab"
          ]
        },
        "performer": [
          {
            "display": "The Central European Lab"
          }
        ],
        "category": [
          {
            "coding": [
              {
                "system": "http://terminology.hl7.org/CodeSystem/observation-category",
                "code": "laboratory"
              }
            ]
          }
        ],
        "code": {
          "coding": [
            {
              "code": "2947-0",
              "system": "http://loinc.org",
              "display": "Sodium [Moles/volume] in Blood"
            }
          ],
          "text": "Sodium [Moles/volume] in Blood"
        },
        "valueQuantity": {
          "system": "http://unitsofmeasure.org",
          "value": 142.5,
          "unit": "mmol/L",
          "code": "mmol/L"
        },
        "referenceRange": [
          {
            "low": {
              "value": 135,
              "code": "mmol/L",
              "system": "http://unitsofmeasure.org"
            }
          },
          {
            "high": {
              "value": 145,
              "code": "mmol/L",
              "system": "http://unitsofmeasure.org"
            }
          }
        ],
        "text": {
          "status": "generated",
          "div": "<div xmlns=\"http://www.w3.org/1999/xhtml\"><table class=\"hl7__eu__lab__report\"><tr><th>Test</th><th>14-Mar-2016</th><th>Reference&#xA0;Range</th><th>Unit</th></tr><tr><td>Sodium [Moles/volume] in Blood</td><td>142.5</td><td>135 - 145</td><td></td><td>mmol/L</td></tr></table></div>"
        },
        "status": "final",
        "subject": {
          "reference": "urn:uuid:3d495701-1d08-484f-9d11-31969fcee76b",
          "display": "Alessio Fanucci"
        },
        "effectiveDateTime": "2016-03-14T07:49:06Z",
        "specimen": {
          "reference": "urn:uuid:258e637f-2958-4dd2-8488-35888538c937"
        }
      }
    },
    {
      "fullUrl": "urn:uuid:8018893b-5739-4ecb-a754-74c4b4fc34a0",
      "resource": {
        "resourceType": "Observation",
        "id": "8018893b-5739-4ecb-a754-74c4b4fc34a0",
        "meta": {
          "profile": [
            "http://hl7.eu/fhir/laboratory/StructureDefinition/Observation-resultslab-eu-lab"
          ]
        },
        "performer": [
          {
            "display": "The Central European Lab"
          }
        ],
        "category": [
          {
            "coding": [
              {
                "system": "http://terminology.hl7.org/CodeSystem/observation-category",
                "code": "laboratory"
              }
            ]
          }
        ],
        "code": {
          "coding": [
            {
              "code": "6298-4",
              "system": "http://loinc.org",
              "display": "Potassium [Moles/volume] in Blood"
            }
          ],
          "text": "Potassium [Moles/volume] in Blood"
        },
        "valueQuantity": {
          "system": "http://unitsofmeasure.org",
          "value": 4.8,
          "unit": "mmol/L",
          "code": "mmol/L"
        },
        "referenceRange": [
          {
            "low": {
              "value": 3.5,
              "code": "mmol/L",
              "system": "http://unitsofmeasure.org"
            }
          },
          {
            "high": {
              "value": 5,
              "code": "mmol/L",
              "system": "http://unitsofmeasure.org"
            }
          }
        ],
        "text": {
          "status": "generated",
          "div": "<div xmlns=\"http://www.w3.org/1999/xhtml\"><table class=\"hl7__eu__lab__report\"><tr><th>Test</th><th>14-Mar-2016</th><th>Reference&#xA0;Range</th><th>Unit</th></tr><tr><td>Potassium [Moles/volume] in Blood</td><td>4.8</td><td>3.5 - 5</td><td></td><td>mmol/L</td></tr></table></div>"
        },
        "status": "final",
        "subject": {
          "reference": "urn:uuid:3d495701-1d08-484f-9d11-31969fcee76b",
          "display": "Alessio Fanucci"
        },
        "effectiveDateTime": "2016-03-14T07:49:06Z",
        "specimen": {
          "reference": "urn:uuid:258e637f-2958-4dd2-8488-35888538c937"
        }
      }
    },
    {
      "fullUrl": "urn:uuid:321b6ede-960e-4fb4-8b0d-add0d655aea6",
      "resource": {
        "resourceType": "Observation",
        "id": "321b6ede-960e-4fb4-8b0d-add0d655aea6",
        "meta": {
          "profile": [
            "http://hl7.eu/fhir/laboratory/StructureDefinition/Observation-resultslab-eu-lab"
          ]
        },
        "performer": [
          {
            "display": "The Central European Lab"
          }
        ],
        "category": [
          {
            "coding": [
              {
                "system": "http://terminology.hl7.org/CodeSystem/observation-category",
                "code": "laboratory"
              }
            ]
          }
        ],
        "code": {
          "coding": [
            {
              "code": "2069-3",
              "system": "http://loinc.org",
              "display": "Chloride [Moles/volume] in Blood"
            }
          ],
          "text": "Chloride [Moles/volume] in Blood"
        },
        "valueQuantity": {
          "system": "http://unitsofmeasure.org",
          "value": 107.8,
          "unit": "mmol/L",
          "code": "mmol/L"
        },
        "referenceRange": [
          {
            "low": {
              "value": 98,
              "code": "mmol/L",
              "system": "http://unitsofmeasure.org"
            }
          },
          {
            "high": {
              "value": 110,
              "code": "mmol/L",
              "system": "http://unitsofmeasure.org"
            }
          }
        ],
        "text": {
          "status": "generated",
          "div": "<div xmlns=\"http://www.w3.org/1999/xhtml\"><table class=\"hl7__eu__lab__report\"><tr><th>Test</th><th>14-Mar-2016</th><th>Reference&#xA0;Range</th><th>Unit</th></tr><tr><td>Chloride [Moles/volume] in Blood</td><td>107.8</td><td>98 - 110</td><td></td><td>mmol/L</td></tr></table></div>"
        },
        "status": "final",
        "subject": {
          "reference": "urn:uuid:3d495701-1d08-484f-9d11-31969fcee76b",
          "display": "Alessio Fanucci"
        },
        "effectiveDateTime": "2016-03-14T07:49:06Z",
        "specimen": {
          "reference": "urn:uuid:258e637f-2958-4dd2-8488-35888538c937"
        }
      }
    },
    {
      "fullUrl": "urn:uuid:7e539b65-3ca9-4f0c-a5f3-2300577144f1",
      "resource": {
        "resourceType": "Observation",
        "id": "7e539b65-3ca9-4f0c-a5f3-2300577144f1",
        "meta": {
          "profile": [
            "http://hl7.eu/fhir/laboratory/StructureDefinition/Observation-resultslab-eu-lab"
          ]
        },
        "performer": [
          {
            "display": "The Central European Lab"
          }
        ],
        "category": [
          {
            "coding": [
              {
                "system": "http://terminology.hl7.org/CodeSystem/observation-category",
                "code": "laboratory"
              }
            ]
          }
        ],
        "code": {
          "coding": [
            {
              "code": "20565-8",
              "system": "http://loinc.org",
              "display": "Carbon dioxide, total [Moles/volume] in Blood"
            }
          ],
          "text": "Carbon dioxide, total [Moles/volume] in Blood"
        },
        "valueQuantity": {
          "system": "http://unitsofmeasure.org",
          "value": 22.8,
          "unit": "mmol/L",
          "code": "mmol/L"
        },
        "referenceRange": [
          {
            "low": {
              "value": 22,
              "code": "mmol/L",
              "system": "http://unitsofmeasure.org"
            }
          },
          {
            "high": {
              "value": 32,
              "code": "mmol/L",
              "system": "http://unitsofmeasure.org"
            }
          }
        ],
        "text": {
          "status": "generated",
          "div": "<div xmlns=\"http://www.w3.org/1999/xhtml\"><table class=\"hl7__eu__lab__report\"><tr><th>Test</th><th>14-Mar-2016</th><th>Reference&#xA0;Range</th><th>Unit</th></tr><tr><td>Carbon dioxide, total [Moles/volume] in Blood</td><td>22.8</td><td>22 - 32</td><td></td><td>mmol/L</td></tr></table></div>"
        },
        "status": "final",
        "subject": {
          "reference": "urn:uuid:3d495701-1d08-484f-9d11-31969fcee76b",
          "display": "Alessio Fanucci"
        },
        "effectiveDateTime": "2016-03-14T07:49:06Z",
        "specimen": {
          "reference": "urn:uuid:258e637f-2958-4dd2-8488-35888538c937"
        }
      }
    },
    {
      "fullUrl": "urn:uuid:df560245-1276-4b51-9742-90f553366ebc",
      "resource": {
        "resourceType": "Observation",
        "id": "df560245-1276-4b51-9742-90f553366ebc",
        "meta": {
          "profile": [
            "http://hl7.eu/fhir/laboratory/StructureDefinition/Observation-resultslab-eu-lab"
          ]
        },
        "performer": [
          {
            "display": "The Central European Lab"
          }
        ],
        "category": [
          {
            "coding": [
              {
                "system": "http://terminology.hl7.org/CodeSystem/observation-category",
                "code": "laboratory"
              }
            ]
          }
        ],
        "code": {
          "coding": [
            {
              "code": "2093-3",
              "system": "http://loinc.org",
              "display": "Cholesterol [Mass/volume] in Serum or Plasma"
            }
          ],
          "text": "Cholesterol [Mass/volume] in Serum or Plasma"
        },
        "valueQuantity": {
          "system": "http://unitsofmeasure.org",
          "value": 128.2,
          "unit": "mg/dL",
          "code": "mg/dL"
        },
        "referenceRange": [
          {
            "low": {
              "value": 125,
              "code": "mg/dL",
              "system": "http://unitsofmeasure.org"
            }
          },
          {
            "high": {
              "value": 200,
              "code": "mg/dL",
              "system": "http://unitsofmeasure.org"
            }
          }
        ],
        "text": {
          "status": "generated",
          "div": "<div xmlns=\"http://www.w3.org/1999/xhtml\"><table class=\"hl7__eu__lab__report\"><tr><th>Test</th><th>14-Mar-2016</th><th>Reference&#xA0;Range</th><th>Unit</th></tr><tr><td>Cholesterol [Mass/volume] in Serum or Plasma</td><td>128.2</td><td>125 - 200</td><td></td><td>mg/dL</td></tr></table></div>"
        },
        "status": "final",
        "subject": {
          "reference": "urn:uuid:3d495701-1d08-484f-9d11-31969fcee76b",
          "display": "Alessio Fanucci"
        },
        "effectiveDateTime": "2016-03-14T07:49:06Z",
        "specimen": {
          "reference": "urn:uuid:ff6b9a07-eb8a-424b-b424-8860e04d0be1"
        }
      }
    },
    {
      "fullUrl": "urn:uuid:59bb10d7-e691-49c6-bf11-93f8efeb9854",
      "resource": {
        "resourceType": "Observation",
        "id": "59bb10d7-e691-49c6-bf11-93f8efeb9854",
        "meta": {
          "profile": [
            "http://hl7.eu/fhir/laboratory/StructureDefinition/Observation-resultslab-eu-lab"
          ]
        },
        "performer": [
          {
            "display": "The Central European Lab"
          }
        ],
        "category": [
          {
            "coding": [
              {
                "system": "http://terminology.hl7.org/CodeSystem/observation-category",
                "code": "laboratory"
              }
            ]
          }
        ],
        "code": {
          "coding": [
            {
              "code": "2571-8",
              "system": "http://loinc.org",
              "display": "Triglyceride [Mass/volume] in Serum or Plasma"
            }
          ],
          "text": "Triglyceride [Mass/volume] in Serum or Plasma"
        },
        "valueQuantity": {
          "system": "http://unitsofmeasure.org",
          "value": 109.8,
          "unit": "mg/dL",
          "code": "mg/dL"
        },
        "referenceRange": [
          {
            "low": {
              "value": 0,
              "code": "mg/dL",
              "system": "http://unitsofmeasure.org"
            }
          },
          {
            "high": {
              "value": 150,
              "code": "mg/dL",
              "system": "http://unitsofmeasure.org"
            }
          }
        ],
        "text": {
          "status": "generated",
          "div": "<div xmlns=\"http://www.w3.org/1999/xhtml\"><table class=\"hl7__eu__lab__report\"><tr><th>Test</th><th>14-Mar-2016</th><th>Reference&#xA0;Range</th><th>Unit</th></tr><tr><td>Triglyceride [Mass/volume] in Serum or Plasma</td><td>109.8</td><td>0 - 150</td><td></td><td>mg/dL</td></tr></table></div>"
        },
        "status": "final",
        "subject": {
          "reference": "urn:uuid:3d495701-1d08-484f-9d11-31969fcee76b",
          "display": "Alessio Fanucci"
        },
        "effectiveDateTime": "2016-03-14T07:49:06Z",
        "specimen": {
          "reference": "urn:uuid:ff6b9a07-eb8a-424b-b424-8860e04d0be1"
        }
      }
    },
    {
      "fullUrl": "urn:uuid:26acc054-5d79-4fcf-b1da-17ba396c26dc",
      "resource": {
        "resourceType": "Observation",
        "id": "26acc054-5d79-4fcf-b1da-17ba396c26dc",
        "meta": {
          "profile": [
            "http://hl7.eu/fhir/laboratory/StructureDefinition/Observation-resultslab-eu-lab"
          ]
        },
        "performer": [
          {
            "display": "The Central European Lab"
          }
        ],
        "category": [
          {
            "coding": [
              {
                "system": "http://terminology.hl7.org/CodeSystem/observation-category",
                "code": "laboratory"
              }
            ]
          }
        ],
        "code": {
          "coding": [
            {
              "code": "18262-6",
              "system": "http://loinc.org",
              "display": "Cholesterol in LDL [Mass/volume] in Serum or Plasma by Direct assay"
            }
          ],
          "text": "Cholesterol in LDL [Mass/volume] in Serum or Plasma by Direct assay"
        },
        "valueQuantity": {
          "system": "http://unitsofmeasure.org",
          "value": 70.9,
          "unit": "mg/dL",
          "code": "mg/dL"
        },
        "referenceRange": [
          {
            "low": {
              "value": 0,
              "code": "mg/dL",
              "system": "http://unitsofmeasure.org"
            }
          },
          {
            "high": {
              "value": 130,
              "code": "mg/dL",
              "system": "http://unitsofmeasure.org"
            }
          }
        ],
        "text": {
          "status": "generated",
          "div": "<div xmlns=\"http://www.w3.org/1999/xhtml\"><table class=\"hl7__eu__lab__report\"><tr><th>Test</th><th>14-Mar-2016</th><th>Reference&#xA0;Range</th><th>Unit</th></tr><tr><td>Cholesterol in LDL [Mass/volume] in Serum or Plasma by Direct assay</td><td>70.9</td><td>0 - 130</td><td></td><td>mg/dL</td></tr></table></div>"
        },
        "status": "final",
        "subject": {
          "reference": "urn:uuid:3d495701-1d08-484f-9d11-31969fcee76b",
          "display": "Alessio Fanucci"
        },
        "effectiveDateTime": "2016-03-14T07:49:06Z",
        "specimen": {
          "reference": "urn:uuid:ff6b9a07-eb8a-424b-b424-8860e04d0be1"
        }
      }
    },
    {
      "fullUrl": "urn:uuid:bda9aebe-1357-4bc0-be4b-71309de1adad",
      "resource": {
        "resourceType": "Observation",
        "id": "bda9aebe-1357-4bc0-be4b-71309de1adad",
        "meta": {
          "profile": [
            "http://hl7.eu/fhir/laboratory/StructureDefinition/Observation-resultslab-eu-lab"
          ]
        },
        "performer": [
          {
            "display": "The Central European Lab"
          }
        ],
        "category": [
          {
            "coding": [
              {
                "system": "http://terminology.hl7.org/CodeSystem/observation-category",
                "code": "laboratory"
              }
            ]
          }
        ],
        "code": {
          "coding": [
            {
              "code": "2085-9",
              "system": "http://loinc.org",
              "display": "Cholesterol in HDL [Mass/volume] in Serum or Plasma"
            }
          ],
          "text": "Cholesterol in HDL [Mass/volume] in Serum or Plasma"
        },
        "valueQuantity": {
          "system": "http://unitsofmeasure.org",
          "value": 35.3,
          "unit": "mg/dL",
          "code": "mg/dL"
        },
        "referenceRange": [
          {
            "low": {
              "value": 40,
              "code": "mg/dL",
              "system": "http://unitsofmeasure.org"
            }
          },
          {
            "high": {
              "value": 60,
              "code": "mg/dL",
              "system": "http://unitsofmeasure.org"
            }
          }
        ],
        "interpretation": [
          {
            "coding": [
              {
                "code": "L",
                "system": "http://terminology.hl7.org/CodeSystem/v3-ObservationInterpretation",
                "display": "Low"
              }
            ]
          }
        ],
        "text": {
          "status": "generated",
          "div": "<div xmlns=\"http://www.w3.org/1999/xhtml\"><table class=\"hl7__eu__lab__report\"><tr><th>Test</th><th>14-Mar-2016</th><th>Reference&#xA0;Range</th><th>Unit</th></tr><tr><td>Cholesterol in HDL [Mass/volume] in Serum or Plasma</td><td>35.3</td><td>40 - 60</td><td>L</td><td>mg/dL</td></tr></table></div>"
        },
        "status": "final",
        "subject": {
          "reference": "urn:uuid:3d495701-1d08-484f-9d11-31969fcee76b",
          "display": "Alessio Fanucci"
        },
        "effectiveDateTime": "2016-03-14T07:49:06Z",
        "specimen": {
          "reference": "urn:uuid:ff6b9a07-eb8a-424b-b424-8860e04d0be1"
        }
      }
    },
    {
      "fullUrl": "urn:uuid:b34025b6-d6f7-4f05-85c0-cda0e76b4bb4",
      "resource": {
        "resourceType": "Device",
        "id": "b34025b6-d6f7-4f05-85c0-cda0e76b4bb4",
        "deviceName": [
          {
            "name": "SYNDERAI Synthetic Generator",
            "type": "manufacturer-name"
          }
        ],
        "version": [
          {
            "value": "5.0"
          }
        ],
        "text": {
          "status": "generated",
          "div": "<div xmlns=\"http://www.w3.org/1999/xhtml\">SYNDERAI Synthetic Generator v5.0</div>"
        },
        "status": "active\"",
        "distinctIdentifier": "synderai-generator-50",
        "manufacturer": "SYNDERAI Project"
      }
    },
    {
      "fullUrl": "urn:uuid:4700a49b-2d68-4c27-9b75-01c5fc35ebd6",
      "resource": {
        "resourceType": "Provenance",
        "id": "4700a49b-2d68-4c27-9b75-01c5fc35ebd6",
        "target": [
          {
            "reference": "Patient/3d495701-1d08-484f-9d11-31969fcee76b"
          },
          {
            "reference": "Bundle/05d2340d-68ab-4199-a69d-87d9cd40b6b4"
          },
          {
            "reference": "Composition/53dd8b2d-85d1-4982-9ace-5887b24edd4d"
          },
          {
            "reference": "PractitionerRole/12f95f0b-c329-43fd-b13f-6b46d85e4119"
          },
          {
            "reference": "Practitioner/02be408b-e437-4ba2-9f84-b46eeeda5a44"
          },
          {
            "reference": "PractitionerRole/0b996495-b081-4992-b487-a50a742a5d62"
          },
          {
            "reference": "Organization/251a49bd-8a02-4c01-ba17-556f246626cf"
          }
        ],
        "activity": {
          "text": "Synthetic Example Data Generation"
        },
        "policy": [
          "https://synderai.net/synderai-synthetic-data-policy"
        ],
        "agent": [
          {
            "type": {
              "text": "author"
            },
            "who": {
              "reference": "Device/b34025b6-d6f7-4f05-85c0-cda0e76b4bb4"
            }
          }
        ],
        "reason": [
          {
            "text": "Interoperability Testing and Training (non-clinical use)"
          }
        ],
        "text": {
          "status": "generated",
          "div": "<div xmlns=\"http://www.w3.org/1999/xhtml\">Provenance for SYNDERAI Synthetic Example Data Resource</div>"
        },
        "recorded": "2016-03-14T08:49:06Z"
      }
    },
    {
      "fullUrl": "urn:uuid:12f95f0b-c329-43fd-b13f-6b46d85e4119",
      "resource": {
        "resourceType": "PractitionerRole",
        "id": "12f95f0b-c329-43fd-b13f-6b46d85e4119",
        "meta": {
          "profile": [
            "http://hl7.eu/fhir/base/StructureDefinition/practitionerRole-eu"
          ]
        },
        "text": {
          "status": "generated",
          "div": "<div xmlns=\"http://www.w3.org/1999/xhtml\">Laboratory Role Id: 12f95f0b-c329-43fd-b13f-6b46d85e4119</div>"
        },
        "practitioner": {
          "reference": "urn:uuid:02be408b-e437-4ba2-9f84-b46eeeda5a44"
        }
      }
    },
    {
      "fullUrl": "urn:uuid:02be408b-e437-4ba2-9f84-b46eeeda5a44",
      "resource": {
        "resourceType": "Practitioner",
        "id": "02be408b-e437-4ba2-9f84-b46eeeda5a44",
        "meta": {
          "profile": [
            "http://hl7.eu/fhir/base/StructureDefinition/practitioner-eu"
          ]
        },
        "identifier": [
          {
            "assigner": {
              "display": "HL7 Europe"
            },
            "system": "urn:oid:2.16.840.1.113883.2.51.999",
            "value": "13aebad4-1d94-46c1-a6f2-423f065a32f4"
          }
        ],
        "name": [
          {
            "prefix": [
              "dr"
            ],
            "given": [
              "Ex"
            ],
            "family": "Ample"
          }
        ],
        "address": [
          {
            "line": [
              "Laboratoire Central Européenne",
              "Boulevard du Jardin Botanique 32"
            ],
            "postalCode": "1000",
            "city": "Brussels",
            "country": "Belgium"
          }
        ],
        "text": {
          "status": "generated",
          "div": "<div xmlns=\"http://www.w3.org/1999/xhtml\">Laboratory: Laboratoire Central Européenne, 1000 Brussels, Belgium</div>"
        }
      }
    }
  ],
  "type": "document",
  "timestamp": "2016-03-14T08:49:06Z"
}
