{
  "resourceType": "Bundle",
  "id": "4a1c970b-ac50-46a0-a51b-6ee33f20882b",
  "meta": {
    "profile": [
      "http://hl7.eu/fhir/laboratory/StructureDefinition/Bundle-eu-lab"
    ]
  },
  "identifier": {
    "assigner": {
      "display": "HL7 Europe"
    },
    "system": "urn:oid:2.16.840.1.113883.2.51.999",
    "value": "0eee8937-d64f-49a7-a8c1-c8ce4e84508a"
  },
  "entry": [
    {
      "fullUrl": "urn:uuid:5fb4128f-4e93-488c-a6a3-da7d292c3aac",
      "resource": {
        "resourceType": "Composition",
        "id": "5fb4128f-4e93-488c-a6a3-da7d292c3aac",
        "meta": {
          "profile": [
            "http://hl7.eu/fhir/laboratory/StructureDefinition/Composition-eu-lab"
          ]
        },
        "identifier": {
          "assigner": {
            "display": "HL7 Europe"
          },
          "system": "urn:oid:2.16.840.1.113883.2.51.999",
          "value": "dff6f778-9f9a-46d6-9778-c2caa0417dac"
        },
        "author": [
          {
            "reference": "urn:uuid:9745bf5b-53a3-45b3-8c7d-ee812db964f6"
          }
        ],
        "category": [
          {
            "coding": [
              {
                "code": "26436-6",
                "system": "http://loinc.org",
                "display": "Laboratory studies (set)"
              }
            ]
          }
        ],
        "type": {
          "coding": [
            {
              "code": "11502-2",
              "system": "http://loinc.org",
              "display": "Laboratory report"
            }
          ],
          "text": "Laboratory Report"
        },
        "section": [
          {
            "code": {
              "coding": [
                {
                  "code": "26436-6",
                  "system": "http://loinc.org",
                  "display": "Laboratory studies (set)"
                }
              ],
              "text": "Laboratory studies"
            },
            "section": [
              {
                "code": {
                  "coding": [
                    {
                      "code": "$18719-5",
                      "system": "http://loinc.org",
                      "display": "Chemistry studies (set)"
                    }
                  ],
                  "text": "Chemistry"
                },
                "entry": [
                  {
                    "reference": "urn:uuid:b522b2d8-6416-493f-ab8e-0e154a5cb839"
                  }
                ],
                "text": {
                  "status": "generated",
                  "div": "<div xmlns=\"http://www.w3.org/1999/xhtml\"><h3>Chemistry</h3><table class=\"hl7__eu__lab__report\"><thead><tr><th>Test</th><th>19-NOV-2024</th><th>Reference&#xA0;Range</th><th>Unit</th></tr></thead><tbody><tr><td>Oxygen saturation in Arterial blood</td><td>99.5</td><td>95 - 100</td><td>%</td></tr></tbody></table></div>"
                },
                "title": "Chemistry"
              }
            ],
            "title": "Laboratory Report"
          },
          {
            "text": {
              "status": "generated",
              "div": "<div xmlns=\"http://www.w3.org/1999/xhtml\"><h3>Annotation</h3><table class=\"hl7__eu__lab__report\"><tr><th>Conclusion and Recommendations based on this report and previous findings known to us</th></tr><tr><td>Oxygen saturation is within the normal range, indicating adequate arterial oxygenation. No laboratory abnormalities detected in this result. No immediate concerns from a clinical laboratory perspective.</td></tr></table></div>"
            },
            "code": {
              "coding": [
                {
                  "system": "http://loinc.org",
                  "code": "48767-8",
                  "display": "Annotation comment"
                }
              ]
            },
            "title": "Annotation comment"
          }
        ],
        "status": "final",
        "subject": {
          "reference": "urn:uuid:820e36ad-9f43-4ffe-9964-770a1fdf7c6f",
          "display": "Leonhard Köhler"
        },
        "date": "2024-11-19T12:28:10Z",
        "title": "Laboratory Report",
        "confidentiality": "N"
      }
    },
    {
      "fullUrl": "urn:uuid:4cd7d277-ab32-4f15-b681-73bf018003ee",
      "resource": {
        "resourceType": "DiagnosticReport",
        "id": "4cd7d277-ab32-4f15-b681-73bf018003ee",
        "meta": {
          "profile": [
            "http://hl7.eu/fhir/laboratory/StructureDefinition/DiagnosticReport-eu-lab"
          ]
        },
        "identifier": [
          {
            "assigner": {
              "display": "HL7 Europe"
            },
            "system": "urn:oid:2.16.840.1.113883.2.51.999",
            "value": "2648eb9d-ec85-47b0-ac61-94b0c127efeb"
          }
        ],
        "extension": [
          {
            "url": "http://hl7.org/fhir/5.0/StructureDefinition/extension-DiagnosticReport.composition",
            "valueReference": {
              "reference": "urn:uuid:dff6f778-9f9a-46d6-9778-c2caa0417dac"
            }
          }
        ],
        "category": [
          {
            "coding": [
              {
                "code": "26436-6",
                "system": "http://loinc.org",
                "display": "Laboratory studies (set)"
              }
            ]
          }
        ],
        "specimen": [
          {
            "reference": "urn:uuid:08156cd0-9cd1-4760-af27-c98bacd17ddc"
          }
        ],
        "result": [
          {
            "reference": "urn:uuid:b522b2d8-6416-493f-ab8e-0e154a5cb839"
          }
        ],
        "status": "registered",
        "code": {
          "coding": [
            {
              "code": "11502-2",
              "system": "http://loinc.org",
              "display": "Laboratory report"
            }
          ]
        },
        "subject": {
          "reference": "urn:uuid:820e36ad-9f43-4ffe-9964-770a1fdf7c6f",
          "display": "Leonhard Köhler"
        }
      }
    },
    {
      "fullUrl": "urn:uuid:820e36ad-9f43-4ffe-9964-770a1fdf7c6f",
      "resource": {
        "resourceType": "Patient",
        "id": "820e36ad-9f43-4ffe-9964-770a1fdf7c6f",
        "meta": {
          "security": [
            {
              "system": "http://terminology.hl7.org/CodeSystem/v3-ActReason",
              "code": "HTEST"
            },
            {
              "system": "http://terminology.hl7.org/CodeSystem/v3-ActReason",
              "code": "TRAIN"
            }
          ],
          "tag": [
            {
              "system": "https://synderai.net/fhir/CodeSystem/tags",
              "code": "synthetic",
              "display": "SYNDERAI Synthetic data"
            }
          ],
          "profile": [
            "http://hl7.eu/fhir/base/StructureDefinition/patient-eu-core"
          ]
        },
        "identifier": [
          {
            "type": {
              "coding": [
                {
                  "code": "PT",
                  "system": "http://terminology.hl7.org/CodeSystem/v2-0203"
                }
              ]
            },
            "system": "http://ec.europa.eu/identifier/eci",
            "value": "5321-442678-4"
          },
          {
            "type": {
              "coding": [
                {
                  "code": "MR",
                  "system": "http://terminology.hl7.org/CodeSystem/v2-0203"
                }
              ]
            },
            "system": "http://local.setting.eu/identifier",
            "value": "ffa9f0d8-c016-d46c-e666-000f53715b47"
          }
        ],
        "name": [
          {
            "family": "Köhler"
          },
          {
            "given": [
              "Leonhard"
            ]
          },
          {
            "text": "Leonhard Köhler"
          }
        ],
        "address": [
          {
            "line": [
              "Henckweg 97/34"
            ],
            "use": "home",
            "type": "physical",
            "postalCode": "87629",
            "city": "Füssen",
            "country": "Germany"
          }
        ],
        "telecom": [
          {
            "system": "phone",
            "value": "00028839855"
          }
        ],
        "extension": [
          {
            "url": "http://hl7.org/fhir/StructureDefinition/patient-nationality",
            "valueCodeableConcept": {
              "coding": [
                {
                  "code": "DE",
                  "system": "http://hl7.org/fhir/ValueSet/country"
                }
              ]
            }
          }
        ],
        "text": {
          "status": "generated",
          "div": "<div xmlns=\"http://www.w3.org/1999/xhtml\"><table class=\"hl7__ips\"><tr><td>Leonhard Köhler</td><td>male</td><td>19-Dec-1949</td></tr></table></div>"
        },
        "gender": "male",
        "birthDate": "1949-12-19"
      }
    },
    {
      "fullUrl": "urn:uuid:bef465e5-05c3-472b-ab2f-d7f38dbd4ef1",
      "resource": {
        "resourceType": "ServiceRequest",
        "id": "bef465e5-05c3-472b-ab2f-d7f38dbd4ef1",
        "meta": {
          "profile": [
            "http://hl7.eu/fhir/laboratory/StructureDefinition/ServiceRequest-eu-lab"
          ]
        },
        "identifier": [
          {
            "system": "http://example.org",
            "value": "6579f8b1-c85c-4e2c-b868-ab782631460f"
          }
        ],
        "specimen": [
          {
            "reference": "urn:uuid:08156cd0-9cd1-4760-af27-c98bacd17ddc"
          }
        ],
        "reasonCode": [
          {
            "coding": [
              {
                "code": "55822004",
                "system": "http://snomed.info/sct",
                "display": "Hyperlipidemia"
              }
            ]
          },
          {
            "coding": [
              {
                "code": "414545008",
                "system": "http://snomed.info/sct",
                "display": "Ischemic heart disease"
              }
            ]
          },
          {
            "coding": [
              {
                "code": "59621000",
                "system": "http://snomed.info/sct",
                "display": "Essential hypertension"
              }
            ]
          },
          {
            "coding": [
              {
                "code": "239873007",
                "system": "http://snomed.info/sct",
                "display": "Osteoarthritis of knee"
              }
            ]
          },
          {
            "coding": [
              {
                "code": "271737000",
                "system": "http://snomed.info/sct",
                "display": "Anemia"
              }
            ]
          },
          {
            "coding": [
              {
                "code": "15777000",
                "system": "http://snomed.info/sct",
                "display": "Prediabetes"
              }
            ]
          }
        ],
        "status": "active",
        "intent": "order",
        "code": {
          "coding": [
            {
              "code": "108252007",
              "system": "http://snomed.info/sct",
              "display": "Laboratory procedure"
            }
          ]
        },
        "subject": {
          "reference": "urn:uuid:820e36ad-9f43-4ffe-9964-770a1fdf7c6f",
          "display": "Leonhard Köhler"
        },
        "requester": {
          "reference": "urn:uuid:7ee01b33-45ce-4383-9dc4-4c7c46e0c6ee"
        }
      }
    },
    {
      "fullUrl": "urn:uuid:7ee01b33-45ce-4383-9dc4-4c7c46e0c6ee",
      "resource": {
        "resourceType": "PractitionerRole",
        "id": "7ee01b33-45ce-4383-9dc4-4c7c46e0c6ee",
        "meta": {
          "profile": [
            "http://hl7.eu/fhir/base/StructureDefinition/practitionerRole-eu"
          ]
        },
        "text": {
          "status": "generated",
          "div": "<div xmlns=\"http://www.w3.org/1999/xhtml\">Provider Role Id: 7ee01b33-45ce-4383-9dc4-4c7c46e0c6ee</div>"
        },
        "organization": {
          "reference": "urn:uuid:e409ca36-8bdc-4e0d-91c9-6ae8c03a96a5"
        }
      }
    },
    {
      "fullUrl": "urn:uuid:e409ca36-8bdc-4e0d-91c9-6ae8c03a96a5",
      "resource": {
        "resourceType": "Organization",
        "id": "e409ca36-8bdc-4e0d-91c9-6ae8c03a96a5",
        "meta": {
          "profile": [
            "http://hl7.eu/fhir/base/StructureDefinition/organization-eu"
          ]
        },
        "identifier": [
          {
            "assigner": {
              "display": "HL7 Europe"
            },
            "system": "urn:oid:2.16.840.1.113883.2.51.999",
            "value": "12d81004-a01d-40af-9b40-54ba40e8bec0"
          }
        ],
        "address": [
          {
            "line": [
              "Feistlestraße 2"
            ],
            "city": "Füssen",
            "postalCode": "87629",
            "country": "Germany"
          }
        ],
        "text": {
          "status": "generated",
          "div": "<div xmlns=\"http://www.w3.org/1999/xhtml\">Provider Organization: hier ist kein Ärztehaus</div>"
        },
        "name": "hier ist kein Ärztehaus"
      }
    },
    {
      "fullUrl": "urn:uuid:08156cd0-9cd1-4760-af27-c98bacd17ddc",
      "resource": {
        "resourceType": "Specimen",
        "id": "08156cd0-9cd1-4760-af27-c98bacd17ddc",
        "meta": {
          "profile": [
            "http://hl7.eu/fhir/laboratory/StructureDefinition/Specimen-eu-lab"
          ]
        },
        "collection": {
          "collectedDateTime": "2024-11-19"
        },
        "text": {
          "status": "generated",
          "div": "<div xmlns=\"http://www.w3.org/1999/xhtml\"><table class=\"hl7__eu__lab__report\"><tr><th>Specimen</th><th>Collection Date</th></tr><tr><td>Arterial blood specimen</td><td><span class=\"nb\">19-Nov-2024</span></td></tr></table></div>"
        },
        "type": {
          "coding": [
            {
              "code": "122552005",
              "system": "http://snomed.info/sct",
              "display": "Arterial blood specimen"
            }
          ]
        }
      }
    },
    {
      "fullUrl": "urn:uuid:b522b2d8-6416-493f-ab8e-0e154a5cb839",
      "resource": {
        "resourceType": "Observation",
        "id": "b522b2d8-6416-493f-ab8e-0e154a5cb839",
        "meta": {
          "profile": [
            "http://hl7.eu/fhir/laboratory/StructureDefinition/Observation-resultslab-eu-lab"
          ]
        },
        "performer": [
          {
            "display": "The Central European Lab"
          }
        ],
        "category": [
          {
            "coding": [
              {
                "system": "http://terminology.hl7.org/CodeSystem/observation-category",
                "code": "laboratory"
              }
            ]
          }
        ],
        "code": {
          "coding": [
            {
              "code": "2708-6",
              "system": "http://loinc.org",
              "display": "Oxygen saturation in Arterial blood"
            }
          ],
          "text": "Oxygen saturation in Arterial blood"
        },
        "valueQuantity": {
          "system": "http://unitsofmeasure.org",
          "value": 99.5,
          "unit": "%",
          "code": "%"
        },
        "referenceRange": [
          {
            "low": {
              "value": 95,
              "code": "%",
              "system": "http://unitsofmeasure.org"
            }
          },
          {
            "high": {
              "value": 100,
              "code": "%",
              "system": "http://unitsofmeasure.org"
            }
          }
        ],
        "text": {
          "status": "generated",
          "div": "<div xmlns=\"http://www.w3.org/1999/xhtml\"><table class=\"hl7__eu__lab__report\"><tr><th>Test</th><th>19-Nov-2024</th><th>Reference&#xA0;Range</th><th>Unit</th></tr><tr><td>Oxygen saturation in Arterial blood</td><td>99.5</td><td>95 - 100</td><td></td><td>%</td></tr></table></div>"
        },
        "status": "final",
        "subject": {
          "reference": "urn:uuid:820e36ad-9f43-4ffe-9964-770a1fdf7c6f",
          "display": "Leonhard Köhler"
        },
        "effectiveDateTime": "2024-11-19T11:28:10Z",
        "specimen": {
          "reference": "urn:uuid:08156cd0-9cd1-4760-af27-c98bacd17ddc"
        }
      }
    },
    {
      "fullUrl": "urn:uuid:97a88c87-fd32-42a9-8d74-15a3f56443ef",
      "resource": {
        "resourceType": "Device",
        "id": "97a88c87-fd32-42a9-8d74-15a3f56443ef",
        "deviceName": [
          {
            "name": "SYNDERAI Synthetic Generator",
            "type": "manufacturer-name"
          }
        ],
        "version": [
          {
            "value": "5.0"
          }
        ],
        "text": {
          "status": "generated",
          "div": "<div xmlns=\"http://www.w3.org/1999/xhtml\">SYNDERAI Synthetic Generator v5.0</div>"
        },
        "status": "active\"",
        "distinctIdentifier": "synderai-generator-50",
        "manufacturer": "SYNDERAI Project"
      }
    },
    {
      "fullUrl": "urn:uuid:2b0c6d22-b568-4aff-933b-70d7b76e5edb",
      "resource": {
        "resourceType": "Provenance",
        "id": "2b0c6d22-b568-4aff-933b-70d7b76e5edb",
        "target": [
          {
            "reference": "Patient/820e36ad-9f43-4ffe-9964-770a1fdf7c6f"
          },
          {
            "reference": "Bundle/4a1c970b-ac50-46a0-a51b-6ee33f20882b"
          },
          {
            "reference": "Composition/5fb4128f-4e93-488c-a6a3-da7d292c3aac"
          },
          {
            "reference": "PractitionerRole/9745bf5b-53a3-45b3-8c7d-ee812db964f6"
          },
          {
            "reference": "Practitioner/1c7b90da-a017-4b04-b314-0843de5de4ae"
          },
          {
            "reference": "PractitionerRole/7ee01b33-45ce-4383-9dc4-4c7c46e0c6ee"
          },
          {
            "reference": "Organization/e409ca36-8bdc-4e0d-91c9-6ae8c03a96a5"
          }
        ],
        "activity": {
          "text": "Synthetic Example Data Generation"
        },
        "policy": [
          "https://synderai.net/synderai-synthetic-data-policy"
        ],
        "agent": [
          {
            "type": {
              "text": "author"
            },
            "who": {
              "reference": "Device/97a88c87-fd32-42a9-8d74-15a3f56443ef"
            }
          }
        ],
        "reason": [
          {
            "text": "Interoperability Testing and Training (non-clinical use)"
          }
        ],
        "text": {
          "status": "generated",
          "div": "<div xmlns=\"http://www.w3.org/1999/xhtml\">Provenance for SYNDERAI Synthetic Example Data Resource</div>"
        },
        "recorded": "2024-11-19T12:28:10Z"
      }
    },
    {
      "fullUrl": "urn:uuid:9745bf5b-53a3-45b3-8c7d-ee812db964f6",
      "resource": {
        "resourceType": "PractitionerRole",
        "id": "9745bf5b-53a3-45b3-8c7d-ee812db964f6",
        "meta": {
          "profile": [
            "http://hl7.eu/fhir/base/StructureDefinition/practitionerRole-eu"
          ]
        },
        "text": {
          "status": "generated",
          "div": "<div xmlns=\"http://www.w3.org/1999/xhtml\">Laboratory Role Id: 9745bf5b-53a3-45b3-8c7d-ee812db964f6</div>"
        },
        "practitioner": {
          "reference": "urn:uuid:1c7b90da-a017-4b04-b314-0843de5de4ae"
        }
      }
    },
    {
      "fullUrl": "urn:uuid:1c7b90da-a017-4b04-b314-0843de5de4ae",
      "resource": {
        "resourceType": "Practitioner",
        "id": "1c7b90da-a017-4b04-b314-0843de5de4ae",
        "meta": {
          "profile": [
            "http://hl7.eu/fhir/base/StructureDefinition/practitioner-eu"
          ]
        },
        "identifier": [
          {
            "assigner": {
              "display": "HL7 Europe"
            },
            "system": "urn:oid:2.16.840.1.113883.2.51.999",
            "value": "cd844305-0d42-4673-b4a7-0bc38cbe3113"
          }
        ],
        "name": [
          {
            "prefix": [
              "dr"
            ],
            "given": [
              "Ex"
            ],
            "family": "Ample"
          }
        ],
        "address": [
          {
            "line": [
              "Laboratoire Central Européenne",
              "Boulevard du Jardin Botanique 32"
            ],
            "postalCode": "1000",
            "city": "Brussels",
            "country": "Belgium"
          }
        ],
        "text": {
          "status": "generated",
          "div": "<div xmlns=\"http://www.w3.org/1999/xhtml\">Laboratory: Laboratoire Central Européenne, 1000 Brussels, Belgium</div>"
        }
      }
    }
  ],
  "type": "document",
  "timestamp": "2024-11-19T12:28:10Z"
}
