{
  "resourceType": "Bundle",
  "id": "2ef9b42c-c555-47ce-84a9-b0375f6db063",
  "meta": {
    "profile": [
      "http://hl7.eu/fhir/laboratory/StructureDefinition/Bundle-eu-lab"
    ]
  },
  "identifier": {
    "assigner": {
      "display": "HL7 Europe"
    },
    "system": "urn:oid:2.16.840.1.113883.2.51.999",
    "value": "b9d0f0b2-a1fc-4cf0-9d38-8a6cb4c3eacb"
  },
  "entry": [
    {
      "fullUrl": "urn:uuid:8ac0a8c4-97ef-4fed-89ea-fa13a30ef42d",
      "resource": {
        "resourceType": "Composition",
        "id": "8ac0a8c4-97ef-4fed-89ea-fa13a30ef42d",
        "meta": {
          "profile": [
            "http://hl7.eu/fhir/laboratory/StructureDefinition/Composition-eu-lab"
          ]
        },
        "identifier": {
          "assigner": {
            "display": "HL7 Europe"
          },
          "system": "urn:oid:2.16.840.1.113883.2.51.999",
          "value": "4f9988f6-527f-4ce8-b133-0c26d504f226"
        },
        "author": [
          {
            "reference": "urn:uuid:f3274faa-4203-4566-82d3-ced7a2b05bf4"
          }
        ],
        "category": [
          {
            "coding": [
              {
                "code": "26436-6",
                "system": "http://loinc.org",
                "display": "Laboratory studies (set)"
              }
            ]
          }
        ],
        "type": {
          "coding": [
            {
              "code": "11502-2",
              "system": "http://loinc.org",
              "display": "Laboratory report"
            }
          ],
          "text": "Laboratory Report"
        },
        "section": [
          {
            "code": {
              "coding": [
                {
                  "code": "26436-6",
                  "system": "http://loinc.org",
                  "display": "Laboratory studies (set)"
                }
              ],
              "text": "Laboratory studies"
            },
            "section": [
              {
                "code": {
                  "coding": [
                    {
                      "code": "$18719-5",
                      "system": "http://loinc.org",
                      "display": "Chemistry studies (set)"
                    }
                  ],
                  "text": "Chemistry"
                },
                "entry": [
                  {
                    "reference": "urn:uuid:8a26782e-8bda-4582-81c3-2a791a764148"
                  },
                  {
                    "reference": "urn:uuid:c5a508ca-40d6-4773-93e1-fde757fa6292"
                  },
                  {
                    "reference": "urn:uuid:635794d4-e9cb-4d05-bd46-8c980d4dbcb7"
                  },
                  {
                    "reference": "urn:uuid:314a8978-01e7-49cf-a98c-bfb2040e30aa"
                  },
                  {
                    "reference": "urn:uuid:67a29794-6ad8-4d0b-a64b-96bf82916f0d"
                  },
                  {
                    "reference": "urn:uuid:c9bd61f7-5e17-4afd-b0e1-73113ce9f8a8"
                  },
                  {
                    "reference": "urn:uuid:2e5a3eb7-e026-4f98-9fc8-c83a36a7e5ec"
                  },
                  {
                    "reference": "urn:uuid:66ec5202-8a9c-466f-9143-48bf30171065"
                  },
                  {
                    "reference": "urn:uuid:abfc27a1-c38c-4b7b-bab5-893465288674"
                  },
                  {
                    "reference": "urn:uuid:a6177830-f800-44fb-95cc-6d2ad495d651"
                  },
                  {
                    "reference": "urn:uuid:e7f35875-8ff1-4c29-a3b4-bd431104b2d2"
                  },
                  {
                    "reference": "urn:uuid:b95b169b-34a1-415c-9e72-cc861f5329ab"
                  },
                  {
                    "reference": "urn:uuid:154474de-34e7-4692-8f88-98bf49dccfb8"
                  },
                  {
                    "reference": "urn:uuid:12b4fc88-94ab-4874-a2be-81f9693d7b5a"
                  },
                  {
                    "reference": "urn:uuid:c718d4a8-f240-4098-8666-81fcfcfcf9a7"
                  },
                  {
                    "reference": "urn:uuid:7e128cee-167e-47b6-a47c-04c6aa78d209"
                  },
                  {
                    "reference": "urn:uuid:15fdb7fb-ad21-4f0c-905a-b39dca0a59f8"
                  },
                  {
                    "reference": "urn:uuid:3300907f-79f2-4387-8e89-bd15e20bc1cc"
                  },
                  {
                    "reference": "urn:uuid:03fc6437-2565-412a-9db3-207f2fb10ec4"
                  },
                  {
                    "reference": "urn:uuid:af0a5e97-f7d7-460d-9333-0d148155a23f"
                  },
                  {
                    "reference": "urn:uuid:05d36679-da21-4ad6-8eb8-b720deeb7b1d"
                  },
                  {
                    "reference": "urn:uuid:bac38825-3a83-4a3c-87d7-27143a12403c"
                  }
                ],
                "text": {
                  "status": "generated",
                  "div": "<div xmlns=\"http://www.w3.org/1999/xhtml\"><h3>Chemistry</h3><table class=\"hl7__eu__lab__report\"><thead><tr><th>Test</th><th>17-MAR-2022</th><th>Reference&#xA0;Range</th><th>Unit</th></tr></thead><tbody><tr><td>Glucose [Mass/volume] in Serum or Plasma</td><td>86.1</td><td>70 - 140</td><td>mg/dL</td></tr><tr><td>Urea nitrogen [Mass/volume] in Serum or Plasma</td><td>19.3</td><td>7 - 25</td><td>mg/dL</td></tr><tr><td>Creatinine [Mass/volume] in Serum or Plasma</td><td><strong>1.9 H</strong></td><td>0.9 - 1.3</td><td>mg/dL</td></tr><tr><td>Calcium [Mass/volume] in Serum or Plasma</td><td>9.2</td><td>8.5 - 10.5</td><td>mg/dL</td></tr><tr><td>Sodium [Moles/volume] in Serum or Plasma</td><td>136.2</td><td>135 - 145</td><td>mmol/L</td></tr><tr><td>Potassium [Moles/volume] in Serum or Plasma</td><td>5.2</td><td>3.5 - 5.3</td><td>mmol/L</td></tr><tr><td>Chloride [Moles/volume] in Serum or Plasma</td><td><strong>110.4 H</strong></td><td>98 - 107</td><td>mmol/L</td></tr><tr><td>Carbon dioxide, total [Moles/volume] in Serum or Plasma</td><td>26.2</td><td>22 - 29</td><td>mmol/L</td></tr><tr><td>Ketones [Presence] in Urine by Test strip</td><td>Urine ketone test = +</td><td></td><td></td></tr><tr><td>Hemoglobin A1c/Hemoglobin.total in Blood</td><td><strong>3.0 L</strong></td><td>4.5 - 6.4</td><td>%</td></tr><tr><td>Glucose [Mass/volume] in Blood</td><td>86.1</td><td>70 - 140</td><td>mg/dL</td></tr><tr><td>Urea nitrogen [Mass/volume] in Blood</td><td>19.3</td><td>7 - 25</td><td>mg/dL</td></tr><tr><td>Creatinine [Mass/volume] in Blood</td><td><strong>1.6 H</strong></td><td>0.9 - 1.3</td><td>mg/dL</td></tr><tr><td>Calcium [Mass/volume] in Blood</td><td>9.2</td><td>8.6 - 10.2</td><td>mg/dL</td></tr><tr><td>Sodium [Moles/volume] in Blood</td><td>136.2</td><td>135 - 145</td><td>mmol/L</td></tr><tr><td>Potassium [Moles/volume] in Blood</td><td><strong>5.2 H</strong></td><td>3.5 - 5.1</td><td>mmol/L</td></tr><tr><td>Chloride [Moles/volume] in Blood</td><td><strong>110.4 H</strong></td><td>98 - 108</td><td>mmol/L</td></tr><tr><td>Carbon dioxide, total [Moles/volume] in Blood</td><td>26.2</td><td>22 - 32</td><td>mmol/L</td></tr><tr><td>Cholesterol [Mass/volume] in Serum or Plasma</td><td>115.1</td><td>0 - 200</td><td>mg/dL</td></tr><tr><td>Triglyceride [Mass/volume] in Serum or Plasma</td><td>132.8</td><td>0 - 199</td><td>mg/dL</td></tr><tr><td>Cholesterol in LDL [Mass/volume] in Serum or Plasma by Direct assay</td><td>41.3</td><td>0 - 130</td><td>mg/dL</td></tr><tr><td>Cholesterol in HDL [Mass/volume] in Serum or Plasma</td><td>47.3</td><td>40 - 65</td><td>mg/dL</td></tr></tbody></table></div>"
                },
                "title": "Chemistry"
              },
              {
                "code": {
                  "coding": [
                    {
                      "code": "$18729-4",
                      "system": "http://loinc.org",
                      "display": "Urinalysis studies (set)"
                    }
                  ],
                  "text": "Urinalysis"
                },
                "entry": [
                  {
                    "reference": "urn:uuid:edc11b77-75cb-4e35-b31e-31edc802c05e"
                  },
                  {
                    "reference": "urn:uuid:857df522-1949-43b5-9e3a-dcb66a8efa27"
                  },
                  {
                    "reference": "urn:uuid:dcc69aab-a6ed-406d-9eff-28fbfeb0f0ed"
                  },
                  {
                    "reference": "urn:uuid:5c711309-7940-4715-89b1-95724e9fea0b"
                  },
                  {
                    "reference": "urn:uuid:399f753d-3c1b-4819-8566-451e09063dd0"
                  },
                  {
                    "reference": "urn:uuid:72d94b04-6204-4056-ae7f-b3a8f56cc62e"
                  },
                  {
                    "reference": "urn:uuid:519fb8ff-9a9c-4567-8614-18369714d4b8"
                  },
                  {
                    "reference": "urn:uuid:45edb8da-c2b0-496c-ba72-87954fab5706"
                  },
                  {
                    "reference": "urn:uuid:b869b8c1-7336-46b1-bf7a-23345bc1c051"
                  },
                  {
                    "reference": "urn:uuid:7b709b3b-eac6-49a5-916e-cd4ed06d2799"
                  },
                  {
                    "reference": "urn:uuid:7474ff1d-4a61-4d49-bf5c-6349449806ea"
                  },
                  {
                    "reference": "urn:uuid:5f292afa-22ea-4e87-adc9-7bec8aa20bd4"
                  }
                ],
                "text": {
                  "status": "generated",
                  "div": "<div xmlns=\"http://www.w3.org/1999/xhtml\"><h3>Urinalysis</h3><table class=\"hl7__eu__lab__report\"><thead><tr><th>Test</th><th>17-MAR-2022</th><th>Reference&#xA0;Range</th><th>Unit</th></tr></thead><tbody><tr><td>Glucose [Mass/volume] in Urine by Test strip</td><td><strong>1.0 H</strong></td><td>0.8 - 0</td><td>mg/dL</td></tr><tr><td>Glucose [Presence] in Urine by Test strip</td><td>++</td><td></td><td></td></tr><tr><td>Bilirubin.total [Mass/volume] in Urine by Test strip</td><td>1.1</td><td>0.2 - 1.5</td><td>mg/dL</td></tr><tr><td>Bilirubin.total [Presence] in Urine by Test strip</td><td>Finding of bilirubin in urine</td><td></td><td></td></tr><tr><td>Ketones [Mass/volume] in Urine by Test strip</td><td><strong>16.2 H</strong></td><td>0 - 4</td><td>mg/dL</td></tr><tr><td>Specific gravity of Urine by Test strip</td><td><strong>1.0 L</strong></td><td>1.01 - 1.03</td><td>{nominal}</td></tr><tr><td>pH of Urine by Test strip</td><td>6.6</td><td>4.5 - 7.5</td><td>pH</td></tr><tr><td>Protein [Mass/volume] in Urine by Test strip</td><td><strong>339.2 H</strong></td><td>0 - 150</td><td>mg/dL</td></tr><tr><td>Protein [Presence] in Urine by Test strip</td><td>Urine protein test = ++</td><td></td><td></td></tr><tr><td>Nitrite [Presence] in Urine by Test strip</td><td>Urine nitrite negative</td><td></td><td></td></tr><tr><td>Hemoglobin [Presence] in Urine by Test strip</td><td>Urine blood test = negative</td><td></td><td></td></tr><tr><td>Leukocyte esterase [Presence] in Urine by Test strip</td><td>Urine leukocyte test negative</td><td></td><td></td></tr></tbody></table></div>"
                },
                "title": "Urinalysis"
              },
              {
                "code": {
                  "coding": [
                    {
                      "code": "$LP7846-1",
                      "system": "http://loinc.org",
                      "display": "Specimen information"
                    }
                  ],
                  "text": "Specimen information"
                },
                "entry": [
                  {
                    "reference": "urn:uuid:07a46a7c-fd1d-4b27-bc74-4e3e741da108"
                  },
                  {
                    "reference": "urn:uuid:c6f0a642-d942-472c-ad75-c6fd092b8afe"
                  },
                  {
                    "reference": "urn:uuid:d3111a28-2f01-4975-abc4-f7ac11864d53"
                  },
                  {
                    "reference": "urn:uuid:5c035f2d-900e-412c-a22f-71679af0f3e4"
                  }
                ],
                "text": {
                  "status": "generated",
                  "div": "<div xmlns=\"http://www.w3.org/1999/xhtml\"><h3>Specimen information</h3><table class=\"hl7__eu__lab__report\"><thead><tr><th>Test</th><th>17-MAR-2022</th><th>Specimen</th><th></th></tr></thead><tbody><tr><td>Appearance of Urine</td><td>Cloudy urine</td><td>Urine</td><td></td></tr><tr><td>Odor of Urine</td><td>Urine smell ammoniacal</td><td>Urine</td><td></td></tr><tr><td>Clarity of Urine</td><td>Translucent</td><td>Urine</td><td></td></tr><tr><td>Color of Urine</td><td>Brown color</td><td>Urine</td><td></td></tr></tbody></table></div>"
                },
                "title": "Specimen information"
              }
            ],
            "title": "Laboratory Report"
          },
          {
            "text": {
              "status": "generated",
              "div": "<div xmlns=\"http://www.w3.org/1999/xhtml\"><h3>Annotation</h3><table class=\"hl7__eu__lab__report\"><tr><th>Conclusion and Recommendations based on this report and previous findings known to us</th></tr><tr><td>The patient shows mildly elevated creatinine, potassium, and chloride, suggesting possible renal impairment or dehydration. Urinalysis reveals proteinuria, glucosuria, ketonuria, low specific gravity, and abnormal urine appearance, raising concern for renal dysfunction and possible metabolic derangement. HbA1c is low, which may reflect anemia or recent hypoglycemia. No evidence of urinary tract infection. Recommend further evaluation of renal function, hydration status, and possible underlying metabolic or endocrine disorders.</td></tr></table></div>"
            },
            "code": {
              "coding": [
                {
                  "system": "http://loinc.org",
                  "code": "48767-8",
                  "display": "Annotation comment"
                }
              ]
            },
            "title": "Annotation comment"
          }
        ],
        "status": "final",
        "subject": {
          "reference": "urn:uuid:4a0d76d2-fe2d-4a7f-9e88-0664b370ebab",
          "display": "Pelayo Casal"
        },
        "date": "2022-03-17T06:38:59Z",
        "title": "Laboratory Report",
        "confidentiality": "N"
      }
    },
    {
      "fullUrl": "urn:uuid:e056c88b-94ea-4537-9913-d42aacb3513f",
      "resource": {
        "resourceType": "DiagnosticReport",
        "id": "e056c88b-94ea-4537-9913-d42aacb3513f",
        "meta": {
          "profile": [
            "http://hl7.eu/fhir/laboratory/StructureDefinition/DiagnosticReport-eu-lab"
          ]
        },
        "identifier": [
          {
            "assigner": {
              "display": "HL7 Europe"
            },
            "system": "urn:oid:2.16.840.1.113883.2.51.999",
            "value": "44b5ed54-b468-4625-bade-b8fb75afe329"
          }
        ],
        "extension": [
          {
            "url": "http://hl7.org/fhir/5.0/StructureDefinition/extension-DiagnosticReport.composition",
            "valueReference": {
              "reference": "urn:uuid:4f9988f6-527f-4ce8-b133-0c26d504f226"
            }
          }
        ],
        "category": [
          {
            "coding": [
              {
                "code": "26436-6",
                "system": "http://loinc.org",
                "display": "Laboratory studies (set)"
              }
            ]
          }
        ],
        "specimen": [
          {
            "reference": "urn:uuid:87b094ce-f479-4952-8ce8-dab512612cf4"
          },
          {
            "reference": "urn:uuid:e6b8dfd0-6cb5-4f93-8819-17824c9a1bf7"
          },
          {
            "reference": "urn:uuid:be864408-bfa7-4b1c-9a0c-9ea7b700d0ff"
          }
        ],
        "result": [
          {
            "reference": "urn:uuid:8a26782e-8bda-4582-81c3-2a791a764148"
          },
          {
            "reference": "urn:uuid:c5a508ca-40d6-4773-93e1-fde757fa6292"
          },
          {
            "reference": "urn:uuid:635794d4-e9cb-4d05-bd46-8c980d4dbcb7"
          },
          {
            "reference": "urn:uuid:314a8978-01e7-49cf-a98c-bfb2040e30aa"
          },
          {
            "reference": "urn:uuid:67a29794-6ad8-4d0b-a64b-96bf82916f0d"
          },
          {
            "reference": "urn:uuid:c9bd61f7-5e17-4afd-b0e1-73113ce9f8a8"
          },
          {
            "reference": "urn:uuid:2e5a3eb7-e026-4f98-9fc8-c83a36a7e5ec"
          },
          {
            "reference": "urn:uuid:66ec5202-8a9c-466f-9143-48bf30171065"
          },
          {
            "reference": "urn:uuid:07a46a7c-fd1d-4b27-bc74-4e3e741da108"
          },
          {
            "reference": "urn:uuid:c6f0a642-d942-472c-ad75-c6fd092b8afe"
          },
          {
            "reference": "urn:uuid:d3111a28-2f01-4975-abc4-f7ac11864d53"
          },
          {
            "reference": "urn:uuid:5c035f2d-900e-412c-a22f-71679af0f3e4"
          },
          {
            "reference": "urn:uuid:edc11b77-75cb-4e35-b31e-31edc802c05e"
          },
          {
            "reference": "urn:uuid:857df522-1949-43b5-9e3a-dcb66a8efa27"
          },
          {
            "reference": "urn:uuid:dcc69aab-a6ed-406d-9eff-28fbfeb0f0ed"
          },
          {
            "reference": "urn:uuid:5c711309-7940-4715-89b1-95724e9fea0b"
          },
          {
            "reference": "urn:uuid:399f753d-3c1b-4819-8566-451e09063dd0"
          },
          {
            "reference": "urn:uuid:abfc27a1-c38c-4b7b-bab5-893465288674"
          },
          {
            "reference": "urn:uuid:72d94b04-6204-4056-ae7f-b3a8f56cc62e"
          },
          {
            "reference": "urn:uuid:519fb8ff-9a9c-4567-8614-18369714d4b8"
          },
          {
            "reference": "urn:uuid:45edb8da-c2b0-496c-ba72-87954fab5706"
          },
          {
            "reference": "urn:uuid:b869b8c1-7336-46b1-bf7a-23345bc1c051"
          },
          {
            "reference": "urn:uuid:7b709b3b-eac6-49a5-916e-cd4ed06d2799"
          },
          {
            "reference": "urn:uuid:7474ff1d-4a61-4d49-bf5c-6349449806ea"
          },
          {
            "reference": "urn:uuid:5f292afa-22ea-4e87-adc9-7bec8aa20bd4"
          },
          {
            "reference": "urn:uuid:a6177830-f800-44fb-95cc-6d2ad495d651"
          },
          {
            "reference": "urn:uuid:e7f35875-8ff1-4c29-a3b4-bd431104b2d2"
          },
          {
            "reference": "urn:uuid:b95b169b-34a1-415c-9e72-cc861f5329ab"
          },
          {
            "reference": "urn:uuid:154474de-34e7-4692-8f88-98bf49dccfb8"
          },
          {
            "reference": "urn:uuid:12b4fc88-94ab-4874-a2be-81f9693d7b5a"
          },
          {
            "reference": "urn:uuid:c718d4a8-f240-4098-8666-81fcfcfcf9a7"
          },
          {
            "reference": "urn:uuid:7e128cee-167e-47b6-a47c-04c6aa78d209"
          },
          {
            "reference": "urn:uuid:15fdb7fb-ad21-4f0c-905a-b39dca0a59f8"
          },
          {
            "reference": "urn:uuid:3300907f-79f2-4387-8e89-bd15e20bc1cc"
          },
          {
            "reference": "urn:uuid:03fc6437-2565-412a-9db3-207f2fb10ec4"
          },
          {
            "reference": "urn:uuid:af0a5e97-f7d7-460d-9333-0d148155a23f"
          },
          {
            "reference": "urn:uuid:05d36679-da21-4ad6-8eb8-b720deeb7b1d"
          },
          {
            "reference": "urn:uuid:bac38825-3a83-4a3c-87d7-27143a12403c"
          }
        ],
        "status": "registered",
        "code": {
          "coding": [
            {
              "code": "11502-2",
              "system": "http://loinc.org",
              "display": "Laboratory report"
            }
          ]
        },
        "subject": {
          "reference": "urn:uuid:4a0d76d2-fe2d-4a7f-9e88-0664b370ebab",
          "display": "Pelayo Casal"
        }
      }
    },
    {
      "fullUrl": "urn:uuid:4a0d76d2-fe2d-4a7f-9e88-0664b370ebab",
      "resource": {
        "resourceType": "Patient",
        "id": "4a0d76d2-fe2d-4a7f-9e88-0664b370ebab",
        "meta": {
          "security": [
            {
              "system": "http://terminology.hl7.org/CodeSystem/v3-ActReason",
              "code": "HTEST"
            },
            {
              "system": "http://terminology.hl7.org/CodeSystem/v3-ActReason",
              "code": "TRAIN"
            }
          ],
          "tag": [
            {
              "system": "https://synderai.net/fhir/CodeSystem/tags",
              "code": "synthetic",
              "display": "SYNDERAI Synthetic data"
            }
          ],
          "profile": [
            "http://hl7.eu/fhir/base/StructureDefinition/patient-eu-core"
          ]
        },
        "identifier": [
          {
            "type": {
              "coding": [
                {
                  "code": "PT",
                  "system": "http://terminology.hl7.org/CodeSystem/v2-0203"
                }
              ]
            },
            "system": "http://ec.europa.eu/identifier/eci",
            "value": "7707-510028-7"
          },
          {
            "type": {
              "coding": [
                {
                  "code": "MR",
                  "system": "http://terminology.hl7.org/CodeSystem/v2-0203"
                }
              ]
            },
            "system": "http://local.setting.eu/identifier",
            "value": "d88e82c6-df33-82d2-8538-f8b57da06491"
          }
        ],
        "name": [
          {
            "family": "Casal"
          },
          {
            "given": [
              "Pelayo"
            ]
          },
          {
            "text": "Pelayo Casal"
          }
        ],
        "address": [
          {
            "line": [
              "Callejón de Ignacio Pedrosa 67 Apt. 68 "
            ],
            "use": "home",
            "type": "physical",
            "postalCode": "35001",
            "city": "Las Palmas",
            "country": "Spain"
          }
        ],
        "telecom": [
          {
            "system": "phone",
            "value": "+34 875724898"
          }
        ],
        "extension": [
          {
            "url": "http://hl7.org/fhir/StructureDefinition/patient-nationality",
            "valueCodeableConcept": {
              "coding": [
                {
                  "code": "ES",
                  "system": "http://hl7.org/fhir/ValueSet/country"
                }
              ]
            }
          }
        ],
        "text": {
          "status": "generated",
          "div": "<div xmlns=\"http://www.w3.org/1999/xhtml\"><table class=\"hl7__ips\"><tr><td>Pelayo Casal</td><td>male</td><td>19-Apr-1940</td></tr></table></div>"
        },
        "gender": "male",
        "birthDate": "1940-04-19"
      }
    },
    {
      "fullUrl": "urn:uuid:6921f954-bc16-47f8-9f8c-16e0fa7f9f40",
      "resource": {
        "resourceType": "ServiceRequest",
        "id": "6921f954-bc16-47f8-9f8c-16e0fa7f9f40",
        "meta": {
          "profile": [
            "http://hl7.eu/fhir/laboratory/StructureDefinition/ServiceRequest-eu-lab"
          ]
        },
        "identifier": [
          {
            "system": "http://example.org",
            "value": "f56f734b-b7ee-4c79-970d-8070ae9918a3"
          }
        ],
        "specimen": [
          {
            "reference": "urn:uuid:87b094ce-f479-4952-8ce8-dab512612cf4"
          },
          {
            "reference": "urn:uuid:e6b8dfd0-6cb5-4f93-8819-17824c9a1bf7"
          },
          {
            "reference": "urn:uuid:be864408-bfa7-4b1c-9a0c-9ea7b700d0ff"
          }
        ],
        "reasonCode": [
          {
            "coding": [
              {
                "code": "431856006",
                "system": "http://snomed.info/sct",
                "display": "Chronic kidney disease stage 2"
              }
            ]
          },
          {
            "coding": [
              {
                "code": "90781000119102",
                "system": "http://snomed.info/sct",
                "display": "Microalbuminuria due to type 2 diabetes mellitus"
              }
            ]
          },
          {
            "coding": [
              {
                "code": "127013003",
                "system": "http://snomed.info/sct",
                "display": "Disorder of kidney due to diabetes mellitus"
              }
            ]
          },
          {
            "coding": [
              {
                "code": "431855005",
                "system": "http://snomed.info/sct",
                "display": "Chronic kidney disease stage 1"
              }
            ]
          },
          {
            "coding": [
              {
                "code": "64859006",
                "system": "http://snomed.info/sct",
                "display": "Osteoporosis"
              }
            ]
          },
          {
            "coding": [
              {
                "code": "414545008",
                "system": "http://snomed.info/sct",
                "display": "Ischemic heart disease"
              }
            ]
          },
          {
            "coding": [
              {
                "code": "237602007",
                "system": "http://snomed.info/sct",
                "display": "Metabolic syndrome X"
              }
            ]
          },
          {
            "coding": [
              {
                "code": "59621000",
                "system": "http://snomed.info/sct",
                "display": "Essential hypertension"
              }
            ]
          },
          {
            "coding": [
              {
                "code": "271737000",
                "system": "http://snomed.info/sct",
                "display": "Anemia"
              }
            ]
          },
          {
            "coding": [
              {
                "code": "15777000",
                "system": "http://snomed.info/sct",
                "display": "Prediabetes"
              }
            ]
          }
        ],
        "status": "active",
        "intent": "order",
        "code": {
          "coding": [
            {
              "code": "108252007",
              "system": "http://snomed.info/sct",
              "display": "Laboratory procedure"
            }
          ]
        },
        "subject": {
          "reference": "urn:uuid:4a0d76d2-fe2d-4a7f-9e88-0664b370ebab",
          "display": "Pelayo Casal"
        },
        "requester": {
          "reference": "urn:uuid:b7ff1fb2-3af2-4be8-bfcf-70f4829e29de"
        }
      }
    },
    {
      "fullUrl": "urn:uuid:b7ff1fb2-3af2-4be8-bfcf-70f4829e29de",
      "resource": {
        "resourceType": "PractitionerRole",
        "id": "b7ff1fb2-3af2-4be8-bfcf-70f4829e29de",
        "meta": {
          "profile": [
            "http://hl7.eu/fhir/base/StructureDefinition/practitionerRole-eu"
          ]
        },
        "text": {
          "status": "generated",
          "div": "<div xmlns=\"http://www.w3.org/1999/xhtml\">Provider Role Id: b7ff1fb2-3af2-4be8-bfcf-70f4829e29de</div>"
        },
        "organization": {
          "reference": "urn:uuid:8b060188-350e-44f6-972f-662ca95e3aa7"
        }
      }
    },
    {
      "fullUrl": "urn:uuid:8b060188-350e-44f6-972f-662ca95e3aa7",
      "resource": {
        "resourceType": "Organization",
        "id": "8b060188-350e-44f6-972f-662ca95e3aa7",
        "meta": {
          "profile": [
            "http://hl7.eu/fhir/base/StructureDefinition/organization-eu"
          ]
        },
        "identifier": [
          {
            "assigner": {
              "display": "HL7 Europe"
            },
            "system": "urn:oid:2.16.840.1.113883.2.51.999",
            "value": "9d962d63-5eb3-4279-bbed-c1ff4136dfec"
          }
        ],
        "address": [
          {
            "country": "Spain"
          }
        ],
        "text": {
          "status": "generated",
          "div": "<div xmlns=\"http://www.w3.org/1999/xhtml\">Provider Organization: Centro de Salud de Guanarteme</div>"
        },
        "name": "Centro de Salud de Guanarteme"
      }
    },
    {
      "fullUrl": "urn:uuid:87b094ce-f479-4952-8ce8-dab512612cf4",
      "resource": {
        "resourceType": "Specimen",
        "id": "87b094ce-f479-4952-8ce8-dab512612cf4",
        "meta": {
          "profile": [
            "http://hl7.eu/fhir/laboratory/StructureDefinition/Specimen-eu-lab"
          ]
        },
        "collection": {
          "collectedDateTime": "2022-03-17"
        },
        "text": {
          "status": "generated",
          "div": "<div xmlns=\"http://www.w3.org/1999/xhtml\"><table class=\"hl7__eu__lab__report\"><tr><th>Specimen</th><th>Collection Date</th></tr><tr><td>Acellular blood (serum or plasma) specimen</td><td><span class=\"nb\">17-Mar-2022</span></td></tr></table></div>"
        },
        "type": {
          "coding": [
            {
              "code": "122592007",
              "system": "http://snomed.info/sct",
              "display": "Acellular blood (serum or plasma) specimen"
            }
          ]
        }
      }
    },
    {
      "fullUrl": "urn:uuid:e6b8dfd0-6cb5-4f93-8819-17824c9a1bf7",
      "resource": {
        "resourceType": "Specimen",
        "id": "e6b8dfd0-6cb5-4f93-8819-17824c9a1bf7",
        "meta": {
          "profile": [
            "http://hl7.eu/fhir/laboratory/StructureDefinition/Specimen-eu-lab"
          ]
        },
        "collection": {
          "collectedDateTime": "2022-03-17"
        },
        "text": {
          "status": "generated",
          "div": "<div xmlns=\"http://www.w3.org/1999/xhtml\"><table class=\"hl7__eu__lab__report\"><tr><th>Specimen</th><th>Collection Date</th></tr><tr><td>Urine specimen</td><td><span class=\"nb\">17-Mar-2022</span></td></tr></table></div>"
        },
        "type": {
          "coding": [
            {
              "code": "122575003",
              "system": "http://snomed.info/sct",
              "display": "Urine specimen"
            }
          ]
        }
      }
    },
    {
      "fullUrl": "urn:uuid:be864408-bfa7-4b1c-9a0c-9ea7b700d0ff",
      "resource": {
        "resourceType": "Specimen",
        "id": "be864408-bfa7-4b1c-9a0c-9ea7b700d0ff",
        "meta": {
          "profile": [
            "http://hl7.eu/fhir/laboratory/StructureDefinition/Specimen-eu-lab"
          ]
        },
        "collection": {
          "collectedDateTime": "2022-03-17"
        },
        "text": {
          "status": "generated",
          "div": "<div xmlns=\"http://www.w3.org/1999/xhtml\"><table class=\"hl7__eu__lab__report\"><tr><th>Specimen</th><th>Collection Date</th></tr><tr><td>Whole blood specimen (specimen)</td><td><span class=\"nb\">17-Mar-2022</span></td></tr></table></div>"
        },
        "type": {
          "coding": [
            {
              "code": "258580003",
              "system": "http://snomed.info/sct",
              "display": "Whole blood specimen (specimen)"
            }
          ]
        }
      }
    },
    {
      "fullUrl": "urn:uuid:8a26782e-8bda-4582-81c3-2a791a764148",
      "resource": {
        "resourceType": "Observation",
        "id": "8a26782e-8bda-4582-81c3-2a791a764148",
        "meta": {
          "profile": [
            "http://hl7.eu/fhir/laboratory/StructureDefinition/Observation-resultslab-eu-lab"
          ]
        },
        "performer": [
          {
            "display": "The Central European Lab"
          }
        ],
        "category": [
          {
            "coding": [
              {
                "system": "http://terminology.hl7.org/CodeSystem/observation-category",
                "code": "laboratory"
              }
            ]
          }
        ],
        "code": {
          "coding": [
            {
              "code": "2345-7",
              "system": "http://loinc.org",
              "display": "Glucose [Mass/volume] in Serum or Plasma"
            }
          ],
          "text": "Glucose [Mass/volume] in Serum or Plasma"
        },
        "valueQuantity": {
          "system": "http://unitsofmeasure.org",
          "value": 86.1,
          "unit": "mg/dL",
          "code": "mg/dL"
        },
        "referenceRange": [
          {
            "low": {
              "value": 70,
              "code": "mg/dL",
              "system": "http://unitsofmeasure.org"
            }
          },
          {
            "high": {
              "value": 140,
              "code": "mg/dL",
              "system": "http://unitsofmeasure.org"
            }
          }
        ],
        "text": {
          "status": "generated",
          "div": "<div xmlns=\"http://www.w3.org/1999/xhtml\"><table class=\"hl7__eu__lab__report\"><tr><th>Test</th><th>17-Mar-2022</th><th>Reference&#xA0;Range</th><th>Unit</th></tr><tr><td>Glucose [Mass/volume] in Serum or Plasma</td><td>86.1</td><td>70 - 140</td><td></td><td>mg/dL</td></tr></table></div>"
        },
        "status": "final",
        "subject": {
          "reference": "urn:uuid:4a0d76d2-fe2d-4a7f-9e88-0664b370ebab",
          "display": "Pelayo Casal"
        },
        "effectiveDateTime": "2022-03-17T05:38:59Z",
        "specimen": {
          "reference": "urn:uuid:87b094ce-f479-4952-8ce8-dab512612cf4"
        }
      }
    },
    {
      "fullUrl": "urn:uuid:c5a508ca-40d6-4773-93e1-fde757fa6292",
      "resource": {
        "resourceType": "Observation",
        "id": "c5a508ca-40d6-4773-93e1-fde757fa6292",
        "meta": {
          "profile": [
            "http://hl7.eu/fhir/laboratory/StructureDefinition/Observation-resultslab-eu-lab"
          ]
        },
        "performer": [
          {
            "display": "The Central European Lab"
          }
        ],
        "category": [
          {
            "coding": [
              {
                "system": "http://terminology.hl7.org/CodeSystem/observation-category",
                "code": "laboratory"
              }
            ]
          }
        ],
        "code": {
          "coding": [
            {
              "code": "3094-0",
              "system": "http://loinc.org",
              "display": "Urea nitrogen [Mass/volume] in Serum or Plasma"
            }
          ],
          "text": "Urea nitrogen [Mass/volume] in Serum or Plasma"
        },
        "valueQuantity": {
          "system": "http://unitsofmeasure.org",
          "value": 19.3,
          "unit": "mg/dL",
          "code": "mg/dL"
        },
        "referenceRange": [
          {
            "low": {
              "value": 7,
              "code": "mg/dL",
              "system": "http://unitsofmeasure.org"
            }
          },
          {
            "high": {
              "value": 25,
              "code": "mg/dL",
              "system": "http://unitsofmeasure.org"
            }
          }
        ],
        "text": {
          "status": "generated",
          "div": "<div xmlns=\"http://www.w3.org/1999/xhtml\"><table class=\"hl7__eu__lab__report\"><tr><th>Test</th><th>17-Mar-2022</th><th>Reference&#xA0;Range</th><th>Unit</th></tr><tr><td>Urea nitrogen [Mass/volume] in Serum or Plasma</td><td>19.3</td><td>7 - 25</td><td></td><td>mg/dL</td></tr></table></div>"
        },
        "status": "final",
        "subject": {
          "reference": "urn:uuid:4a0d76d2-fe2d-4a7f-9e88-0664b370ebab",
          "display": "Pelayo Casal"
        },
        "effectiveDateTime": "2022-03-17T05:38:59Z",
        "specimen": {
          "reference": "urn:uuid:87b094ce-f479-4952-8ce8-dab512612cf4"
        }
      }
    },
    {
      "fullUrl": "urn:uuid:635794d4-e9cb-4d05-bd46-8c980d4dbcb7",
      "resource": {
        "resourceType": "Observation",
        "id": "635794d4-e9cb-4d05-bd46-8c980d4dbcb7",
        "meta": {
          "profile": [
            "http://hl7.eu/fhir/laboratory/StructureDefinition/Observation-resultslab-eu-lab"
          ]
        },
        "performer": [
          {
            "display": "The Central European Lab"
          }
        ],
        "category": [
          {
            "coding": [
              {
                "system": "http://terminology.hl7.org/CodeSystem/observation-category",
                "code": "laboratory"
              }
            ]
          }
        ],
        "code": {
          "coding": [
            {
              "code": "2160-0",
              "system": "http://loinc.org",
              "display": "Creatinine [Mass/volume] in Serum or Plasma"
            }
          ],
          "text": "Creatinine [Mass/volume] in Serum or Plasma"
        },
        "valueQuantity": {
          "system": "http://unitsofmeasure.org",
          "value": 1.9,
          "unit": "mg/dL",
          "code": "mg/dL"
        },
        "referenceRange": [
          {
            "low": {
              "value": 0.9,
              "code": "mg/dL",
              "system": "http://unitsofmeasure.org"
            }
          },
          {
            "high": {
              "value": 1.3,
              "code": "mg/dL",
              "system": "http://unitsofmeasure.org"
            }
          }
        ],
        "interpretation": [
          {
            "coding": [
              {
                "code": "H",
                "system": "http://terminology.hl7.org/CodeSystem/v3-ObservationInterpretation",
                "display": "High"
              }
            ]
          }
        ],
        "text": {
          "status": "generated",
          "div": "<div xmlns=\"http://www.w3.org/1999/xhtml\"><table class=\"hl7__eu__lab__report\"><tr><th>Test</th><th>17-Mar-2022</th><th>Reference&#xA0;Range</th><th>Unit</th></tr><tr><td>Creatinine [Mass/volume] in Serum or Plasma</td><td>1.9</td><td>0.9 - 1.3</td><td>H</td><td>mg/dL</td></tr></table></div>"
        },
        "status": "final",
        "subject": {
          "reference": "urn:uuid:4a0d76d2-fe2d-4a7f-9e88-0664b370ebab",
          "display": "Pelayo Casal"
        },
        "effectiveDateTime": "2022-03-17T05:38:59Z",
        "specimen": {
          "reference": "urn:uuid:87b094ce-f479-4952-8ce8-dab512612cf4"
        }
      }
    },
    {
      "fullUrl": "urn:uuid:314a8978-01e7-49cf-a98c-bfb2040e30aa",
      "resource": {
        "resourceType": "Observation",
        "id": "314a8978-01e7-49cf-a98c-bfb2040e30aa",
        "meta": {
          "profile": [
            "http://hl7.eu/fhir/laboratory/StructureDefinition/Observation-resultslab-eu-lab"
          ]
        },
        "performer": [
          {
            "display": "The Central European Lab"
          }
        ],
        "category": [
          {
            "coding": [
              {
                "system": "http://terminology.hl7.org/CodeSystem/observation-category",
                "code": "laboratory"
              }
            ]
          }
        ],
        "code": {
          "coding": [
            {
              "code": "17861-6",
              "system": "http://loinc.org",
              "display": "Calcium [Mass/volume] in Serum or Plasma"
            }
          ],
          "text": "Calcium [Mass/volume] in Serum or Plasma"
        },
        "valueQuantity": {
          "system": "http://unitsofmeasure.org",
          "value": 9.2,
          "unit": "mg/dL",
          "code": "mg/dL"
        },
        "referenceRange": [
          {
            "low": {
              "value": 8.5,
              "code": "mg/dL",
              "system": "http://unitsofmeasure.org"
            }
          },
          {
            "high": {
              "value": 10.5,
              "code": "mg/dL",
              "system": "http://unitsofmeasure.org"
            }
          }
        ],
        "text": {
          "status": "generated",
          "div": "<div xmlns=\"http://www.w3.org/1999/xhtml\"><table class=\"hl7__eu__lab__report\"><tr><th>Test</th><th>17-Mar-2022</th><th>Reference&#xA0;Range</th><th>Unit</th></tr><tr><td>Calcium [Mass/volume] in Serum or Plasma</td><td>9.2</td><td>8.5 - 10.5</td><td></td><td>mg/dL</td></tr></table></div>"
        },
        "status": "final",
        "subject": {
          "reference": "urn:uuid:4a0d76d2-fe2d-4a7f-9e88-0664b370ebab",
          "display": "Pelayo Casal"
        },
        "effectiveDateTime": "2022-03-17T05:38:59Z",
        "specimen": {
          "reference": "urn:uuid:87b094ce-f479-4952-8ce8-dab512612cf4"
        }
      }
    },
    {
      "fullUrl": "urn:uuid:67a29794-6ad8-4d0b-a64b-96bf82916f0d",
      "resource": {
        "resourceType": "Observation",
        "id": "67a29794-6ad8-4d0b-a64b-96bf82916f0d",
        "meta": {
          "profile": [
            "http://hl7.eu/fhir/laboratory/StructureDefinition/Observation-resultslab-eu-lab"
          ]
        },
        "performer": [
          {
            "display": "The Central European Lab"
          }
        ],
        "category": [
          {
            "coding": [
              {
                "system": "http://terminology.hl7.org/CodeSystem/observation-category",
                "code": "laboratory"
              }
            ]
          }
        ],
        "code": {
          "coding": [
            {
              "code": "2951-2",
              "system": "http://loinc.org",
              "display": "Sodium [Moles/volume] in Serum or Plasma"
            }
          ],
          "text": "Sodium [Moles/volume] in Serum or Plasma"
        },
        "valueQuantity": {
          "system": "http://unitsofmeasure.org",
          "value": 136.2,
          "unit": "mmol/L",
          "code": "mmol/L"
        },
        "referenceRange": [
          {
            "low": {
              "value": 135,
              "code": "mmol/L",
              "system": "http://unitsofmeasure.org"
            }
          },
          {
            "high": {
              "value": 145,
              "code": "mmol/L",
              "system": "http://unitsofmeasure.org"
            }
          }
        ],
        "text": {
          "status": "generated",
          "div": "<div xmlns=\"http://www.w3.org/1999/xhtml\"><table class=\"hl7__eu__lab__report\"><tr><th>Test</th><th>17-Mar-2022</th><th>Reference&#xA0;Range</th><th>Unit</th></tr><tr><td>Sodium [Moles/volume] in Serum or Plasma</td><td>136.2</td><td>135 - 145</td><td></td><td>mmol/L</td></tr></table></div>"
        },
        "status": "final",
        "subject": {
          "reference": "urn:uuid:4a0d76d2-fe2d-4a7f-9e88-0664b370ebab",
          "display": "Pelayo Casal"
        },
        "effectiveDateTime": "2022-03-17T05:38:59Z",
        "specimen": {
          "reference": "urn:uuid:87b094ce-f479-4952-8ce8-dab512612cf4"
        }
      }
    },
    {
      "fullUrl": "urn:uuid:c9bd61f7-5e17-4afd-b0e1-73113ce9f8a8",
      "resource": {
        "resourceType": "Observation",
        "id": "c9bd61f7-5e17-4afd-b0e1-73113ce9f8a8",
        "meta": {
          "profile": [
            "http://hl7.eu/fhir/laboratory/StructureDefinition/Observation-resultslab-eu-lab"
          ]
        },
        "performer": [
          {
            "display": "The Central European Lab"
          }
        ],
        "category": [
          {
            "coding": [
              {
                "system": "http://terminology.hl7.org/CodeSystem/observation-category",
                "code": "laboratory"
              }
            ]
          }
        ],
        "code": {
          "coding": [
            {
              "code": "2823-3",
              "system": "http://loinc.org",
              "display": "Potassium [Moles/volume] in Serum or Plasma"
            }
          ],
          "text": "Potassium [Moles/volume] in Serum or Plasma"
        },
        "valueQuantity": {
          "system": "http://unitsofmeasure.org",
          "value": 5.2,
          "unit": "mmol/L",
          "code": "mmol/L"
        },
        "referenceRange": [
          {
            "low": {
              "value": 3.5,
              "code": "mmol/L",
              "system": "http://unitsofmeasure.org"
            }
          },
          {
            "high": {
              "value": 5.3,
              "code": "mmol/L",
              "system": "http://unitsofmeasure.org"
            }
          }
        ],
        "text": {
          "status": "generated",
          "div": "<div xmlns=\"http://www.w3.org/1999/xhtml\"><table class=\"hl7__eu__lab__report\"><tr><th>Test</th><th>17-Mar-2022</th><th>Reference&#xA0;Range</th><th>Unit</th></tr><tr><td>Potassium [Moles/volume] in Serum or Plasma</td><td>5.2</td><td>3.5 - 5.3</td><td></td><td>mmol/L</td></tr></table></div>"
        },
        "status": "final",
        "subject": {
          "reference": "urn:uuid:4a0d76d2-fe2d-4a7f-9e88-0664b370ebab",
          "display": "Pelayo Casal"
        },
        "effectiveDateTime": "2022-03-17T05:38:59Z",
        "specimen": {
          "reference": "urn:uuid:87b094ce-f479-4952-8ce8-dab512612cf4"
        }
      }
    },
    {
      "fullUrl": "urn:uuid:2e5a3eb7-e026-4f98-9fc8-c83a36a7e5ec",
      "resource": {
        "resourceType": "Observation",
        "id": "2e5a3eb7-e026-4f98-9fc8-c83a36a7e5ec",
        "meta": {
          "profile": [
            "http://hl7.eu/fhir/laboratory/StructureDefinition/Observation-resultslab-eu-lab"
          ]
        },
        "performer": [
          {
            "display": "The Central European Lab"
          }
        ],
        "category": [
          {
            "coding": [
              {
                "system": "http://terminology.hl7.org/CodeSystem/observation-category",
                "code": "laboratory"
              }
            ]
          }
        ],
        "code": {
          "coding": [
            {
              "code": "2075-0",
              "system": "http://loinc.org",
              "display": "Chloride [Moles/volume] in Serum or Plasma"
            }
          ],
          "text": "Chloride [Moles/volume] in Serum or Plasma"
        },
        "valueQuantity": {
          "system": "http://unitsofmeasure.org",
          "value": 110.4,
          "unit": "mmol/L",
          "code": "mmol/L"
        },
        "referenceRange": [
          {
            "low": {
              "value": 98,
              "code": "mmol/L",
              "system": "http://unitsofmeasure.org"
            }
          },
          {
            "high": {
              "value": 107,
              "code": "mmol/L",
              "system": "http://unitsofmeasure.org"
            }
          }
        ],
        "interpretation": [
          {
            "coding": [
              {
                "code": "H",
                "system": "http://terminology.hl7.org/CodeSystem/v3-ObservationInterpretation",
                "display": "High"
              }
            ]
          }
        ],
        "text": {
          "status": "generated",
          "div": "<div xmlns=\"http://www.w3.org/1999/xhtml\"><table class=\"hl7__eu__lab__report\"><tr><th>Test</th><th>17-Mar-2022</th><th>Reference&#xA0;Range</th><th>Unit</th></tr><tr><td>Chloride [Moles/volume] in Serum or Plasma</td><td>110.4</td><td>98 - 107</td><td>H</td><td>mmol/L</td></tr></table></div>"
        },
        "status": "final",
        "subject": {
          "reference": "urn:uuid:4a0d76d2-fe2d-4a7f-9e88-0664b370ebab",
          "display": "Pelayo Casal"
        },
        "effectiveDateTime": "2022-03-17T05:38:59Z",
        "specimen": {
          "reference": "urn:uuid:87b094ce-f479-4952-8ce8-dab512612cf4"
        }
      }
    },
    {
      "fullUrl": "urn:uuid:66ec5202-8a9c-466f-9143-48bf30171065",
      "resource": {
        "resourceType": "Observation",
        "id": "66ec5202-8a9c-466f-9143-48bf30171065",
        "meta": {
          "profile": [
            "http://hl7.eu/fhir/laboratory/StructureDefinition/Observation-resultslab-eu-lab"
          ]
        },
        "performer": [
          {
            "display": "The Central European Lab"
          }
        ],
        "category": [
          {
            "coding": [
              {
                "system": "http://terminology.hl7.org/CodeSystem/observation-category",
                "code": "laboratory"
              }
            ]
          }
        ],
        "code": {
          "coding": [
            {
              "code": "2028-9",
              "system": "http://loinc.org",
              "display": "Carbon dioxide, total [Moles/volume] in Serum or Plasma"
            }
          ],
          "text": "Carbon dioxide, total [Moles/volume] in Serum or Plasma"
        },
        "valueQuantity": {
          "system": "http://unitsofmeasure.org",
          "value": 26.2,
          "unit": "mmol/L",
          "code": "mmol/L"
        },
        "referenceRange": [
          {
            "low": {
              "value": 22,
              "code": "mmol/L",
              "system": "http://unitsofmeasure.org"
            }
          },
          {
            "high": {
              "value": 29,
              "code": "mmol/L",
              "system": "http://unitsofmeasure.org"
            }
          }
        ],
        "text": {
          "status": "generated",
          "div": "<div xmlns=\"http://www.w3.org/1999/xhtml\"><table class=\"hl7__eu__lab__report\"><tr><th>Test</th><th>17-Mar-2022</th><th>Reference&#xA0;Range</th><th>Unit</th></tr><tr><td>Carbon dioxide, total [Moles/volume] in Serum or Plasma</td><td>26.2</td><td>22 - 29</td><td></td><td>mmol/L</td></tr></table></div>"
        },
        "status": "final",
        "subject": {
          "reference": "urn:uuid:4a0d76d2-fe2d-4a7f-9e88-0664b370ebab",
          "display": "Pelayo Casal"
        },
        "effectiveDateTime": "2022-03-17T05:38:59Z",
        "specimen": {
          "reference": "urn:uuid:87b094ce-f479-4952-8ce8-dab512612cf4"
        }
      }
    },
    {
      "fullUrl": "urn:uuid:07a46a7c-fd1d-4b27-bc74-4e3e741da108",
      "resource": {
        "resourceType": "Observation",
        "id": "07a46a7c-fd1d-4b27-bc74-4e3e741da108",
        "meta": {
          "profile": [
            "http://hl7.eu/fhir/laboratory/StructureDefinition/Observation-resultslab-eu-lab"
          ]
        },
        "performer": [
          {
            "display": "The Central European Lab"
          }
        ],
        "category": [
          {
            "coding": [
              {
                "system": "http://terminology.hl7.org/CodeSystem/observation-category",
                "code": "laboratory"
              }
            ]
          }
        ],
        "code": {
          "coding": [
            {
              "code": "5767-9",
              "system": "http://loinc.org",
              "display": "Appearance of Urine"
            }
          ],
          "text": "Appearance of Urine"
        },
        "text": {
          "status": "generated",
          "div": "<div xmlns=\"http://www.w3.org/1999/xhtml\"><table class=\"hl7__eu__lab__report\"><tr><th>Test</th><th>17-Mar-2022</th><th>Reference&#xA0;Range</th><th>Unit</th></tr><tr><td>Appearance of Urine</td></tr></table></div>"
        },
        "status": "final",
        "subject": {
          "reference": "urn:uuid:4a0d76d2-fe2d-4a7f-9e88-0664b370ebab",
          "display": "Pelayo Casal"
        },
        "effectiveDateTime": "2022-03-17T05:38:59Z",
        "specimen": {
          "reference": "urn:uuid:e6b8dfd0-6cb5-4f93-8819-17824c9a1bf7"
        }
      }
    },
    {
      "fullUrl": "urn:uuid:c6f0a642-d942-472c-ad75-c6fd092b8afe",
      "resource": {
        "resourceType": "Observation",
        "id": "c6f0a642-d942-472c-ad75-c6fd092b8afe",
        "meta": {
          "profile": [
            "http://hl7.eu/fhir/laboratory/StructureDefinition/Observation-resultslab-eu-lab"
          ]
        },
        "performer": [
          {
            "display": "The Central European Lab"
          }
        ],
        "category": [
          {
            "coding": [
              {
                "system": "http://terminology.hl7.org/CodeSystem/observation-category",
                "code": "laboratory"
              }
            ]
          }
        ],
        "code": {
          "coding": [
            {
              "code": "34533-0",
              "system": "http://loinc.org",
              "display": "Odor of Urine"
            }
          ],
          "text": "Odor of Urine"
        },
        "text": {
          "status": "generated",
          "div": "<div xmlns=\"http://www.w3.org/1999/xhtml\"><table class=\"hl7__eu__lab__report\"><tr><th>Test</th><th>17-Mar-2022</th><th>Reference&#xA0;Range</th><th>Unit</th></tr><tr><td>Odor of Urine</td></tr></table></div>"
        },
        "status": "final",
        "subject": {
          "reference": "urn:uuid:4a0d76d2-fe2d-4a7f-9e88-0664b370ebab",
          "display": "Pelayo Casal"
        },
        "effectiveDateTime": "2022-03-17T05:38:59Z",
        "specimen": {
          "reference": "urn:uuid:e6b8dfd0-6cb5-4f93-8819-17824c9a1bf7"
        }
      }
    },
    {
      "fullUrl": "urn:uuid:d3111a28-2f01-4975-abc4-f7ac11864d53",
      "resource": {
        "resourceType": "Observation",
        "id": "d3111a28-2f01-4975-abc4-f7ac11864d53",
        "meta": {
          "profile": [
            "http://hl7.eu/fhir/laboratory/StructureDefinition/Observation-resultslab-eu-lab"
          ]
        },
        "performer": [
          {
            "display": "The Central European Lab"
          }
        ],
        "category": [
          {
            "coding": [
              {
                "system": "http://terminology.hl7.org/CodeSystem/observation-category",
                "code": "laboratory"
              }
            ]
          }
        ],
        "code": {
          "coding": [
            {
              "code": "32167-9",
              "system": "http://loinc.org",
              "display": "Clarity of Urine"
            }
          ],
          "text": "Clarity of Urine"
        },
        "text": {
          "status": "generated",
          "div": "<div xmlns=\"http://www.w3.org/1999/xhtml\"><table class=\"hl7__eu__lab__report\"><tr><th>Test</th><th>17-Mar-2022</th><th>Reference&#xA0;Range</th><th>Unit</th></tr><tr><td>Clarity of Urine</td></tr></table></div>"
        },
        "status": "final",
        "subject": {
          "reference": "urn:uuid:4a0d76d2-fe2d-4a7f-9e88-0664b370ebab",
          "display": "Pelayo Casal"
        },
        "effectiveDateTime": "2022-03-17T05:38:59Z",
        "specimen": {
          "reference": "urn:uuid:e6b8dfd0-6cb5-4f93-8819-17824c9a1bf7"
        }
      }
    },
    {
      "fullUrl": "urn:uuid:5c035f2d-900e-412c-a22f-71679af0f3e4",
      "resource": {
        "resourceType": "Observation",
        "id": "5c035f2d-900e-412c-a22f-71679af0f3e4",
        "meta": {
          "profile": [
            "http://hl7.eu/fhir/laboratory/StructureDefinition/Observation-resultslab-eu-lab"
          ]
        },
        "performer": [
          {
            "display": "The Central European Lab"
          }
        ],
        "category": [
          {
            "coding": [
              {
                "system": "http://terminology.hl7.org/CodeSystem/observation-category",
                "code": "laboratory"
              }
            ]
          }
        ],
        "code": {
          "coding": [
            {
              "code": "5778-6",
              "system": "http://loinc.org",
              "display": "Color of Urine"
            }
          ],
          "text": "Color of Urine"
        },
        "text": {
          "status": "generated",
          "div": "<div xmlns=\"http://www.w3.org/1999/xhtml\"><table class=\"hl7__eu__lab__report\"><tr><th>Test</th><th>17-Mar-2022</th><th>Reference&#xA0;Range</th><th>Unit</th></tr><tr><td>Color of Urine</td></tr></table></div>"
        },
        "status": "final",
        "subject": {
          "reference": "urn:uuid:4a0d76d2-fe2d-4a7f-9e88-0664b370ebab",
          "display": "Pelayo Casal"
        },
        "effectiveDateTime": "2022-03-17T05:38:59Z",
        "specimen": {
          "reference": "urn:uuid:e6b8dfd0-6cb5-4f93-8819-17824c9a1bf7"
        }
      }
    },
    {
      "fullUrl": "urn:uuid:edc11b77-75cb-4e35-b31e-31edc802c05e",
      "resource": {
        "resourceType": "Observation",
        "id": "edc11b77-75cb-4e35-b31e-31edc802c05e",
        "meta": {
          "profile": [
            "http://hl7.eu/fhir/laboratory/StructureDefinition/Observation-resultslab-eu-lab"
          ]
        },
        "performer": [
          {
            "display": "The Central European Lab"
          }
        ],
        "category": [
          {
            "coding": [
              {
                "system": "http://terminology.hl7.org/CodeSystem/observation-category",
                "code": "laboratory"
              }
            ]
          }
        ],
        "code": {
          "coding": [
            {
              "code": "5792-7",
              "system": "http://loinc.org",
              "display": "Glucose [Mass/volume] in Urine by Test strip"
            }
          ],
          "text": "Glucose [Mass/volume] in Urine by Test strip"
        },
        "valueQuantity": {
          "system": "http://unitsofmeasure.org",
          "value": 1,
          "unit": "mg/dL",
          "code": "mg/dL"
        },
        "referenceRange": [
          {
            "low": {
              "value": 0.8,
              "code": "mg/dL",
              "system": "http://unitsofmeasure.org"
            }
          },
          {
            "high": {
              "value": 0,
              "code": "mg/dL",
              "system": "http://unitsofmeasure.org"
            }
          }
        ],
        "interpretation": [
          {
            "coding": [
              {
                "code": "H",
                "system": "http://terminology.hl7.org/CodeSystem/v3-ObservationInterpretation",
                "display": "High"
              }
            ]
          }
        ],
        "text": {
          "status": "generated",
          "div": "<div xmlns=\"http://www.w3.org/1999/xhtml\"><table class=\"hl7__eu__lab__report\"><tr><th>Test</th><th>17-Mar-2022</th><th>Reference&#xA0;Range</th><th>Unit</th></tr><tr><td>Glucose [Mass/volume] in Urine by Test strip</td><td>1.0</td><td>0.8 - 0</td><td>H</td><td>mg/dL</td></tr></table></div>"
        },
        "status": "final",
        "subject": {
          "reference": "urn:uuid:4a0d76d2-fe2d-4a7f-9e88-0664b370ebab",
          "display": "Pelayo Casal"
        },
        "effectiveDateTime": "2022-03-17T05:38:59Z",
        "specimen": {
          "reference": "urn:uuid:e6b8dfd0-6cb5-4f93-8819-17824c9a1bf7"
        }
      }
    },
    {
      "fullUrl": "urn:uuid:857df522-1949-43b5-9e3a-dcb66a8efa27",
      "resource": {
        "resourceType": "Observation",
        "id": "857df522-1949-43b5-9e3a-dcb66a8efa27",
        "meta": {
          "profile": [
            "http://hl7.eu/fhir/laboratory/StructureDefinition/Observation-resultslab-eu-lab"
          ]
        },
        "performer": [
          {
            "display": "The Central European Lab"
          }
        ],
        "category": [
          {
            "coding": [
              {
                "system": "http://terminology.hl7.org/CodeSystem/observation-category",
                "code": "laboratory"
              }
            ]
          }
        ],
        "code": {
          "coding": [
            {
              "code": "25428-4",
              "system": "http://loinc.org",
              "display": "Glucose [Presence] in Urine by Test strip"
            }
          ],
          "text": "Glucose [Presence] in Urine by Test strip"
        },
        "text": {
          "status": "generated",
          "div": "<div xmlns=\"http://www.w3.org/1999/xhtml\"><table class=\"hl7__eu__lab__report\"><tr><th>Test</th><th>17-Mar-2022</th><th>Reference&#xA0;Range</th><th>Unit</th></tr><tr><td>Glucose [Presence] in Urine by Test strip</td></tr></table></div>"
        },
        "status": "final",
        "subject": {
          "reference": "urn:uuid:4a0d76d2-fe2d-4a7f-9e88-0664b370ebab",
          "display": "Pelayo Casal"
        },
        "effectiveDateTime": "2022-03-17T05:38:59Z",
        "specimen": {
          "reference": "urn:uuid:e6b8dfd0-6cb5-4f93-8819-17824c9a1bf7"
        }
      }
    },
    {
      "fullUrl": "urn:uuid:dcc69aab-a6ed-406d-9eff-28fbfeb0f0ed",
      "resource": {
        "resourceType": "Observation",
        "id": "dcc69aab-a6ed-406d-9eff-28fbfeb0f0ed",
        "meta": {
          "profile": [
            "http://hl7.eu/fhir/laboratory/StructureDefinition/Observation-resultslab-eu-lab"
          ]
        },
        "performer": [
          {
            "display": "The Central European Lab"
          }
        ],
        "category": [
          {
            "coding": [
              {
                "system": "http://terminology.hl7.org/CodeSystem/observation-category",
                "code": "laboratory"
              }
            ]
          }
        ],
        "code": {
          "coding": [
            {
              "code": "20505-4",
              "system": "http://loinc.org",
              "display": "Bilirubin.total [Mass/volume] in Urine by Test strip"
            }
          ],
          "text": "Bilirubin.total [Mass/volume] in Urine by Test strip"
        },
        "valueQuantity": {
          "system": "http://unitsofmeasure.org",
          "value": 1.1,
          "unit": "mg/dL",
          "code": "mg/dL"
        },
        "referenceRange": [
          {
            "low": {
              "value": 0.2,
              "code": "mg/dL",
              "system": "http://unitsofmeasure.org"
            }
          },
          {
            "high": {
              "value": 1.5,
              "code": "mg/dL",
              "system": "http://unitsofmeasure.org"
            }
          }
        ],
        "text": {
          "status": "generated",
          "div": "<div xmlns=\"http://www.w3.org/1999/xhtml\"><table class=\"hl7__eu__lab__report\"><tr><th>Test</th><th>17-Mar-2022</th><th>Reference&#xA0;Range</th><th>Unit</th></tr><tr><td>Bilirubin.total [Mass/volume] in Urine by Test strip</td><td>1.1</td><td>0.2 - 1.5</td><td></td><td>mg/dL</td></tr></table></div>"
        },
        "status": "final",
        "subject": {
          "reference": "urn:uuid:4a0d76d2-fe2d-4a7f-9e88-0664b370ebab",
          "display": "Pelayo Casal"
        },
        "effectiveDateTime": "2022-03-17T05:38:59Z",
        "specimen": {
          "reference": "urn:uuid:e6b8dfd0-6cb5-4f93-8819-17824c9a1bf7"
        }
      }
    },
    {
      "fullUrl": "urn:uuid:5c711309-7940-4715-89b1-95724e9fea0b",
      "resource": {
        "resourceType": "Observation",
        "id": "5c711309-7940-4715-89b1-95724e9fea0b",
        "meta": {
          "profile": [
            "http://hl7.eu/fhir/laboratory/StructureDefinition/Observation-resultslab-eu-lab"
          ]
        },
        "performer": [
          {
            "display": "The Central European Lab"
          }
        ],
        "category": [
          {
            "coding": [
              {
                "system": "http://terminology.hl7.org/CodeSystem/observation-category",
                "code": "laboratory"
              }
            ]
          }
        ],
        "code": {
          "coding": [
            {
              "code": "5770-3",
              "system": "http://loinc.org",
              "display": "Bilirubin.total [Presence] in Urine by Test strip"
            }
          ],
          "text": "Bilirubin.total [Presence] in Urine by Test strip"
        },
        "text": {
          "status": "generated",
          "div": "<div xmlns=\"http://www.w3.org/1999/xhtml\"><table class=\"hl7__eu__lab__report\"><tr><th>Test</th><th>17-Mar-2022</th><th>Reference&#xA0;Range</th><th>Unit</th></tr><tr><td>Bilirubin.total [Presence] in Urine by Test strip</td></tr></table></div>"
        },
        "status": "final",
        "subject": {
          "reference": "urn:uuid:4a0d76d2-fe2d-4a7f-9e88-0664b370ebab",
          "display": "Pelayo Casal"
        },
        "effectiveDateTime": "2022-03-17T05:38:59Z",
        "specimen": {
          "reference": "urn:uuid:e6b8dfd0-6cb5-4f93-8819-17824c9a1bf7"
        }
      }
    },
    {
      "fullUrl": "urn:uuid:399f753d-3c1b-4819-8566-451e09063dd0",
      "resource": {
        "resourceType": "Observation",
        "id": "399f753d-3c1b-4819-8566-451e09063dd0",
        "meta": {
          "profile": [
            "http://hl7.eu/fhir/laboratory/StructureDefinition/Observation-resultslab-eu-lab"
          ]
        },
        "performer": [
          {
            "display": "The Central European Lab"
          }
        ],
        "category": [
          {
            "coding": [
              {
                "system": "http://terminology.hl7.org/CodeSystem/observation-category",
                "code": "laboratory"
              }
            ]
          }
        ],
        "code": {
          "coding": [
            {
              "code": "5797-6",
              "system": "http://loinc.org",
              "display": "Ketones [Mass/volume] in Urine by Test strip"
            }
          ],
          "text": "Ketones [Mass/volume] in Urine by Test strip"
        },
        "valueQuantity": {
          "system": "http://unitsofmeasure.org",
          "value": 16.2,
          "unit": "mg/dL",
          "code": "mg/dL"
        },
        "referenceRange": [
          {
            "low": {
              "value": 0,
              "code": "mg/dL",
              "system": "http://unitsofmeasure.org"
            }
          },
          {
            "high": {
              "value": 4,
              "code": "mg/dL",
              "system": "http://unitsofmeasure.org"
            }
          }
        ],
        "interpretation": [
          {
            "coding": [
              {
                "code": "H",
                "system": "http://terminology.hl7.org/CodeSystem/v3-ObservationInterpretation",
                "display": "High"
              }
            ]
          }
        ],
        "text": {
          "status": "generated",
          "div": "<div xmlns=\"http://www.w3.org/1999/xhtml\"><table class=\"hl7__eu__lab__report\"><tr><th>Test</th><th>17-Mar-2022</th><th>Reference&#xA0;Range</th><th>Unit</th></tr><tr><td>Ketones [Mass/volume] in Urine by Test strip</td><td>16.2</td><td>0 - 4</td><td>H</td><td>mg/dL</td></tr></table></div>"
        },
        "status": "final",
        "subject": {
          "reference": "urn:uuid:4a0d76d2-fe2d-4a7f-9e88-0664b370ebab",
          "display": "Pelayo Casal"
        },
        "effectiveDateTime": "2022-03-17T05:38:59Z",
        "specimen": {
          "reference": "urn:uuid:e6b8dfd0-6cb5-4f93-8819-17824c9a1bf7"
        }
      }
    },
    {
      "fullUrl": "urn:uuid:abfc27a1-c38c-4b7b-bab5-893465288674",
      "resource": {
        "resourceType": "Observation",
        "id": "abfc27a1-c38c-4b7b-bab5-893465288674",
        "meta": {
          "profile": [
            "http://hl7.eu/fhir/laboratory/StructureDefinition/Observation-resultslab-eu-lab"
          ]
        },
        "performer": [
          {
            "display": "The Central European Lab"
          }
        ],
        "category": [
          {
            "coding": [
              {
                "system": "http://terminology.hl7.org/CodeSystem/observation-category",
                "code": "laboratory"
              }
            ]
          }
        ],
        "code": {
          "coding": [
            {
              "code": "2514-8",
              "system": "http://loinc.org",
              "display": "Ketones [Presence] in Urine by Test strip"
            }
          ],
          "text": "Ketones [Presence] in Urine by Test strip"
        },
        "text": {
          "status": "generated",
          "div": "<div xmlns=\"http://www.w3.org/1999/xhtml\"><table class=\"hl7__eu__lab__report\"><tr><th>Test</th><th>17-Mar-2022</th><th>Reference&#xA0;Range</th><th>Unit</th></tr><tr><td>Ketones [Presence] in Urine by Test strip</td></tr></table></div>"
        },
        "status": "final",
        "subject": {
          "reference": "urn:uuid:4a0d76d2-fe2d-4a7f-9e88-0664b370ebab",
          "display": "Pelayo Casal"
        },
        "effectiveDateTime": "2022-03-17T05:38:59Z",
        "specimen": {
          "reference": "urn:uuid:e6b8dfd0-6cb5-4f93-8819-17824c9a1bf7"
        }
      }
    },
    {
      "fullUrl": "urn:uuid:72d94b04-6204-4056-ae7f-b3a8f56cc62e",
      "resource": {
        "resourceType": "Observation",
        "id": "72d94b04-6204-4056-ae7f-b3a8f56cc62e",
        "meta": {
          "profile": [
            "http://hl7.eu/fhir/laboratory/StructureDefinition/Observation-resultslab-eu-lab"
          ]
        },
        "performer": [
          {
            "display": "The Central European Lab"
          }
        ],
        "category": [
          {
            "coding": [
              {
                "system": "http://terminology.hl7.org/CodeSystem/observation-category",
                "code": "laboratory"
              }
            ]
          }
        ],
        "code": {
          "coding": [
            {
              "code": "5811-5",
              "system": "http://loinc.org",
              "display": "Specific gravity of Urine by Test strip"
            }
          ],
          "text": "Specific gravity of Urine by Test strip"
        },
        "valueQuantity": {
          "system": "http://unitsofmeasure.org",
          "value": 1,
          "unit": "{nominal}",
          "code": "{nominal}"
        },
        "referenceRange": [
          {
            "low": {
              "value": 1.01,
              "code": "g/mL",
              "system": "http://unitsofmeasure.org"
            }
          },
          {
            "high": {
              "value": 1.03,
              "code": "g/mL",
              "system": "http://unitsofmeasure.org"
            }
          }
        ],
        "interpretation": [
          {
            "coding": [
              {
                "code": "L",
                "system": "http://terminology.hl7.org/CodeSystem/v3-ObservationInterpretation",
                "display": "Low"
              }
            ]
          }
        ],
        "text": {
          "status": "generated",
          "div": "<div xmlns=\"http://www.w3.org/1999/xhtml\"><table class=\"hl7__eu__lab__report\"><tr><th>Test</th><th>17-Mar-2022</th><th>Reference&#xA0;Range</th><th>Unit</th></tr><tr><td>Specific gravity of Urine by Test strip</td><td>1.0</td><td>1.01 - 1.03</td><td>L</td><td>{nominal}</td></tr></table></div>"
        },
        "status": "final",
        "subject": {
          "reference": "urn:uuid:4a0d76d2-fe2d-4a7f-9e88-0664b370ebab",
          "display": "Pelayo Casal"
        },
        "effectiveDateTime": "2022-03-17T05:38:59Z",
        "specimen": {
          "reference": "urn:uuid:e6b8dfd0-6cb5-4f93-8819-17824c9a1bf7"
        }
      }
    },
    {
      "fullUrl": "urn:uuid:519fb8ff-9a9c-4567-8614-18369714d4b8",
      "resource": {
        "resourceType": "Observation",
        "id": "519fb8ff-9a9c-4567-8614-18369714d4b8",
        "meta": {
          "profile": [
            "http://hl7.eu/fhir/laboratory/StructureDefinition/Observation-resultslab-eu-lab"
          ]
        },
        "performer": [
          {
            "display": "The Central European Lab"
          }
        ],
        "category": [
          {
            "coding": [
              {
                "system": "http://terminology.hl7.org/CodeSystem/observation-category",
                "code": "laboratory"
              }
            ]
          }
        ],
        "code": {
          "coding": [
            {
              "code": "5803-2",
              "system": "http://loinc.org",
              "display": "pH of Urine by Test strip"
            }
          ],
          "text": "pH of Urine by Test strip"
        },
        "valueQuantity": {
          "system": "http://unitsofmeasure.org",
          "value": 6.6,
          "unit": "pH",
          "code": "pH"
        },
        "referenceRange": [
          {
            "low": {
              "value": 4.5,
              "code": "pH",
              "system": "http://unitsofmeasure.org"
            }
          },
          {
            "high": {
              "value": 7.5,
              "code": "pH",
              "system": "http://unitsofmeasure.org"
            }
          }
        ],
        "text": {
          "status": "generated",
          "div": "<div xmlns=\"http://www.w3.org/1999/xhtml\"><table class=\"hl7__eu__lab__report\"><tr><th>Test</th><th>17-Mar-2022</th><th>Reference&#xA0;Range</th><th>Unit</th></tr><tr><td>pH of Urine by Test strip</td><td>6.6</td><td>4.5 - 7.5</td><td></td><td>pH</td></tr></table></div>"
        },
        "status": "final",
        "subject": {
          "reference": "urn:uuid:4a0d76d2-fe2d-4a7f-9e88-0664b370ebab",
          "display": "Pelayo Casal"
        },
        "effectiveDateTime": "2022-03-17T05:38:59Z",
        "specimen": {
          "reference": "urn:uuid:e6b8dfd0-6cb5-4f93-8819-17824c9a1bf7"
        }
      }
    },
    {
      "fullUrl": "urn:uuid:45edb8da-c2b0-496c-ba72-87954fab5706",
      "resource": {
        "resourceType": "Observation",
        "id": "45edb8da-c2b0-496c-ba72-87954fab5706",
        "meta": {
          "profile": [
            "http://hl7.eu/fhir/laboratory/StructureDefinition/Observation-resultslab-eu-lab"
          ]
        },
        "performer": [
          {
            "display": "The Central European Lab"
          }
        ],
        "category": [
          {
            "coding": [
              {
                "system": "http://terminology.hl7.org/CodeSystem/observation-category",
                "code": "laboratory"
              }
            ]
          }
        ],
        "code": {
          "coding": [
            {
              "code": "5804-0",
              "system": "http://loinc.org",
              "display": "Protein [Mass/volume] in Urine by Test strip"
            }
          ],
          "text": "Protein [Mass/volume] in Urine by Test strip"
        },
        "valueQuantity": {
          "system": "http://unitsofmeasure.org",
          "value": 339.2,
          "unit": "mg/dL",
          "code": "mg/dL"
        },
        "referenceRange": [
          {
            "low": {
              "value": 0,
              "code": "mg/dL",
              "system": "http://unitsofmeasure.org"
            }
          },
          {
            "high": {
              "value": 150,
              "code": "mg/dL",
              "system": "http://unitsofmeasure.org"
            }
          }
        ],
        "interpretation": [
          {
            "coding": [
              {
                "code": "H",
                "system": "http://terminology.hl7.org/CodeSystem/v3-ObservationInterpretation",
                "display": "High"
              }
            ]
          }
        ],
        "text": {
          "status": "generated",
          "div": "<div xmlns=\"http://www.w3.org/1999/xhtml\"><table class=\"hl7__eu__lab__report\"><tr><th>Test</th><th>17-Mar-2022</th><th>Reference&#xA0;Range</th><th>Unit</th></tr><tr><td>Protein [Mass/volume] in Urine by Test strip</td><td>339.2</td><td>0 - 150</td><td>H</td><td>mg/dL</td></tr></table></div>"
        },
        "status": "final",
        "subject": {
          "reference": "urn:uuid:4a0d76d2-fe2d-4a7f-9e88-0664b370ebab",
          "display": "Pelayo Casal"
        },
        "effectiveDateTime": "2022-03-17T05:38:59Z",
        "specimen": {
          "reference": "urn:uuid:e6b8dfd0-6cb5-4f93-8819-17824c9a1bf7"
        }
      }
    },
    {
      "fullUrl": "urn:uuid:b869b8c1-7336-46b1-bf7a-23345bc1c051",
      "resource": {
        "resourceType": "Observation",
        "id": "b869b8c1-7336-46b1-bf7a-23345bc1c051",
        "meta": {
          "profile": [
            "http://hl7.eu/fhir/laboratory/StructureDefinition/Observation-resultslab-eu-lab"
          ]
        },
        "performer": [
          {
            "display": "The Central European Lab"
          }
        ],
        "category": [
          {
            "coding": [
              {
                "system": "http://terminology.hl7.org/CodeSystem/observation-category",
                "code": "laboratory"
              }
            ]
          }
        ],
        "code": {
          "coding": [
            {
              "code": "20454-5",
              "system": "http://loinc.org",
              "display": "Protein [Presence] in Urine by Test strip"
            }
          ],
          "text": "Protein [Presence] in Urine by Test strip"
        },
        "text": {
          "status": "generated",
          "div": "<div xmlns=\"http://www.w3.org/1999/xhtml\"><table class=\"hl7__eu__lab__report\"><tr><th>Test</th><th>17-Mar-2022</th><th>Reference&#xA0;Range</th><th>Unit</th></tr><tr><td>Protein [Presence] in Urine by Test strip</td></tr></table></div>"
        },
        "status": "final",
        "subject": {
          "reference": "urn:uuid:4a0d76d2-fe2d-4a7f-9e88-0664b370ebab",
          "display": "Pelayo Casal"
        },
        "effectiveDateTime": "2022-03-17T05:38:59Z",
        "specimen": {
          "reference": "urn:uuid:e6b8dfd0-6cb5-4f93-8819-17824c9a1bf7"
        }
      }
    },
    {
      "fullUrl": "urn:uuid:7b709b3b-eac6-49a5-916e-cd4ed06d2799",
      "resource": {
        "resourceType": "Observation",
        "id": "7b709b3b-eac6-49a5-916e-cd4ed06d2799",
        "meta": {
          "profile": [
            "http://hl7.eu/fhir/laboratory/StructureDefinition/Observation-resultslab-eu-lab"
          ]
        },
        "performer": [
          {
            "display": "The Central European Lab"
          }
        ],
        "category": [
          {
            "coding": [
              {
                "system": "http://terminology.hl7.org/CodeSystem/observation-category",
                "code": "laboratory"
              }
            ]
          }
        ],
        "code": {
          "coding": [
            {
              "code": "5802-4",
              "system": "http://loinc.org",
              "display": "Nitrite [Presence] in Urine by Test strip"
            }
          ],
          "text": "Nitrite [Presence] in Urine by Test strip"
        },
        "text": {
          "status": "generated",
          "div": "<div xmlns=\"http://www.w3.org/1999/xhtml\"><table class=\"hl7__eu__lab__report\"><tr><th>Test</th><th>17-Mar-2022</th><th>Reference&#xA0;Range</th><th>Unit</th></tr><tr><td>Nitrite [Presence] in Urine by Test strip</td></tr></table></div>"
        },
        "status": "final",
        "subject": {
          "reference": "urn:uuid:4a0d76d2-fe2d-4a7f-9e88-0664b370ebab",
          "display": "Pelayo Casal"
        },
        "effectiveDateTime": "2022-03-17T05:38:59Z",
        "specimen": {
          "reference": "urn:uuid:e6b8dfd0-6cb5-4f93-8819-17824c9a1bf7"
        }
      }
    },
    {
      "fullUrl": "urn:uuid:7474ff1d-4a61-4d49-bf5c-6349449806ea",
      "resource": {
        "resourceType": "Observation",
        "id": "7474ff1d-4a61-4d49-bf5c-6349449806ea",
        "meta": {
          "profile": [
            "http://hl7.eu/fhir/laboratory/StructureDefinition/Observation-resultslab-eu-lab"
          ]
        },
        "performer": [
          {
            "display": "The Central European Lab"
          }
        ],
        "category": [
          {
            "coding": [
              {
                "system": "http://terminology.hl7.org/CodeSystem/observation-category",
                "code": "laboratory"
              }
            ]
          }
        ],
        "code": {
          "coding": [
            {
              "code": "5794-3",
              "system": "http://loinc.org",
              "display": "Hemoglobin [Presence] in Urine by Test strip"
            }
          ],
          "text": "Hemoglobin [Presence] in Urine by Test strip"
        },
        "text": {
          "status": "generated",
          "div": "<div xmlns=\"http://www.w3.org/1999/xhtml\"><table class=\"hl7__eu__lab__report\"><tr><th>Test</th><th>17-Mar-2022</th><th>Reference&#xA0;Range</th><th>Unit</th></tr><tr><td>Hemoglobin [Presence] in Urine by Test strip</td></tr></table></div>"
        },
        "status": "final",
        "subject": {
          "reference": "urn:uuid:4a0d76d2-fe2d-4a7f-9e88-0664b370ebab",
          "display": "Pelayo Casal"
        },
        "effectiveDateTime": "2022-03-17T05:38:59Z",
        "specimen": {
          "reference": "urn:uuid:e6b8dfd0-6cb5-4f93-8819-17824c9a1bf7"
        }
      }
    },
    {
      "fullUrl": "urn:uuid:5f292afa-22ea-4e87-adc9-7bec8aa20bd4",
      "resource": {
        "resourceType": "Observation",
        "id": "5f292afa-22ea-4e87-adc9-7bec8aa20bd4",
        "meta": {
          "profile": [
            "http://hl7.eu/fhir/laboratory/StructureDefinition/Observation-resultslab-eu-lab"
          ]
        },
        "performer": [
          {
            "display": "The Central European Lab"
          }
        ],
        "category": [
          {
            "coding": [
              {
                "system": "http://terminology.hl7.org/CodeSystem/observation-category",
                "code": "laboratory"
              }
            ]
          }
        ],
        "code": {
          "coding": [
            {
              "code": "5799-2",
              "system": "http://loinc.org",
              "display": "Leukocyte esterase [Presence] in Urine by Test strip"
            }
          ],
          "text": "Leukocyte esterase [Presence] in Urine by Test strip"
        },
        "text": {
          "status": "generated",
          "div": "<div xmlns=\"http://www.w3.org/1999/xhtml\"><table class=\"hl7__eu__lab__report\"><tr><th>Test</th><th>17-Mar-2022</th><th>Reference&#xA0;Range</th><th>Unit</th></tr><tr><td>Leukocyte esterase [Presence] in Urine by Test strip</td></tr></table></div>"
        },
        "status": "final",
        "subject": {
          "reference": "urn:uuid:4a0d76d2-fe2d-4a7f-9e88-0664b370ebab",
          "display": "Pelayo Casal"
        },
        "effectiveDateTime": "2022-03-17T05:38:59Z",
        "specimen": {
          "reference": "urn:uuid:e6b8dfd0-6cb5-4f93-8819-17824c9a1bf7"
        }
      }
    },
    {
      "fullUrl": "urn:uuid:a6177830-f800-44fb-95cc-6d2ad495d651",
      "resource": {
        "resourceType": "Observation",
        "id": "a6177830-f800-44fb-95cc-6d2ad495d651",
        "meta": {
          "profile": [
            "http://hl7.eu/fhir/laboratory/StructureDefinition/Observation-resultslab-eu-lab"
          ]
        },
        "performer": [
          {
            "display": "The Central European Lab"
          }
        ],
        "category": [
          {
            "coding": [
              {
                "system": "http://terminology.hl7.org/CodeSystem/observation-category",
                "code": "laboratory"
              }
            ]
          }
        ],
        "code": {
          "coding": [
            {
              "code": "4548-4",
              "system": "http://loinc.org",
              "display": "Hemoglobin A1c/Hemoglobin.total in Blood"
            }
          ],
          "text": "Hemoglobin A1c/Hemoglobin.total in Blood"
        },
        "valueQuantity": {
          "system": "http://unitsofmeasure.org",
          "value": 3,
          "unit": "%",
          "code": "%"
        },
        "referenceRange": [
          {
            "low": {
              "value": 4.5,
              "code": "%",
              "system": "http://unitsofmeasure.org"
            }
          },
          {
            "high": {
              "value": 6.4,
              "code": "%",
              "system": "http://unitsofmeasure.org"
            }
          }
        ],
        "interpretation": [
          {
            "coding": [
              {
                "code": "L",
                "system": "http://terminology.hl7.org/CodeSystem/v3-ObservationInterpretation",
                "display": "Low"
              }
            ]
          }
        ],
        "text": {
          "status": "generated",
          "div": "<div xmlns=\"http://www.w3.org/1999/xhtml\"><table class=\"hl7__eu__lab__report\"><tr><th>Test</th><th>17-Mar-2022</th><th>Reference&#xA0;Range</th><th>Unit</th></tr><tr><td>Hemoglobin A1c/Hemoglobin.total in Blood</td><td>3.0</td><td>4.5 - 6.4</td><td>L</td><td>%</td></tr></table></div>"
        },
        "status": "final",
        "subject": {
          "reference": "urn:uuid:4a0d76d2-fe2d-4a7f-9e88-0664b370ebab",
          "display": "Pelayo Casal"
        },
        "effectiveDateTime": "2022-03-17T05:38:59Z",
        "specimen": {
          "reference": "urn:uuid:be864408-bfa7-4b1c-9a0c-9ea7b700d0ff"
        }
      }
    },
    {
      "fullUrl": "urn:uuid:e7f35875-8ff1-4c29-a3b4-bd431104b2d2",
      "resource": {
        "resourceType": "Observation",
        "id": "e7f35875-8ff1-4c29-a3b4-bd431104b2d2",
        "meta": {
          "profile": [
            "http://hl7.eu/fhir/laboratory/StructureDefinition/Observation-resultslab-eu-lab"
          ]
        },
        "performer": [
          {
            "display": "The Central European Lab"
          }
        ],
        "category": [
          {
            "coding": [
              {
                "system": "http://terminology.hl7.org/CodeSystem/observation-category",
                "code": "laboratory"
              }
            ]
          }
        ],
        "code": {
          "coding": [
            {
              "code": "2339-0",
              "system": "http://loinc.org",
              "display": "Glucose [Mass/volume] in Blood"
            }
          ],
          "text": "Glucose [Mass/volume] in Blood"
        },
        "valueQuantity": {
          "system": "http://unitsofmeasure.org",
          "value": 86.1,
          "unit": "mg/dL",
          "code": "mg/dL"
        },
        "referenceRange": [
          {
            "low": {
              "value": 70,
              "code": "mg/dL",
              "system": "http://unitsofmeasure.org"
            }
          },
          {
            "high": {
              "value": 140,
              "code": "mg/dL",
              "system": "http://unitsofmeasure.org"
            }
          }
        ],
        "text": {
          "status": "generated",
          "div": "<div xmlns=\"http://www.w3.org/1999/xhtml\"><table class=\"hl7__eu__lab__report\"><tr><th>Test</th><th>17-Mar-2022</th><th>Reference&#xA0;Range</th><th>Unit</th></tr><tr><td>Glucose [Mass/volume] in Blood</td><td>86.1</td><td>70 - 140</td><td></td><td>mg/dL</td></tr></table></div>"
        },
        "status": "final",
        "subject": {
          "reference": "urn:uuid:4a0d76d2-fe2d-4a7f-9e88-0664b370ebab",
          "display": "Pelayo Casal"
        },
        "effectiveDateTime": "2022-03-17T05:38:59Z",
        "specimen": {
          "reference": "urn:uuid:be864408-bfa7-4b1c-9a0c-9ea7b700d0ff"
        }
      }
    },
    {
      "fullUrl": "urn:uuid:b95b169b-34a1-415c-9e72-cc861f5329ab",
      "resource": {
        "resourceType": "Observation",
        "id": "b95b169b-34a1-415c-9e72-cc861f5329ab",
        "meta": {
          "profile": [
            "http://hl7.eu/fhir/laboratory/StructureDefinition/Observation-resultslab-eu-lab"
          ]
        },
        "performer": [
          {
            "display": "The Central European Lab"
          }
        ],
        "category": [
          {
            "coding": [
              {
                "system": "http://terminology.hl7.org/CodeSystem/observation-category",
                "code": "laboratory"
              }
            ]
          }
        ],
        "code": {
          "coding": [
            {
              "code": "6299-2",
              "system": "http://loinc.org",
              "display": "Urea nitrogen [Mass/volume] in Blood"
            }
          ],
          "text": "Urea nitrogen [Mass/volume] in Blood"
        },
        "valueQuantity": {
          "system": "http://unitsofmeasure.org",
          "value": 19.3,
          "unit": "mg/dL",
          "code": "mg/dL"
        },
        "referenceRange": [
          {
            "low": {
              "value": 7,
              "code": "mg/dL",
              "system": "http://unitsofmeasure.org"
            }
          },
          {
            "high": {
              "value": 25,
              "code": "mg/dL",
              "system": "http://unitsofmeasure.org"
            }
          }
        ],
        "text": {
          "status": "generated",
          "div": "<div xmlns=\"http://www.w3.org/1999/xhtml\"><table class=\"hl7__eu__lab__report\"><tr><th>Test</th><th>17-Mar-2022</th><th>Reference&#xA0;Range</th><th>Unit</th></tr><tr><td>Urea nitrogen [Mass/volume] in Blood</td><td>19.3</td><td>7 - 25</td><td></td><td>mg/dL</td></tr></table></div>"
        },
        "status": "final",
        "subject": {
          "reference": "urn:uuid:4a0d76d2-fe2d-4a7f-9e88-0664b370ebab",
          "display": "Pelayo Casal"
        },
        "effectiveDateTime": "2022-03-17T05:38:59Z",
        "specimen": {
          "reference": "urn:uuid:be864408-bfa7-4b1c-9a0c-9ea7b700d0ff"
        }
      }
    },
    {
      "fullUrl": "urn:uuid:154474de-34e7-4692-8f88-98bf49dccfb8",
      "resource": {
        "resourceType": "Observation",
        "id": "154474de-34e7-4692-8f88-98bf49dccfb8",
        "meta": {
          "profile": [
            "http://hl7.eu/fhir/laboratory/StructureDefinition/Observation-resultslab-eu-lab"
          ]
        },
        "performer": [
          {
            "display": "The Central European Lab"
          }
        ],
        "category": [
          {
            "coding": [
              {
                "system": "http://terminology.hl7.org/CodeSystem/observation-category",
                "code": "laboratory"
              }
            ]
          }
        ],
        "code": {
          "coding": [
            {
              "code": "38483-4",
              "system": "http://loinc.org",
              "display": "Creatinine [Mass/volume] in Blood"
            }
          ],
          "text": "Creatinine [Mass/volume] in Blood"
        },
        "valueQuantity": {
          "system": "http://unitsofmeasure.org",
          "value": 1.6,
          "unit": "mg/dL",
          "code": "mg/dL"
        },
        "referenceRange": [
          {
            "low": {
              "value": 0.9,
              "code": "mg/dL",
              "system": "http://unitsofmeasure.org"
            }
          },
          {
            "high": {
              "value": 1.3,
              "code": "mg/dL",
              "system": "http://unitsofmeasure.org"
            }
          }
        ],
        "interpretation": [
          {
            "coding": [
              {
                "code": "H",
                "system": "http://terminology.hl7.org/CodeSystem/v3-ObservationInterpretation",
                "display": "High"
              }
            ]
          }
        ],
        "text": {
          "status": "generated",
          "div": "<div xmlns=\"http://www.w3.org/1999/xhtml\"><table class=\"hl7__eu__lab__report\"><tr><th>Test</th><th>17-Mar-2022</th><th>Reference&#xA0;Range</th><th>Unit</th></tr><tr><td>Creatinine [Mass/volume] in Blood</td><td>1.6</td><td>0.9 - 1.3</td><td>H</td><td>mg/dL</td></tr></table></div>"
        },
        "status": "final",
        "subject": {
          "reference": "urn:uuid:4a0d76d2-fe2d-4a7f-9e88-0664b370ebab",
          "display": "Pelayo Casal"
        },
        "effectiveDateTime": "2022-03-17T05:38:59Z",
        "specimen": {
          "reference": "urn:uuid:be864408-bfa7-4b1c-9a0c-9ea7b700d0ff"
        }
      }
    },
    {
      "fullUrl": "urn:uuid:12b4fc88-94ab-4874-a2be-81f9693d7b5a",
      "resource": {
        "resourceType": "Observation",
        "id": "12b4fc88-94ab-4874-a2be-81f9693d7b5a",
        "meta": {
          "profile": [
            "http://hl7.eu/fhir/laboratory/StructureDefinition/Observation-resultslab-eu-lab"
          ]
        },
        "performer": [
          {
            "display": "The Central European Lab"
          }
        ],
        "category": [
          {
            "coding": [
              {
                "system": "http://terminology.hl7.org/CodeSystem/observation-category",
                "code": "laboratory"
              }
            ]
          }
        ],
        "code": {
          "coding": [
            {
              "code": "49765-1",
              "system": "http://loinc.org",
              "display": "Calcium [Mass/volume] in Blood"
            }
          ],
          "text": "Calcium [Mass/volume] in Blood"
        },
        "valueQuantity": {
          "system": "http://unitsofmeasure.org",
          "value": 9.2,
          "unit": "mg/dL",
          "code": "mg/dL"
        },
        "referenceRange": [
          {
            "low": {
              "value": 8.6,
              "code": "mg/dL",
              "system": "http://unitsofmeasure.org"
            }
          },
          {
            "high": {
              "value": 10.2,
              "code": "mg/dL",
              "system": "http://unitsofmeasure.org"
            }
          }
        ],
        "text": {
          "status": "generated",
          "div": "<div xmlns=\"http://www.w3.org/1999/xhtml\"><table class=\"hl7__eu__lab__report\"><tr><th>Test</th><th>17-Mar-2022</th><th>Reference&#xA0;Range</th><th>Unit</th></tr><tr><td>Calcium [Mass/volume] in Blood</td><td>9.2</td><td>8.6 - 10.2</td><td></td><td>mg/dL</td></tr></table></div>"
        },
        "status": "final",
        "subject": {
          "reference": "urn:uuid:4a0d76d2-fe2d-4a7f-9e88-0664b370ebab",
          "display": "Pelayo Casal"
        },
        "effectiveDateTime": "2022-03-17T05:38:59Z",
        "specimen": {
          "reference": "urn:uuid:be864408-bfa7-4b1c-9a0c-9ea7b700d0ff"
        }
      }
    },
    {
      "fullUrl": "urn:uuid:c718d4a8-f240-4098-8666-81fcfcfcf9a7",
      "resource": {
        "resourceType": "Observation",
        "id": "c718d4a8-f240-4098-8666-81fcfcfcf9a7",
        "meta": {
          "profile": [
            "http://hl7.eu/fhir/laboratory/StructureDefinition/Observation-resultslab-eu-lab"
          ]
        },
        "performer": [
          {
            "display": "The Central European Lab"
          }
        ],
        "category": [
          {
            "coding": [
              {
                "system": "http://terminology.hl7.org/CodeSystem/observation-category",
                "code": "laboratory"
              }
            ]
          }
        ],
        "code": {
          "coding": [
            {
              "code": "2947-0",
              "system": "http://loinc.org",
              "display": "Sodium [Moles/volume] in Blood"
            }
          ],
          "text": "Sodium [Moles/volume] in Blood"
        },
        "valueQuantity": {
          "system": "http://unitsofmeasure.org",
          "value": 136.2,
          "unit": "mmol/L",
          "code": "mmol/L"
        },
        "referenceRange": [
          {
            "low": {
              "value": 135,
              "code": "mmol/L",
              "system": "http://unitsofmeasure.org"
            }
          },
          {
            "high": {
              "value": 145,
              "code": "mmol/L",
              "system": "http://unitsofmeasure.org"
            }
          }
        ],
        "text": {
          "status": "generated",
          "div": "<div xmlns=\"http://www.w3.org/1999/xhtml\"><table class=\"hl7__eu__lab__report\"><tr><th>Test</th><th>17-Mar-2022</th><th>Reference&#xA0;Range</th><th>Unit</th></tr><tr><td>Sodium [Moles/volume] in Blood</td><td>136.2</td><td>135 - 145</td><td></td><td>mmol/L</td></tr></table></div>"
        },
        "status": "final",
        "subject": {
          "reference": "urn:uuid:4a0d76d2-fe2d-4a7f-9e88-0664b370ebab",
          "display": "Pelayo Casal"
        },
        "effectiveDateTime": "2022-03-17T05:38:59Z",
        "specimen": {
          "reference": "urn:uuid:be864408-bfa7-4b1c-9a0c-9ea7b700d0ff"
        }
      }
    },
    {
      "fullUrl": "urn:uuid:7e128cee-167e-47b6-a47c-04c6aa78d209",
      "resource": {
        "resourceType": "Observation",
        "id": "7e128cee-167e-47b6-a47c-04c6aa78d209",
        "meta": {
          "profile": [
            "http://hl7.eu/fhir/laboratory/StructureDefinition/Observation-resultslab-eu-lab"
          ]
        },
        "performer": [
          {
            "display": "The Central European Lab"
          }
        ],
        "category": [
          {
            "coding": [
              {
                "system": "http://terminology.hl7.org/CodeSystem/observation-category",
                "code": "laboratory"
              }
            ]
          }
        ],
        "code": {
          "coding": [
            {
              "code": "6298-4",
              "system": "http://loinc.org",
              "display": "Potassium [Moles/volume] in Blood"
            }
          ],
          "text": "Potassium [Moles/volume] in Blood"
        },
        "valueQuantity": {
          "system": "http://unitsofmeasure.org",
          "value": 5.2,
          "unit": "mmol/L",
          "code": "mmol/L"
        },
        "referenceRange": [
          {
            "low": {
              "value": 3.5,
              "code": "mmol/L",
              "system": "http://unitsofmeasure.org"
            }
          },
          {
            "high": {
              "value": 5.1,
              "code": "mmol/L",
              "system": "http://unitsofmeasure.org"
            }
          }
        ],
        "interpretation": [
          {
            "coding": [
              {
                "code": "H",
                "system": "http://terminology.hl7.org/CodeSystem/v3-ObservationInterpretation",
                "display": "High"
              }
            ]
          }
        ],
        "text": {
          "status": "generated",
          "div": "<div xmlns=\"http://www.w3.org/1999/xhtml\"><table class=\"hl7__eu__lab__report\"><tr><th>Test</th><th>17-Mar-2022</th><th>Reference&#xA0;Range</th><th>Unit</th></tr><tr><td>Potassium [Moles/volume] in Blood</td><td>5.2</td><td>3.5 - 5.1</td><td>H</td><td>mmol/L</td></tr></table></div>"
        },
        "status": "final",
        "subject": {
          "reference": "urn:uuid:4a0d76d2-fe2d-4a7f-9e88-0664b370ebab",
          "display": "Pelayo Casal"
        },
        "effectiveDateTime": "2022-03-17T05:38:59Z",
        "specimen": {
          "reference": "urn:uuid:be864408-bfa7-4b1c-9a0c-9ea7b700d0ff"
        }
      }
    },
    {
      "fullUrl": "urn:uuid:15fdb7fb-ad21-4f0c-905a-b39dca0a59f8",
      "resource": {
        "resourceType": "Observation",
        "id": "15fdb7fb-ad21-4f0c-905a-b39dca0a59f8",
        "meta": {
          "profile": [
            "http://hl7.eu/fhir/laboratory/StructureDefinition/Observation-resultslab-eu-lab"
          ]
        },
        "performer": [
          {
            "display": "The Central European Lab"
          }
        ],
        "category": [
          {
            "coding": [
              {
                "system": "http://terminology.hl7.org/CodeSystem/observation-category",
                "code": "laboratory"
              }
            ]
          }
        ],
        "code": {
          "coding": [
            {
              "code": "2069-3",
              "system": "http://loinc.org",
              "display": "Chloride [Moles/volume] in Blood"
            }
          ],
          "text": "Chloride [Moles/volume] in Blood"
        },
        "valueQuantity": {
          "system": "http://unitsofmeasure.org",
          "value": 110.4,
          "unit": "mmol/L",
          "code": "mmol/L"
        },
        "referenceRange": [
          {
            "low": {
              "value": 98,
              "code": "mmol/L",
              "system": "http://unitsofmeasure.org"
            }
          },
          {
            "high": {
              "value": 108,
              "code": "mmol/L",
              "system": "http://unitsofmeasure.org"
            }
          }
        ],
        "interpretation": [
          {
            "coding": [
              {
                "code": "H",
                "system": "http://terminology.hl7.org/CodeSystem/v3-ObservationInterpretation",
                "display": "High"
              }
            ]
          }
        ],
        "text": {
          "status": "generated",
          "div": "<div xmlns=\"http://www.w3.org/1999/xhtml\"><table class=\"hl7__eu__lab__report\"><tr><th>Test</th><th>17-Mar-2022</th><th>Reference&#xA0;Range</th><th>Unit</th></tr><tr><td>Chloride [Moles/volume] in Blood</td><td>110.4</td><td>98 - 108</td><td>H</td><td>mmol/L</td></tr></table></div>"
        },
        "status": "final",
        "subject": {
          "reference": "urn:uuid:4a0d76d2-fe2d-4a7f-9e88-0664b370ebab",
          "display": "Pelayo Casal"
        },
        "effectiveDateTime": "2022-03-17T05:38:59Z",
        "specimen": {
          "reference": "urn:uuid:be864408-bfa7-4b1c-9a0c-9ea7b700d0ff"
        }
      }
    },
    {
      "fullUrl": "urn:uuid:3300907f-79f2-4387-8e89-bd15e20bc1cc",
      "resource": {
        "resourceType": "Observation",
        "id": "3300907f-79f2-4387-8e89-bd15e20bc1cc",
        "meta": {
          "profile": [
            "http://hl7.eu/fhir/laboratory/StructureDefinition/Observation-resultslab-eu-lab"
          ]
        },
        "performer": [
          {
            "display": "The Central European Lab"
          }
        ],
        "category": [
          {
            "coding": [
              {
                "system": "http://terminology.hl7.org/CodeSystem/observation-category",
                "code": "laboratory"
              }
            ]
          }
        ],
        "code": {
          "coding": [
            {
              "code": "20565-8",
              "system": "http://loinc.org",
              "display": "Carbon dioxide, total [Moles/volume] in Blood"
            }
          ],
          "text": "Carbon dioxide, total [Moles/volume] in Blood"
        },
        "valueQuantity": {
          "system": "http://unitsofmeasure.org",
          "value": 26.2,
          "unit": "mmol/L",
          "code": "mmol/L"
        },
        "referenceRange": [
          {
            "low": {
              "value": 22,
              "code": "mmol/L",
              "system": "http://unitsofmeasure.org"
            }
          },
          {
            "high": {
              "value": 32,
              "code": "mmol/L",
              "system": "http://unitsofmeasure.org"
            }
          }
        ],
        "text": {
          "status": "generated",
          "div": "<div xmlns=\"http://www.w3.org/1999/xhtml\"><table class=\"hl7__eu__lab__report\"><tr><th>Test</th><th>17-Mar-2022</th><th>Reference&#xA0;Range</th><th>Unit</th></tr><tr><td>Carbon dioxide, total [Moles/volume] in Blood</td><td>26.2</td><td>22 - 32</td><td></td><td>mmol/L</td></tr></table></div>"
        },
        "status": "final",
        "subject": {
          "reference": "urn:uuid:4a0d76d2-fe2d-4a7f-9e88-0664b370ebab",
          "display": "Pelayo Casal"
        },
        "effectiveDateTime": "2022-03-17T05:38:59Z",
        "specimen": {
          "reference": "urn:uuid:be864408-bfa7-4b1c-9a0c-9ea7b700d0ff"
        }
      }
    },
    {
      "fullUrl": "urn:uuid:03fc6437-2565-412a-9db3-207f2fb10ec4",
      "resource": {
        "resourceType": "Observation",
        "id": "03fc6437-2565-412a-9db3-207f2fb10ec4",
        "meta": {
          "profile": [
            "http://hl7.eu/fhir/laboratory/StructureDefinition/Observation-resultslab-eu-lab"
          ]
        },
        "performer": [
          {
            "display": "The Central European Lab"
          }
        ],
        "category": [
          {
            "coding": [
              {
                "system": "http://terminology.hl7.org/CodeSystem/observation-category",
                "code": "laboratory"
              }
            ]
          }
        ],
        "code": {
          "coding": [
            {
              "code": "2093-3",
              "system": "http://loinc.org",
              "display": "Cholesterol [Mass/volume] in Serum or Plasma"
            }
          ],
          "text": "Cholesterol [Mass/volume] in Serum or Plasma"
        },
        "valueQuantity": {
          "system": "http://unitsofmeasure.org",
          "value": 115.1,
          "unit": "mg/dL",
          "code": "mg/dL"
        },
        "referenceRange": [
          {
            "low": {
              "value": 0,
              "code": "mg/dL",
              "system": "http://unitsofmeasure.org"
            }
          },
          {
            "high": {
              "value": 200,
              "code": "mg/dL",
              "system": "http://unitsofmeasure.org"
            }
          }
        ],
        "text": {
          "status": "generated",
          "div": "<div xmlns=\"http://www.w3.org/1999/xhtml\"><table class=\"hl7__eu__lab__report\"><tr><th>Test</th><th>17-Mar-2022</th><th>Reference&#xA0;Range</th><th>Unit</th></tr><tr><td>Cholesterol [Mass/volume] in Serum or Plasma</td><td>115.1</td><td>0 - 200</td><td></td><td>mg/dL</td></tr></table></div>"
        },
        "status": "final",
        "subject": {
          "reference": "urn:uuid:4a0d76d2-fe2d-4a7f-9e88-0664b370ebab",
          "display": "Pelayo Casal"
        },
        "effectiveDateTime": "2022-03-17T05:38:59Z",
        "specimen": {
          "reference": "urn:uuid:87b094ce-f479-4952-8ce8-dab512612cf4"
        }
      }
    },
    {
      "fullUrl": "urn:uuid:af0a5e97-f7d7-460d-9333-0d148155a23f",
      "resource": {
        "resourceType": "Observation",
        "id": "af0a5e97-f7d7-460d-9333-0d148155a23f",
        "meta": {
          "profile": [
            "http://hl7.eu/fhir/laboratory/StructureDefinition/Observation-resultslab-eu-lab"
          ]
        },
        "performer": [
          {
            "display": "The Central European Lab"
          }
        ],
        "category": [
          {
            "coding": [
              {
                "system": "http://terminology.hl7.org/CodeSystem/observation-category",
                "code": "laboratory"
              }
            ]
          }
        ],
        "code": {
          "coding": [
            {
              "code": "2571-8",
              "system": "http://loinc.org",
              "display": "Triglyceride [Mass/volume] in Serum or Plasma"
            }
          ],
          "text": "Triglyceride [Mass/volume] in Serum or Plasma"
        },
        "valueQuantity": {
          "system": "http://unitsofmeasure.org",
          "value": 132.8,
          "unit": "mg/dL",
          "code": "mg/dL"
        },
        "referenceRange": [
          {
            "low": {
              "value": 0,
              "code": "mg/dL",
              "system": "http://unitsofmeasure.org"
            }
          },
          {
            "high": {
              "value": 199,
              "code": "mg/dL",
              "system": "http://unitsofmeasure.org"
            }
          }
        ],
        "text": {
          "status": "generated",
          "div": "<div xmlns=\"http://www.w3.org/1999/xhtml\"><table class=\"hl7__eu__lab__report\"><tr><th>Test</th><th>17-Mar-2022</th><th>Reference&#xA0;Range</th><th>Unit</th></tr><tr><td>Triglyceride [Mass/volume] in Serum or Plasma</td><td>132.8</td><td>0 - 199</td><td></td><td>mg/dL</td></tr></table></div>"
        },
        "status": "final",
        "subject": {
          "reference": "urn:uuid:4a0d76d2-fe2d-4a7f-9e88-0664b370ebab",
          "display": "Pelayo Casal"
        },
        "effectiveDateTime": "2022-03-17T05:38:59Z",
        "specimen": {
          "reference": "urn:uuid:87b094ce-f479-4952-8ce8-dab512612cf4"
        }
      }
    },
    {
      "fullUrl": "urn:uuid:05d36679-da21-4ad6-8eb8-b720deeb7b1d",
      "resource": {
        "resourceType": "Observation",
        "id": "05d36679-da21-4ad6-8eb8-b720deeb7b1d",
        "meta": {
          "profile": [
            "http://hl7.eu/fhir/laboratory/StructureDefinition/Observation-resultslab-eu-lab"
          ]
        },
        "performer": [
          {
            "display": "The Central European Lab"
          }
        ],
        "category": [
          {
            "coding": [
              {
                "system": "http://terminology.hl7.org/CodeSystem/observation-category",
                "code": "laboratory"
              }
            ]
          }
        ],
        "code": {
          "coding": [
            {
              "code": "18262-6",
              "system": "http://loinc.org",
              "display": "Cholesterol in LDL [Mass/volume] in Serum or Plasma by Direct assay"
            }
          ],
          "text": "Cholesterol in LDL [Mass/volume] in Serum or Plasma by Direct assay"
        },
        "valueQuantity": {
          "system": "http://unitsofmeasure.org",
          "value": 41.3,
          "unit": "mg/dL",
          "code": "mg/dL"
        },
        "referenceRange": [
          {
            "low": {
              "value": 0,
              "code": "mg/dL",
              "system": "http://unitsofmeasure.org"
            }
          },
          {
            "high": {
              "value": 130,
              "code": "mg/dL",
              "system": "http://unitsofmeasure.org"
            }
          }
        ],
        "text": {
          "status": "generated",
          "div": "<div xmlns=\"http://www.w3.org/1999/xhtml\"><table class=\"hl7__eu__lab__report\"><tr><th>Test</th><th>17-Mar-2022</th><th>Reference&#xA0;Range</th><th>Unit</th></tr><tr><td>Cholesterol in LDL [Mass/volume] in Serum or Plasma by Direct assay</td><td>41.3</td><td>0 - 130</td><td></td><td>mg/dL</td></tr></table></div>"
        },
        "status": "final",
        "subject": {
          "reference": "urn:uuid:4a0d76d2-fe2d-4a7f-9e88-0664b370ebab",
          "display": "Pelayo Casal"
        },
        "effectiveDateTime": "2022-03-17T05:38:59Z",
        "specimen": {
          "reference": "urn:uuid:87b094ce-f479-4952-8ce8-dab512612cf4"
        }
      }
    },
    {
      "fullUrl": "urn:uuid:bac38825-3a83-4a3c-87d7-27143a12403c",
      "resource": {
        "resourceType": "Observation",
        "id": "bac38825-3a83-4a3c-87d7-27143a12403c",
        "meta": {
          "profile": [
            "http://hl7.eu/fhir/laboratory/StructureDefinition/Observation-resultslab-eu-lab"
          ]
        },
        "performer": [
          {
            "display": "The Central European Lab"
          }
        ],
        "category": [
          {
            "coding": [
              {
                "system": "http://terminology.hl7.org/CodeSystem/observation-category",
                "code": "laboratory"
              }
            ]
          }
        ],
        "code": {
          "coding": [
            {
              "code": "2085-9",
              "system": "http://loinc.org",
              "display": "Cholesterol in HDL [Mass/volume] in Serum or Plasma"
            }
          ],
          "text": "Cholesterol in HDL [Mass/volume] in Serum or Plasma"
        },
        "valueQuantity": {
          "system": "http://unitsofmeasure.org",
          "value": 47.3,
          "unit": "mg/dL",
          "code": "mg/dL"
        },
        "referenceRange": [
          {
            "low": {
              "value": 40,
              "code": "mg/dL",
              "system": "http://unitsofmeasure.org"
            }
          },
          {
            "high": {
              "value": 65,
              "code": "mg/dL",
              "system": "http://unitsofmeasure.org"
            }
          }
        ],
        "text": {
          "status": "generated",
          "div": "<div xmlns=\"http://www.w3.org/1999/xhtml\"><table class=\"hl7__eu__lab__report\"><tr><th>Test</th><th>17-Mar-2022</th><th>Reference&#xA0;Range</th><th>Unit</th></tr><tr><td>Cholesterol in HDL [Mass/volume] in Serum or Plasma</td><td>47.3</td><td>40 - 65</td><td></td><td>mg/dL</td></tr></table></div>"
        },
        "status": "final",
        "subject": {
          "reference": "urn:uuid:4a0d76d2-fe2d-4a7f-9e88-0664b370ebab",
          "display": "Pelayo Casal"
        },
        "effectiveDateTime": "2022-03-17T05:38:59Z",
        "specimen": {
          "reference": "urn:uuid:87b094ce-f479-4952-8ce8-dab512612cf4"
        }
      }
    },
    {
      "fullUrl": "urn:uuid:71ae4ad5-4c96-43a6-a695-d3c3bef69398",
      "resource": {
        "resourceType": "Device",
        "id": "71ae4ad5-4c96-43a6-a695-d3c3bef69398",
        "deviceName": [
          {
            "name": "SYNDERAI Synthetic Generator",
            "type": "manufacturer-name"
          }
        ],
        "version": [
          {
            "value": "5.0"
          }
        ],
        "text": {
          "status": "generated",
          "div": "<div xmlns=\"http://www.w3.org/1999/xhtml\">SYNDERAI Synthetic Generator v5.0</div>"
        },
        "status": "active\"",
        "distinctIdentifier": "synderai-generator-50",
        "manufacturer": "SYNDERAI Project"
      }
    },
    {
      "fullUrl": "urn:uuid:ac8503db-922c-4878-8cae-d010789c6516",
      "resource": {
        "resourceType": "Provenance",
        "id": "ac8503db-922c-4878-8cae-d010789c6516",
        "target": [
          {
            "reference": "Patient/4a0d76d2-fe2d-4a7f-9e88-0664b370ebab"
          },
          {
            "reference": "Bundle/2ef9b42c-c555-47ce-84a9-b0375f6db063"
          },
          {
            "reference": "Composition/8ac0a8c4-97ef-4fed-89ea-fa13a30ef42d"
          },
          {
            "reference": "PractitionerRole/f3274faa-4203-4566-82d3-ced7a2b05bf4"
          },
          {
            "reference": "Practitioner/d8d3dfa0-17d6-4aea-babb-7c236da310f5"
          },
          {
            "reference": "PractitionerRole/b7ff1fb2-3af2-4be8-bfcf-70f4829e29de"
          },
          {
            "reference": "Organization/8b060188-350e-44f6-972f-662ca95e3aa7"
          }
        ],
        "activity": {
          "text": "Synthetic Example Data Generation"
        },
        "policy": [
          "https://synderai.net/synderai-synthetic-data-policy"
        ],
        "agent": [
          {
            "type": {
              "text": "author"
            },
            "who": {
              "reference": "Device/71ae4ad5-4c96-43a6-a695-d3c3bef69398"
            }
          }
        ],
        "reason": [
          {
            "text": "Interoperability Testing and Training (non-clinical use)"
          }
        ],
        "text": {
          "status": "generated",
          "div": "<div xmlns=\"http://www.w3.org/1999/xhtml\">Provenance for SYNDERAI Synthetic Example Data Resource</div>"
        },
        "recorded": "2022-03-17T06:38:59Z"
      }
    },
    {
      "fullUrl": "urn:uuid:f3274faa-4203-4566-82d3-ced7a2b05bf4",
      "resource": {
        "resourceType": "PractitionerRole",
        "id": "f3274faa-4203-4566-82d3-ced7a2b05bf4",
        "meta": {
          "profile": [
            "http://hl7.eu/fhir/base/StructureDefinition/practitionerRole-eu"
          ]
        },
        "text": {
          "status": "generated",
          "div": "<div xmlns=\"http://www.w3.org/1999/xhtml\">Laboratory Role Id: f3274faa-4203-4566-82d3-ced7a2b05bf4</div>"
        },
        "practitioner": {
          "reference": "urn:uuid:d8d3dfa0-17d6-4aea-babb-7c236da310f5"
        }
      }
    },
    {
      "fullUrl": "urn:uuid:d8d3dfa0-17d6-4aea-babb-7c236da310f5",
      "resource": {
        "resourceType": "Practitioner",
        "id": "d8d3dfa0-17d6-4aea-babb-7c236da310f5",
        "meta": {
          "profile": [
            "http://hl7.eu/fhir/base/StructureDefinition/practitioner-eu"
          ]
        },
        "identifier": [
          {
            "assigner": {
              "display": "HL7 Europe"
            },
            "system": "urn:oid:2.16.840.1.113883.2.51.999",
            "value": "57d65686-d9c5-4cad-90fc-dfa7bb54437b"
          }
        ],
        "name": [
          {
            "prefix": [
              "dr"
            ],
            "given": [
              "Ex"
            ],
            "family": "Ample"
          }
        ],
        "address": [
          {
            "line": [
              "Laboratoire Central Européenne",
              "Boulevard du Jardin Botanique 32"
            ],
            "postalCode": "1000",
            "city": "Brussels",
            "country": "Belgium"
          }
        ],
        "text": {
          "status": "generated",
          "div": "<div xmlns=\"http://www.w3.org/1999/xhtml\">Laboratory: Laboratoire Central Européenne, 1000 Brussels, Belgium</div>"
        }
      }
    }
  ],
  "type": "document",
  "timestamp": "2022-03-17T06:38:59Z"
}
