<Bundle xmlns="http://hl7.org/fhir">
   <id value="1917ea7c-8bbb-47f3-8b32-17f1adc1fb4f"/>
   <meta>
      <profile value="http://hl7.eu/fhir/laboratory/StructureDefinition/Bundle-eu-lab"/>
   </meta>
   <identifier>
      <system value="urn:oid:2.16.840.1.113883.2.51.999"/>
      <value value="97983fdb-e6ba-4713-b20f-f271f85bb255"/>
      <assigner>
         <display value="HL7 Europe"/>
      </assigner>
   </identifier>
   <type value="document"/>
   <timestamp value="2020-11-11T06:09:31Z"/>
   <entry>
      <fullUrl value="urn:uuid:f86122dc-7214-4e0b-b9fe-9a7d5b8f599a"/>
      <resource>
         <Composition>
            <id value="f86122dc-7214-4e0b-b9fe-9a7d5b8f599a"/>
            <meta>
               <profile value="http://hl7.eu/fhir/laboratory/StructureDefinition/Composition-eu-lab"/>
            </meta>
            <identifier>
               <system value="urn:oid:2.16.840.1.113883.2.51.999"/>
               <value value="f59ee797-767f-4f72-9964-fa740b001dcf"/>
               <assigner>
                  <display value="HL7 Europe"/>
               </assigner>
            </identifier>
            <status value="final"/>
            <type>
               <coding>
                  <system value="http://loinc.org"/>
                  <code value="11502-2"/>
                  <display value="Laboratory report"/>
               </coding>
               <text value="Laboratory Report"/>
            </type>
            <category>
               <coding>
                  <system value="http://loinc.org"/>
                  <code value="26436-6"/>
                  <display value="Laboratory studies (set)"/>
               </coding>
            </category>
            <subject>
               <reference value="urn:uuid:aa622536-8816-4353-ae72-a055a225f6e0"/>
               <display value="Lazăr Florea"/>
            </subject>
            <date value="2020-11-11T06:09:31Z"/>
            <author>
               <reference value="urn:uuid:287cb6a0-7f0d-4414-9262-d03e444e00a5"/>
            </author>
            <title value="Laboratory Report"/>
            <confidentiality value="N"/>
            <section>
               <title value="Laboratory Report"/>
               <code>
                  <coding>
                     <system value="http://loinc.org"/>
                     <code value="26436-6"/>
                     <display value="Laboratory studies (set)"/>
                  </coding>
                  <text value="Laboratory studies"/>
               </code>
               <section>
                  <title value="Chemistry"/>
                  <code>
                     <coding>
                        <system value="http://loinc.org"/>
                        <code value="$18719-5"/>
                        <display value="Chemistry studies (set)"/>
                     </coding>
                     <text value="Chemistry"/>
                  </code>
                  <text>
                     <status value="generated"/>
                     <div xmlns="http://www.w3.org/1999/xhtml">
                        <h3>Chemistry</h3>
                        <table class="hl7__eu__lab__report">
                           <thead>
                              <tr>
                                 <th>Test</th>
                                 <th>11-NOV-2020</th>
                                 <th>Reference Range</th>
                                 <th>Unit</th>
                              </tr>
                           </thead>
                           <tbody>
                              <tr>
                                 <td>Oxygen saturation in Arterial blood</td>
                                 <td>
                                    <strong>89.2 L</strong>
                                 </td>
                                 <td>95 - 100</td>
                                 <td>%</td>
                              </tr>
                           </tbody>
                        </table>
                     </div>
                  </text>
                  <entry>
                     <reference value="urn:uuid:837cef43-991c-496d-afff-227bc5b109ac"/>
                  </entry>
               </section>
            </section>
            <section>
               <title value="Annotation comment"/>
               <code>
                  <coding>
                     <system value="http://loinc.org"/>
                     <code value="48767-8"/>
                     <display value="Annotation comment"/>
                  </coding>
               </code>
               <text>
                  <status value="generated"/>
                  <div xmlns="http://www.w3.org/1999/xhtml">
                     <h3>Annotation</h3>
                     <table class="hl7__eu__lab__report">
                        <tr>
                           <th>Conclusion and Recommendations based on this report and previous findings known to us</th>
                        </tr>
                        <tr>
                           <td>The patient shows decreased arterial oxygen saturation (89.2%), indicating hypoxemia. This finding may suggest underlying respiratory or cardiac compromise and warrants prompt clinical evaluation and intervention to address potential causes and prevent further complications.</td>
                        </tr>
                     </table>
                  </div>
               </text>
            </section>
         </Composition>
      </resource>
   </entry>
   <entry>
      <fullUrl value="urn:uuid:39e3ffc9-9e7e-4faf-9f95-0075e24c7c72"/>
      <resource>
         <DiagnosticReport>
            <id value="39e3ffc9-9e7e-4faf-9f95-0075e24c7c72"/>
            <meta>
               <profile value="http://hl7.eu/fhir/laboratory/StructureDefinition/DiagnosticReport-eu-lab"/>
            </meta>
            <extension url="http://hl7.org/fhir/5.0/StructureDefinition/extension-DiagnosticReport.composition">
               <valueReference>
                  <reference value="urn:uuid:f59ee797-767f-4f72-9964-fa740b001dcf"/>
               </valueReference>
            </extension>
            <identifier>
               <system value="urn:oid:2.16.840.1.113883.2.51.999"/>
               <value value="cf5ea3c7-2361-43ab-8e3f-2850c381a60c"/>
               <assigner>
                  <display value="HL7 Europe"/>
               </assigner>
            </identifier>
            <status value="registered"/>
            <category>
               <coding>
                  <system value="http://loinc.org"/>
                  <code value="26436-6"/>
                  <display value="Laboratory studies (set)"/>
               </coding>
            </category>
            <code>
               <coding>
                  <system value="http://loinc.org"/>
                  <code value="11502-2"/>
                  <display value="Laboratory report"/>
               </coding>
            </code>
            <subject>
               <reference value="urn:uuid:aa622536-8816-4353-ae72-a055a225f6e0"/>
               <display value="Lazăr Florea"/>
            </subject>
            <specimen>
               <reference value="urn:uuid:80e02b40-c250-4ab0-8b81-a3b28e0d18ca"/>
            </specimen>
            <result>
               <reference value="urn:uuid:837cef43-991c-496d-afff-227bc5b109ac"/>
            </result>
         </DiagnosticReport>
      </resource>
   </entry>
   <entry>
      <fullUrl value="urn:uuid:aa622536-8816-4353-ae72-a055a225f6e0"/>
      <resource>
         <Patient>
            <id value="aa622536-8816-4353-ae72-a055a225f6e0"/>
            <meta>
               <profile value="http://hl7.eu/fhir/base/StructureDefinition/patient-eu-core"/>
               <security>
                  <system value="http://terminology.hl7.org/CodeSystem/v3-ActReason"/>
                  <code value="HTEST"/>
               </security>
               <security>
                  <system value="http://terminology.hl7.org/CodeSystem/v3-ActReason"/>
                  <code value="TRAIN"/>
               </security>
               <tag>
                  <system value="https://synderai.net/fhir/CodeSystem/tags"/>
                  <code value="synthetic"/>
                  <display value="SYNDERAI Synthetic data"/>
               </tag>
            </meta>
            <text>
               <status value="generated"/>
               <div xmlns="http://www.w3.org/1999/xhtml">
                  <table class="hl7__ips">
                     <tr>
                        <td>Lazăr Florea</td>
                        <td>male</td>
                        <td>10-Feb-1946</td>
                     </tr>
                  </table>
               </div>
            </text>
            <extension url="http://hl7.org/fhir/StructureDefinition/patient-nationality">
               <valueCodeableConcept>
                  <coding>
                     <system value="http://hl7.org/fhir/ValueSet/country"/>
                     <code value="RO"/>
                  </coding>
               </valueCodeableConcept>
            </extension>
            <identifier>
               <type>
                  <coding>
                     <system value="http://terminology.hl7.org/CodeSystem/v2-0203"/>
                     <code value="PT"/>
                  </coding>
               </type>
               <system value="http://ec.europa.eu/identifier/eci"/>
               <value value="8693-862290-8"/>
            </identifier>
            <identifier>
               <type>
                  <coding>
                     <system value="http://terminology.hl7.org/CodeSystem/v2-0203"/>
                     <code value="MR"/>
                  </coding>
               </type>
               <system value="http://local.setting.eu/identifier"/>
               <value value="602fbbf5-967b-6d86-a533-5cec24b13e71"/>
            </identifier>
            <name>
               <family value="Florea"/>
            </name>
            <name>
               <given value="Lazăr"/>
            </name>
            <name>
               <text value="Lazăr Florea"/>
            </name>
            <telecom>
               <system value="phone"/>
               <value value="0753 950 380"/>
            </telecom>
            <gender value="male"/>
            <birthDate value="1946-02-10"/>
            <address>
               <use value="home"/>
               <type value="physical"/>
               <line value="Drumul Grațian Nistor"/>
               <city value="Lupeni"/>
               <postalCode value="265300"/>
               <country value="Romania"/>
            </address>
         </Patient>
      </resource>
   </entry>
   <entry>
      <fullUrl value="urn:uuid:3a10e01b-286f-4d8f-8d76-11818da6c527"/>
      <resource>
         <ServiceRequest>
            <id value="3a10e01b-286f-4d8f-8d76-11818da6c527"/>
            <meta>
               <profile value="http://hl7.eu/fhir/laboratory/StructureDefinition/ServiceRequest-eu-lab"/>
            </meta>
            <identifier>
               <system value="http://example.org"/>
               <value value="2c9575b7-9382-4d8f-98fe-7bbbf56db604"/>
            </identifier>
            <status value="active"/>
            <intent value="order"/>
            <code>
               <coding>
                  <system value="http://snomed.info/sct"/>
                  <code value="108252007"/>
                  <display value="Laboratory procedure"/>
               </coding>
            </code>
            <subject>
               <reference value="urn:uuid:aa622536-8816-4353-ae72-a055a225f6e0"/>
               <display value="Lazăr Florea"/>
            </subject>
            <requester>
               <reference value="urn:uuid:b096a80c-2b81-4e2e-a993-21731aaa5957"/>
            </requester>
            <reasonCode>
               <coding>
                  <system value="http://snomed.info/sct"/>
                  <code value="197927001"/>
                  <display value="Recurrent urinary tract infection"/>
               </coding>
            </reasonCode>
            <reasonCode>
               <coding>
                  <system value="http://snomed.info/sct"/>
                  <code value="414545008"/>
                  <display value="Ischemic heart disease"/>
               </coding>
            </reasonCode>
            <reasonCode>
               <coding>
                  <system value="http://snomed.info/sct"/>
                  <code value="237602007"/>
                  <display value="Metabolic syndrome X"/>
               </coding>
            </reasonCode>
            <reasonCode>
               <coding>
                  <system value="http://snomed.info/sct"/>
                  <code value="271737000"/>
                  <display value="Anemia"/>
               </coding>
            </reasonCode>
            <reasonCode>
               <coding>
                  <system value="http://snomed.info/sct"/>
                  <code value="15777000"/>
                  <display value="Prediabetes"/>
               </coding>
            </reasonCode>
            <reasonCode>
               <coding>
                  <system value="http://snomed.info/sct"/>
                  <code value="59621000"/>
                  <display value="Essential hypertension"/>
               </coding>
            </reasonCode>
            <reasonCode>
               <coding>
                  <system value="http://snomed.info/sct"/>
                  <code value="40055000"/>
                  <display value="Chronic sinusitis"/>
               </coding>
            </reasonCode>
            <specimen>
               <reference value="urn:uuid:80e02b40-c250-4ab0-8b81-a3b28e0d18ca"/>
            </specimen>
         </ServiceRequest>
      </resource>
   </entry>
   <entry>
      <fullUrl value="urn:uuid:b096a80c-2b81-4e2e-a993-21731aaa5957"/>
      <resource>
         <PractitionerRole>
            <id value="b096a80c-2b81-4e2e-a993-21731aaa5957"/>
            <meta>
               <profile value="http://hl7.eu/fhir/base/StructureDefinition/practitionerRole-eu"/>
            </meta>
            <text>
               <status value="generated"/>
               <div xmlns="http://www.w3.org/1999/xhtml">Provider Role Id: b096a80c-2b81-4e2e-a993-21731aaa5957</div>
            </text>
            <organization>
               <reference value="urn:uuid:7cd78379-15a2-42d0-992a-396f0c550d27"/>
            </organization>
         </PractitionerRole>
      </resource>
   </entry>
   <entry>
      <fullUrl value="urn:uuid:7cd78379-15a2-42d0-992a-396f0c550d27"/>
      <resource>
         <Organization>
            <id value="7cd78379-15a2-42d0-992a-396f0c550d27"/>
            <meta>
               <profile value="http://hl7.eu/fhir/base/StructureDefinition/organization-eu"/>
            </meta>
            <text>
               <status value="generated"/>
               <div xmlns="http://www.w3.org/1999/xhtml">Provider Organization: Spitalul de Urgență</div>
            </text>
            <identifier>
               <system value="urn:oid:2.16.840.1.113883.2.51.999"/>
               <value value="ac227697-ef6d-41f5-9cb5-1d79be9b35a4"/>
               <assigner>
                  <display value="HL7 Europe"/>
               </assigner>
            </identifier>
            <name value="Spitalul de Urgență"/>
            <address>
               <line value="Strada 1 Decembrie 1918 137 A"/>
               <city value="Petroșani"/>
               <postalCode value="332019"/>
               <country value="Romania"/>
            </address>
         </Organization>
      </resource>
   </entry>
   <entry>
      <fullUrl value="urn:uuid:80e02b40-c250-4ab0-8b81-a3b28e0d18ca"/>
      <resource>
         <Specimen>
            <id value="80e02b40-c250-4ab0-8b81-a3b28e0d18ca"/>
            <meta>
               <profile value="http://hl7.eu/fhir/laboratory/StructureDefinition/Specimen-eu-lab"/>
            </meta>
            <text>
               <status value="generated"/>
               <div xmlns="http://www.w3.org/1999/xhtml">
                  <table class="hl7__eu__lab__report">
                     <tr>
                        <th>Specimen</th>
                        <th>Collection Date</th>
                     </tr>
                     <tr>
                        <td>Arterial blood specimen</td>
                        <td>
                           <span class="nb">11-Nov-2020</span>
                        </td>
                     </tr>
                  </table>
               </div>
            </text>
            <type>
               <coding>
                  <system value="http://snomed.info/sct"/>
                  <code value="122552005"/>
                  <display value="Arterial blood specimen"/>
               </coding>
            </type>
            <collection>
               <collectedDateTime value="2020-11-11"/>
            </collection>
         </Specimen>
      </resource>
   </entry>
   <entry>
      <fullUrl value="urn:uuid:837cef43-991c-496d-afff-227bc5b109ac"/>
      <resource>
         <Observation>
            <id value="837cef43-991c-496d-afff-227bc5b109ac"/>
            <meta>
               <profile value="http://hl7.eu/fhir/laboratory/StructureDefinition/Observation-resultslab-eu-lab"/>
            </meta>
            <text>
               <status value="generated"/>
               <div xmlns="http://www.w3.org/1999/xhtml">
                  <table class="hl7__eu__lab__report">
                     <tr>
                        <th>Test</th>
                        <th>11-Nov-2020</th>
                        <th>Reference Range</th>
                        <th>Unit</th>
                     </tr>
                     <tr>
                        <td>Oxygen saturation in Arterial blood</td>
                        <td>89.2</td>
                        <td>95 - 100</td>
                        <td>L</td>
                        <td>%</td>
                     </tr>
                  </table>
               </div>
            </text>
            <status value="final"/>
            <category>
               <coding>
                  <system value="http://terminology.hl7.org/CodeSystem/observation-category"/>
                  <code value="laboratory"/>
               </coding>
            </category>
            <code>
               <coding>
                  <system value="http://loinc.org"/>
                  <code value="2708-6"/>
                  <display value="Oxygen saturation in Arterial blood"/>
               </coding>
               <text value="Oxygen saturation in Arterial blood"/>
            </code>
            <subject>
               <reference value="urn:uuid:aa622536-8816-4353-ae72-a055a225f6e0"/>
               <display value="Lazăr Florea"/>
            </subject>
            <effectiveDateTime value="2020-11-11T05:09:31Z"/>
            <performer>
               <display value="The Central European Lab"/>
            </performer>
            <valueQuantity>
               <value value="89.2"/>
               <unit value="%"/>
               <system value="http://unitsofmeasure.org"/>
               <code value="%"/>
            </valueQuantity>
            <interpretation>
               <coding>
                  <system value="http://terminology.hl7.org/CodeSystem/v3-ObservationInterpretation"/>
                  <code value="L"/>
                  <display value="Low"/>
               </coding>
            </interpretation>
            <specimen>
               <reference value="urn:uuid:80e02b40-c250-4ab0-8b81-a3b28e0d18ca"/>
            </specimen>
            <referenceRange>
               <low>
                  <value value="95"/>
                  <system value="http://unitsofmeasure.org"/>
                  <code value="%"/>
               </low>
            </referenceRange>
            <referenceRange>
               <high>
                  <value value="100"/>
                  <system value="http://unitsofmeasure.org"/>
                  <code value="%"/>
               </high>
            </referenceRange>
         </Observation>
      </resource>
   </entry>
   <entry>
      <fullUrl value="urn:uuid:00ddaaf8-d4cf-464a-99a9-79742469ed63"/>
      <resource>
         <Device>
            <id value="00ddaaf8-d4cf-464a-99a9-79742469ed63"/>
            <text>
               <status value="generated"/>
               <div xmlns="http://www.w3.org/1999/xhtml">SYNDERAI Synthetic Generator v5.0</div>
            </text>
            <status value="active&#34;"/>
            <distinctIdentifier value="synderai-generator-50"/>
            <manufacturer value="SYNDERAI Project"/>
            <deviceName>
               <name value="SYNDERAI Synthetic Generator"/>
               <type value="manufacturer-name"/>
            </deviceName>
            <version>
               <value value="5.0"/>
            </version>
         </Device>
      </resource>
   </entry>
   <entry>
      <fullUrl value="urn:uuid:26f69a38-4d5b-4063-96e7-c6bea32182c2"/>
      <resource>
         <Provenance>
            <id value="26f69a38-4d5b-4063-96e7-c6bea32182c2"/>
            <text>
               <status value="generated"/>
               <div xmlns="http://www.w3.org/1999/xhtml">Provenance for SYNDERAI Synthetic Example Data Resource</div>
            </text>
            <target>
               <reference value="Patient/aa622536-8816-4353-ae72-a055a225f6e0"/>
            </target>
            <target>
               <reference value="Bundle/1917ea7c-8bbb-47f3-8b32-17f1adc1fb4f"/>
            </target>
            <target>
               <reference value="Composition/f86122dc-7214-4e0b-b9fe-9a7d5b8f599a"/>
            </target>
            <target>
               <reference value="PractitionerRole/287cb6a0-7f0d-4414-9262-d03e444e00a5"/>
            </target>
            <target>
               <reference value="Practitioner/805fd419-e884-4f05-90f4-f9d05646ea1e"/>
            </target>
            <target>
               <reference value="PractitionerRole/b096a80c-2b81-4e2e-a993-21731aaa5957"/>
            </target>
            <target>
               <reference value="Organization/7cd78379-15a2-42d0-992a-396f0c550d27"/>
            </target>
            <recorded value="2020-11-11T06:09:31Z"/>
            <policy value="https://synderai.net/synderai-synthetic-data-policy"/>
            <reason>
               <text value="Interoperability Testing and Training (non-clinical use)"/>
            </reason>
            <activity>
               <text value="Synthetic Example Data Generation"/>
            </activity>
            <agent>
               <type>
                  <text value="author"/>
               </type>
               <who>
                  <reference value="Device/00ddaaf8-d4cf-464a-99a9-79742469ed63"/>
               </who>
            </agent>
         </Provenance>
      </resource>
   </entry>
   <entry>
      <fullUrl value="urn:uuid:287cb6a0-7f0d-4414-9262-d03e444e00a5"/>
      <resource>
         <PractitionerRole>
            <id value="287cb6a0-7f0d-4414-9262-d03e444e00a5"/>
            <meta>
               <profile value="http://hl7.eu/fhir/base/StructureDefinition/practitionerRole-eu"/>
            </meta>
            <text>
               <status value="generated"/>
               <div xmlns="http://www.w3.org/1999/xhtml">Laboratory Role Id: 287cb6a0-7f0d-4414-9262-d03e444e00a5</div>
            </text>
            <practitioner>
               <reference value="urn:uuid:805fd419-e884-4f05-90f4-f9d05646ea1e"/>
            </practitioner>
         </PractitionerRole>
      </resource>
   </entry>
   <entry>
      <fullUrl value="urn:uuid:805fd419-e884-4f05-90f4-f9d05646ea1e"/>
      <resource>
         <Practitioner>
            <id value="805fd419-e884-4f05-90f4-f9d05646ea1e"/>
            <meta>
               <profile value="http://hl7.eu/fhir/base/StructureDefinition/practitioner-eu"/>
            </meta>
            <text>
               <status value="generated"/>
               <div xmlns="http://www.w3.org/1999/xhtml">Laboratory: Laboratoire Central Européenne, 1000 Brussels, Belgium</div>
            </text>
            <identifier>
               <system value="urn:oid:2.16.840.1.113883.2.51.999"/>
               <value value="d1060613-6aae-47c2-b20a-c81fd2420b6c"/>
               <assigner>
                  <display value="HL7 Europe"/>
               </assigner>
            </identifier>
            <name>
               <family value="Ample"/>
               <given value="Ex"/>
               <prefix value="dr"/>
            </name>
            <address>
               <line value="Laboratoire Central Européenne"/>
               <line value="Boulevard du Jardin Botanique 32"/>
               <city value="Brussels"/>
               <postalCode value="1000"/>
               <country value="Belgium"/>
            </address>
         </Practitioner>
      </resource>
   </entry>
</Bundle>