{
  "resourceType": "Bundle",
  "id": "caa48df8-dafb-43f4-a7b3-99d8aa27a282",
  "meta": {
    "profile": [
      "http://hl7.eu/fhir/laboratory/StructureDefinition/Bundle-eu-lab"
    ]
  },
  "identifier": {
    "assigner": {
      "display": "HL7 Europe"
    },
    "system": "urn:oid:2.16.840.1.113883.2.51.999",
    "value": "45cf87f0-6885-429e-8b85-b4a84b1cff8e"
  },
  "entry": [
    {
      "fullUrl": "urn:uuid:ccf1b729-cb3c-479d-8bde-a5badb04aba8",
      "resource": {
        "resourceType": "Composition",
        "id": "ccf1b729-cb3c-479d-8bde-a5badb04aba8",
        "meta": {
          "profile": [
            "http://hl7.eu/fhir/laboratory/StructureDefinition/Composition-eu-lab"
          ]
        },
        "identifier": {
          "assigner": {
            "display": "HL7 Europe"
          },
          "system": "urn:oid:2.16.840.1.113883.2.51.999",
          "value": "ef1057d3-361b-46a6-a12e-b73c77e68249"
        },
        "author": [
          {
            "reference": "urn:uuid:f47ba671-b6bb-4a16-a6f2-bb61afdc21cd"
          }
        ],
        "category": [
          {
            "coding": [
              {
                "code": "26436-6",
                "system": "http://loinc.org",
                "display": "Laboratory studies (set)"
              }
            ]
          }
        ],
        "type": {
          "coding": [
            {
              "code": "11502-2",
              "system": "http://loinc.org",
              "display": "Laboratory report"
            }
          ],
          "text": "Laboratory Report"
        },
        "section": [
          {
            "code": {
              "coding": [
                {
                  "code": "26436-6",
                  "system": "http://loinc.org",
                  "display": "Laboratory studies (set)"
                }
              ],
              "text": "Laboratory studies"
            },
            "section": [
              {
                "code": {
                  "coding": [
                    {
                      "code": "$18719-5",
                      "system": "http://loinc.org",
                      "display": "Chemistry studies (set)"
                    }
                  ],
                  "text": "Chemistry"
                },
                "entry": [
                  {
                    "reference": "urn:uuid:58db43e3-4370-4317-96a7-d69dcbf2c5c9"
                  },
                  {
                    "reference": "urn:uuid:5b04e7e4-2469-405e-8630-592df08e974b"
                  },
                  {
                    "reference": "urn:uuid:d2904f99-25c3-4d5c-b036-c8eccdc5a25b"
                  },
                  {
                    "reference": "urn:uuid:f0ed9777-6443-4d73-934c-77237cc28dcd"
                  },
                  {
                    "reference": "urn:uuid:ac5dbc31-a700-4303-95c3-74b1957af42b"
                  },
                  {
                    "reference": "urn:uuid:ee037a7a-8bed-4693-8bb8-310e10197efa"
                  },
                  {
                    "reference": "urn:uuid:10f656c8-94fa-4985-8d78-b8fb7a08c4cc"
                  },
                  {
                    "reference": "urn:uuid:ffb6a22c-84c8-4ad9-a1d8-98388363823c"
                  },
                  {
                    "reference": "urn:uuid:2b223b9c-e7b8-4ee4-8f84-0183b2323d52"
                  }
                ],
                "text": {
                  "status": "generated",
                  "div": "<div xmlns=\"http://www.w3.org/1999/xhtml\"><h3>Chemistry</h3><table class=\"hl7__eu__lab__report\"><thead><tr><th>Test</th><th>25-JAN-2024</th><th>Reference&#xA0;Range</th><th>Unit</th></tr></thead><tbody><tr><td>Hemoglobin A1c/Hemoglobin.total in Blood</td><td>6.0</td><td>4 - 6</td><td>%</td></tr><tr><td>Glucose [Mass/volume] in Blood</td><td><strong>68.9 L</strong></td><td>70 - 140</td><td>mg/dL</td></tr><tr><td>Urea nitrogen [Mass/volume] in Blood</td><td>12.8</td><td>7 - 25</td><td>mg/dL</td></tr><tr><td>Creatinine [Mass/volume] in Blood</td><td>0.9</td><td>0.6 - 1.1</td><td>mg/dL</td></tr><tr><td>Calcium [Mass/volume] in Blood</td><td>9.9</td><td>8.5 - 10.4</td><td>mg/dL</td></tr><tr><td>Sodium [Moles/volume] in Blood</td><td>143.2</td><td>135 - 145</td><td>mmol/L</td></tr><tr><td>Potassium [Moles/volume] in Blood</td><td>3.9</td><td>3.5 - 5.1</td><td>mmol/L</td></tr><tr><td>Chloride [Moles/volume] in Blood</td><td>104.8</td><td>98 - 108</td><td>mmol/L</td></tr><tr><td>Carbon dioxide, total [Moles/volume] in Blood</td><td>24.4</td><td>22 - 29</td><td>mmol/L</td></tr></tbody></table></div>"
                },
                "title": "Chemistry"
              }
            ],
            "title": "Laboratory Report"
          },
          {
            "text": {
              "status": "generated",
              "div": "<div xmlns=\"http://www.w3.org/1999/xhtml\"><h3>Annotation</h3><table class=\"hl7__eu__lab__report\"><tr><th>Conclusion and Recommendations based on this report and previous findings known to us</th></tr><tr><td>All parameters are within normal limits except for a slightly low fasting glucose (68.9 mg/dL), which may indicate mild hypoglycemia. HbA1c is at the upper limit of normal, suggesting good long-term glycemic control but close monitoring is advised. Renal and electrolyte values are normal. No acute laboratory concerns.</td></tr></table></div>"
            },
            "code": {
              "coding": [
                {
                  "system": "http://loinc.org",
                  "code": "48767-8",
                  "display": "Annotation comment"
                }
              ]
            },
            "title": "Annotation comment"
          }
        ],
        "status": "final",
        "subject": {
          "reference": "urn:uuid:754cbe2c-4adc-41bf-84c9-34f10a0f8b04",
          "display": "Vincenza Porzio"
        },
        "date": "2024-01-25T19:51:27Z",
        "title": "Laboratory Report",
        "confidentiality": "N"
      }
    },
    {
      "fullUrl": "urn:uuid:f0a10256-9764-4e6d-8462-1c9ab714d427",
      "resource": {
        "resourceType": "DiagnosticReport",
        "id": "f0a10256-9764-4e6d-8462-1c9ab714d427",
        "meta": {
          "profile": [
            "http://hl7.eu/fhir/laboratory/StructureDefinition/DiagnosticReport-eu-lab"
          ]
        },
        "identifier": [
          {
            "assigner": {
              "display": "HL7 Europe"
            },
            "system": "urn:oid:2.16.840.1.113883.2.51.999",
            "value": "523df177-8724-47d0-bd79-1ab45a9e4917"
          }
        ],
        "extension": [
          {
            "url": "http://hl7.org/fhir/5.0/StructureDefinition/extension-DiagnosticReport.composition",
            "valueReference": {
              "reference": "urn:uuid:ef1057d3-361b-46a6-a12e-b73c77e68249"
            }
          }
        ],
        "category": [
          {
            "coding": [
              {
                "code": "26436-6",
                "system": "http://loinc.org",
                "display": "Laboratory studies (set)"
              }
            ]
          }
        ],
        "specimen": [
          {
            "reference": "urn:uuid:d61e2658-656d-403f-a827-b92d8ede1b13"
          }
        ],
        "result": [
          {
            "reference": "urn:uuid:58db43e3-4370-4317-96a7-d69dcbf2c5c9"
          },
          {
            "reference": "urn:uuid:5b04e7e4-2469-405e-8630-592df08e974b"
          },
          {
            "reference": "urn:uuid:d2904f99-25c3-4d5c-b036-c8eccdc5a25b"
          },
          {
            "reference": "urn:uuid:f0ed9777-6443-4d73-934c-77237cc28dcd"
          },
          {
            "reference": "urn:uuid:ac5dbc31-a700-4303-95c3-74b1957af42b"
          },
          {
            "reference": "urn:uuid:ee037a7a-8bed-4693-8bb8-310e10197efa"
          },
          {
            "reference": "urn:uuid:10f656c8-94fa-4985-8d78-b8fb7a08c4cc"
          },
          {
            "reference": "urn:uuid:ffb6a22c-84c8-4ad9-a1d8-98388363823c"
          },
          {
            "reference": "urn:uuid:2b223b9c-e7b8-4ee4-8f84-0183b2323d52"
          }
        ],
        "status": "registered",
        "code": {
          "coding": [
            {
              "code": "11502-2",
              "system": "http://loinc.org",
              "display": "Laboratory report"
            }
          ]
        },
        "subject": {
          "reference": "urn:uuid:754cbe2c-4adc-41bf-84c9-34f10a0f8b04",
          "display": "Vincenza Porzio"
        }
      }
    },
    {
      "fullUrl": "urn:uuid:754cbe2c-4adc-41bf-84c9-34f10a0f8b04",
      "resource": {
        "resourceType": "Patient",
        "id": "754cbe2c-4adc-41bf-84c9-34f10a0f8b04",
        "meta": {
          "security": [
            {
              "system": "http://terminology.hl7.org/CodeSystem/v3-ActReason",
              "code": "HTEST"
            },
            {
              "system": "http://terminology.hl7.org/CodeSystem/v3-ActReason",
              "code": "TRAIN"
            }
          ],
          "tag": [
            {
              "system": "https://synderai.net/fhir/CodeSystem/tags",
              "code": "synthetic",
              "display": "SYNDERAI Synthetic data"
            }
          ],
          "profile": [
            "http://hl7.eu/fhir/base/StructureDefinition/patient-eu-core"
          ]
        },
        "identifier": [
          {
            "type": {
              "coding": [
                {
                  "code": "PT",
                  "system": "http://terminology.hl7.org/CodeSystem/v2-0203"
                }
              ]
            },
            "system": "http://ec.europa.eu/identifier/eci",
            "value": "9988-341158-1"
          },
          {
            "type": {
              "coding": [
                {
                  "code": "MR",
                  "system": "http://terminology.hl7.org/CodeSystem/v2-0203"
                }
              ]
            },
            "system": "http://local.setting.eu/identifier",
            "value": "559a1acd-87c3-5b56-0345-4eaff6c5aa0a"
          }
        ],
        "name": [
          {
            "family": "Porzio"
          },
          {
            "given": [
              "Vincenza"
            ]
          },
          {
            "text": "Vincenza Porzio"
          }
        ],
        "address": [
          {
            "line": [
              "Piazza Allegra, 720"
            ],
            "use": "home",
            "type": "physical",
            "postalCode": "36040",
            "city": "Grumolo Pedemonte",
            "country": "Italy"
          }
        ],
        "telecom": [
          {
            "system": "phone",
            "value": "041007473"
          }
        ],
        "extension": [
          {
            "url": "http://hl7.org/fhir/StructureDefinition/patient-nationality",
            "valueCodeableConcept": {
              "coding": [
                {
                  "code": "IT",
                  "system": "http://hl7.org/fhir/ValueSet/country"
                }
              ]
            }
          }
        ],
        "text": {
          "status": "generated",
          "div": "<div xmlns=\"http://www.w3.org/1999/xhtml\"><table class=\"hl7__ips\"><tr><td>Vincenza Porzio</td><td>female</td><td>13-Sep-1965</td></tr></table></div>"
        },
        "gender": "female",
        "birthDate": "1965-09-13"
      }
    },
    {
      "fullUrl": "urn:uuid:c605dbb6-d1e6-4d38-9893-d8f34702a63b",
      "resource": {
        "resourceType": "ServiceRequest",
        "id": "c605dbb6-d1e6-4d38-9893-d8f34702a63b",
        "meta": {
          "profile": [
            "http://hl7.eu/fhir/laboratory/StructureDefinition/ServiceRequest-eu-lab"
          ]
        },
        "identifier": [
          {
            "system": "http://example.org",
            "value": "1ce13794-cd0d-4ffd-9c52-dcbd4cc7ff79"
          }
        ],
        "specimen": [
          {
            "reference": "urn:uuid:d61e2658-656d-403f-a827-b92d8ede1b13"
          }
        ],
        "reasonCode": [
          {
            "coding": [
              {
                "code": "40055000",
                "system": "http://snomed.info/sct",
                "display": "Chronic sinusitis"
              }
            ]
          },
          {
            "coding": [
              {
                "code": "15777000",
                "system": "http://snomed.info/sct",
                "display": "Prediabetes"
              }
            ]
          },
          {
            "coding": [
              {
                "code": "239873007",
                "system": "http://snomed.info/sct",
                "display": "Osteoarthritis of knee"
              }
            ]
          },
          {
            "coding": [
              {
                "code": "6525002",
                "system": "http://snomed.info/sct",
                "display": "Dependent drug abuse"
              }
            ]
          },
          {
            "coding": [
              {
                "code": "196416002",
                "system": "http://snomed.info/sct",
                "display": "Impacted molars"
              }
            ]
          },
          {
            "coding": [
              {
                "code": "124171000119105",
                "system": "http://snomed.info/sct",
                "display": "Chronic intractable migraine without aura"
              }
            ]
          }
        ],
        "status": "active",
        "intent": "order",
        "code": {
          "coding": [
            {
              "code": "108252007",
              "system": "http://snomed.info/sct",
              "display": "Laboratory procedure"
            }
          ]
        },
        "subject": {
          "reference": "urn:uuid:754cbe2c-4adc-41bf-84c9-34f10a0f8b04",
          "display": "Vincenza Porzio"
        },
        "requester": {
          "reference": "urn:uuid:083b5521-7df7-433a-8372-473dd9e71fe4"
        }
      }
    },
    {
      "fullUrl": "urn:uuid:083b5521-7df7-433a-8372-473dd9e71fe4",
      "resource": {
        "resourceType": "PractitionerRole",
        "id": "083b5521-7df7-433a-8372-473dd9e71fe4",
        "meta": {
          "profile": [
            "http://hl7.eu/fhir/base/StructureDefinition/practitionerRole-eu"
          ]
        },
        "text": {
          "status": "generated",
          "div": "<div xmlns=\"http://www.w3.org/1999/xhtml\">Provider Role Id: 083b5521-7df7-433a-8372-473dd9e71fe4</div>"
        },
        "organization": {
          "reference": "urn:uuid:35f47ed7-297e-4d2c-afdb-5f1e98a7377f"
        }
      }
    },
    {
      "fullUrl": "urn:uuid:35f47ed7-297e-4d2c-afdb-5f1e98a7377f",
      "resource": {
        "resourceType": "Organization",
        "id": "35f47ed7-297e-4d2c-afdb-5f1e98a7377f",
        "meta": {
          "profile": [
            "http://hl7.eu/fhir/base/StructureDefinition/organization-eu"
          ]
        },
        "identifier": [
          {
            "assigner": {
              "display": "HL7 Europe"
            },
            "system": "urn:oid:2.16.840.1.113883.2.51.999",
            "value": "aa52d9d2-0f5e-4e32-8860-93bb7e5563cb"
          }
        ],
        "address": [
          {
            "country": "Italy"
          }
        ],
        "text": {
          "status": "generated",
          "div": "<div xmlns=\"http://www.w3.org/1999/xhtml\">Provider Organization: Villa Margherita</div>"
        },
        "name": "Villa Margherita"
      }
    },
    {
      "fullUrl": "urn:uuid:d61e2658-656d-403f-a827-b92d8ede1b13",
      "resource": {
        "resourceType": "Specimen",
        "id": "d61e2658-656d-403f-a827-b92d8ede1b13",
        "meta": {
          "profile": [
            "http://hl7.eu/fhir/laboratory/StructureDefinition/Specimen-eu-lab"
          ]
        },
        "collection": {
          "collectedDateTime": "2024-01-25"
        },
        "text": {
          "status": "generated",
          "div": "<div xmlns=\"http://www.w3.org/1999/xhtml\"><table class=\"hl7__eu__lab__report\"><tr><th>Specimen</th><th>Collection Date</th></tr><tr><td>Whole blood specimen (specimen)</td><td><span class=\"nb\">25-Jan-2024</span></td></tr></table></div>"
        },
        "type": {
          "coding": [
            {
              "code": "258580003",
              "system": "http://snomed.info/sct",
              "display": "Whole blood specimen (specimen)"
            }
          ]
        }
      }
    },
    {
      "fullUrl": "urn:uuid:58db43e3-4370-4317-96a7-d69dcbf2c5c9",
      "resource": {
        "resourceType": "Observation",
        "id": "58db43e3-4370-4317-96a7-d69dcbf2c5c9",
        "meta": {
          "profile": [
            "http://hl7.eu/fhir/laboratory/StructureDefinition/Observation-resultslab-eu-lab"
          ]
        },
        "performer": [
          {
            "display": "The Central European Lab"
          }
        ],
        "category": [
          {
            "coding": [
              {
                "system": "http://terminology.hl7.org/CodeSystem/observation-category",
                "code": "laboratory"
              }
            ]
          }
        ],
        "code": {
          "coding": [
            {
              "code": "4548-4",
              "system": "http://loinc.org",
              "display": "Hemoglobin A1c/Hemoglobin.total in Blood"
            }
          ],
          "text": "Hemoglobin A1c/Hemoglobin.total in Blood"
        },
        "valueQuantity": {
          "system": "http://unitsofmeasure.org",
          "value": 6,
          "unit": "%",
          "code": "%"
        },
        "referenceRange": [
          {
            "low": {
              "value": 4,
              "code": "%",
              "system": "http://unitsofmeasure.org"
            }
          },
          {
            "high": {
              "value": 6,
              "code": "%",
              "system": "http://unitsofmeasure.org"
            }
          }
        ],
        "text": {
          "status": "generated",
          "div": "<div xmlns=\"http://www.w3.org/1999/xhtml\"><table class=\"hl7__eu__lab__report\"><tr><th>Test</th><th>25-Jan-2024</th><th>Reference&#xA0;Range</th><th>Unit</th></tr><tr><td>Hemoglobin A1c/Hemoglobin.total in Blood</td><td>6.0</td><td>4 - 6</td><td></td><td>%</td></tr></table></div>"
        },
        "status": "final",
        "subject": {
          "reference": "urn:uuid:754cbe2c-4adc-41bf-84c9-34f10a0f8b04",
          "display": "Vincenza Porzio"
        },
        "effectiveDateTime": "2024-01-25T18:51:27Z",
        "specimen": {
          "reference": "urn:uuid:d61e2658-656d-403f-a827-b92d8ede1b13"
        }
      }
    },
    {
      "fullUrl": "urn:uuid:5b04e7e4-2469-405e-8630-592df08e974b",
      "resource": {
        "resourceType": "Observation",
        "id": "5b04e7e4-2469-405e-8630-592df08e974b",
        "meta": {
          "profile": [
            "http://hl7.eu/fhir/laboratory/StructureDefinition/Observation-resultslab-eu-lab"
          ]
        },
        "performer": [
          {
            "display": "The Central European Lab"
          }
        ],
        "category": [
          {
            "coding": [
              {
                "system": "http://terminology.hl7.org/CodeSystem/observation-category",
                "code": "laboratory"
              }
            ]
          }
        ],
        "code": {
          "coding": [
            {
              "code": "2339-0",
              "system": "http://loinc.org",
              "display": "Glucose [Mass/volume] in Blood"
            }
          ],
          "text": "Glucose [Mass/volume] in Blood"
        },
        "valueQuantity": {
          "system": "http://unitsofmeasure.org",
          "value": 68.9,
          "unit": "mg/dL",
          "code": "mg/dL"
        },
        "referenceRange": [
          {
            "low": {
              "value": 70,
              "code": "mg/dL",
              "system": "http://unitsofmeasure.org"
            }
          },
          {
            "high": {
              "value": 140,
              "code": "mg/dL",
              "system": "http://unitsofmeasure.org"
            }
          }
        ],
        "interpretation": [
          {
            "coding": [
              {
                "code": "L",
                "system": "http://terminology.hl7.org/CodeSystem/v3-ObservationInterpretation",
                "display": "Low"
              }
            ]
          }
        ],
        "text": {
          "status": "generated",
          "div": "<div xmlns=\"http://www.w3.org/1999/xhtml\"><table class=\"hl7__eu__lab__report\"><tr><th>Test</th><th>25-Jan-2024</th><th>Reference&#xA0;Range</th><th>Unit</th></tr><tr><td>Glucose [Mass/volume] in Blood</td><td>68.9</td><td>70 - 140</td><td>L</td><td>mg/dL</td></tr></table></div>"
        },
        "status": "final",
        "subject": {
          "reference": "urn:uuid:754cbe2c-4adc-41bf-84c9-34f10a0f8b04",
          "display": "Vincenza Porzio"
        },
        "effectiveDateTime": "2024-01-25T18:51:27Z",
        "specimen": {
          "reference": "urn:uuid:d61e2658-656d-403f-a827-b92d8ede1b13"
        }
      }
    },
    {
      "fullUrl": "urn:uuid:d2904f99-25c3-4d5c-b036-c8eccdc5a25b",
      "resource": {
        "resourceType": "Observation",
        "id": "d2904f99-25c3-4d5c-b036-c8eccdc5a25b",
        "meta": {
          "profile": [
            "http://hl7.eu/fhir/laboratory/StructureDefinition/Observation-resultslab-eu-lab"
          ]
        },
        "performer": [
          {
            "display": "The Central European Lab"
          }
        ],
        "category": [
          {
            "coding": [
              {
                "system": "http://terminology.hl7.org/CodeSystem/observation-category",
                "code": "laboratory"
              }
            ]
          }
        ],
        "code": {
          "coding": [
            {
              "code": "6299-2",
              "system": "http://loinc.org",
              "display": "Urea nitrogen [Mass/volume] in Blood"
            }
          ],
          "text": "Urea nitrogen [Mass/volume] in Blood"
        },
        "valueQuantity": {
          "system": "http://unitsofmeasure.org",
          "value": 12.8,
          "unit": "mg/dL",
          "code": "mg/dL"
        },
        "referenceRange": [
          {
            "low": {
              "value": 7,
              "code": "mg/dL",
              "system": "http://unitsofmeasure.org"
            }
          },
          {
            "high": {
              "value": 25,
              "code": "mg/dL",
              "system": "http://unitsofmeasure.org"
            }
          }
        ],
        "text": {
          "status": "generated",
          "div": "<div xmlns=\"http://www.w3.org/1999/xhtml\"><table class=\"hl7__eu__lab__report\"><tr><th>Test</th><th>25-Jan-2024</th><th>Reference&#xA0;Range</th><th>Unit</th></tr><tr><td>Urea nitrogen [Mass/volume] in Blood</td><td>12.8</td><td>7 - 25</td><td></td><td>mg/dL</td></tr></table></div>"
        },
        "status": "final",
        "subject": {
          "reference": "urn:uuid:754cbe2c-4adc-41bf-84c9-34f10a0f8b04",
          "display": "Vincenza Porzio"
        },
        "effectiveDateTime": "2024-01-25T18:51:27Z",
        "specimen": {
          "reference": "urn:uuid:d61e2658-656d-403f-a827-b92d8ede1b13"
        }
      }
    },
    {
      "fullUrl": "urn:uuid:f0ed9777-6443-4d73-934c-77237cc28dcd",
      "resource": {
        "resourceType": "Observation",
        "id": "f0ed9777-6443-4d73-934c-77237cc28dcd",
        "meta": {
          "profile": [
            "http://hl7.eu/fhir/laboratory/StructureDefinition/Observation-resultslab-eu-lab"
          ]
        },
        "performer": [
          {
            "display": "The Central European Lab"
          }
        ],
        "category": [
          {
            "coding": [
              {
                "system": "http://terminology.hl7.org/CodeSystem/observation-category",
                "code": "laboratory"
              }
            ]
          }
        ],
        "code": {
          "coding": [
            {
              "code": "38483-4",
              "system": "http://loinc.org",
              "display": "Creatinine [Mass/volume] in Blood"
            }
          ],
          "text": "Creatinine [Mass/volume] in Blood"
        },
        "valueQuantity": {
          "system": "http://unitsofmeasure.org",
          "value": 0.9,
          "unit": "mg/dL",
          "code": "mg/dL"
        },
        "referenceRange": [
          {
            "low": {
              "value": 0.6,
              "code": "mg/dL",
              "system": "http://unitsofmeasure.org"
            }
          },
          {
            "high": {
              "value": 1.1,
              "code": "mg/dL",
              "system": "http://unitsofmeasure.org"
            }
          }
        ],
        "text": {
          "status": "generated",
          "div": "<div xmlns=\"http://www.w3.org/1999/xhtml\"><table class=\"hl7__eu__lab__report\"><tr><th>Test</th><th>25-Jan-2024</th><th>Reference&#xA0;Range</th><th>Unit</th></tr><tr><td>Creatinine [Mass/volume] in Blood</td><td>0.9</td><td>0.6 - 1.1</td><td></td><td>mg/dL</td></tr></table></div>"
        },
        "status": "final",
        "subject": {
          "reference": "urn:uuid:754cbe2c-4adc-41bf-84c9-34f10a0f8b04",
          "display": "Vincenza Porzio"
        },
        "effectiveDateTime": "2024-01-25T18:51:27Z",
        "specimen": {
          "reference": "urn:uuid:d61e2658-656d-403f-a827-b92d8ede1b13"
        }
      }
    },
    {
      "fullUrl": "urn:uuid:ac5dbc31-a700-4303-95c3-74b1957af42b",
      "resource": {
        "resourceType": "Observation",
        "id": "ac5dbc31-a700-4303-95c3-74b1957af42b",
        "meta": {
          "profile": [
            "http://hl7.eu/fhir/laboratory/StructureDefinition/Observation-resultslab-eu-lab"
          ]
        },
        "performer": [
          {
            "display": "The Central European Lab"
          }
        ],
        "category": [
          {
            "coding": [
              {
                "system": "http://terminology.hl7.org/CodeSystem/observation-category",
                "code": "laboratory"
              }
            ]
          }
        ],
        "code": {
          "coding": [
            {
              "code": "49765-1",
              "system": "http://loinc.org",
              "display": "Calcium [Mass/volume] in Blood"
            }
          ],
          "text": "Calcium [Mass/volume] in Blood"
        },
        "valueQuantity": {
          "system": "http://unitsofmeasure.org",
          "value": 9.9,
          "unit": "mg/dL",
          "code": "mg/dL"
        },
        "referenceRange": [
          {
            "low": {
              "value": 8.5,
              "code": "mg/dL",
              "system": "http://unitsofmeasure.org"
            }
          },
          {
            "high": {
              "value": 10.4,
              "code": "mg/dL",
              "system": "http://unitsofmeasure.org"
            }
          }
        ],
        "text": {
          "status": "generated",
          "div": "<div xmlns=\"http://www.w3.org/1999/xhtml\"><table class=\"hl7__eu__lab__report\"><tr><th>Test</th><th>25-Jan-2024</th><th>Reference&#xA0;Range</th><th>Unit</th></tr><tr><td>Calcium [Mass/volume] in Blood</td><td>9.9</td><td>8.5 - 10.4</td><td></td><td>mg/dL</td></tr></table></div>"
        },
        "status": "final",
        "subject": {
          "reference": "urn:uuid:754cbe2c-4adc-41bf-84c9-34f10a0f8b04",
          "display": "Vincenza Porzio"
        },
        "effectiveDateTime": "2024-01-25T18:51:27Z",
        "specimen": {
          "reference": "urn:uuid:d61e2658-656d-403f-a827-b92d8ede1b13"
        }
      }
    },
    {
      "fullUrl": "urn:uuid:ee037a7a-8bed-4693-8bb8-310e10197efa",
      "resource": {
        "resourceType": "Observation",
        "id": "ee037a7a-8bed-4693-8bb8-310e10197efa",
        "meta": {
          "profile": [
            "http://hl7.eu/fhir/laboratory/StructureDefinition/Observation-resultslab-eu-lab"
          ]
        },
        "performer": [
          {
            "display": "The Central European Lab"
          }
        ],
        "category": [
          {
            "coding": [
              {
                "system": "http://terminology.hl7.org/CodeSystem/observation-category",
                "code": "laboratory"
              }
            ]
          }
        ],
        "code": {
          "coding": [
            {
              "code": "2947-0",
              "system": "http://loinc.org",
              "display": "Sodium [Moles/volume] in Blood"
            }
          ],
          "text": "Sodium [Moles/volume] in Blood"
        },
        "valueQuantity": {
          "system": "http://unitsofmeasure.org",
          "value": 143.2,
          "unit": "mmol/L",
          "code": "mmol/L"
        },
        "referenceRange": [
          {
            "low": {
              "value": 135,
              "code": "mmol/L",
              "system": "http://unitsofmeasure.org"
            }
          },
          {
            "high": {
              "value": 145,
              "code": "mmol/L",
              "system": "http://unitsofmeasure.org"
            }
          }
        ],
        "text": {
          "status": "generated",
          "div": "<div xmlns=\"http://www.w3.org/1999/xhtml\"><table class=\"hl7__eu__lab__report\"><tr><th>Test</th><th>25-Jan-2024</th><th>Reference&#xA0;Range</th><th>Unit</th></tr><tr><td>Sodium [Moles/volume] in Blood</td><td>143.2</td><td>135 - 145</td><td></td><td>mmol/L</td></tr></table></div>"
        },
        "status": "final",
        "subject": {
          "reference": "urn:uuid:754cbe2c-4adc-41bf-84c9-34f10a0f8b04",
          "display": "Vincenza Porzio"
        },
        "effectiveDateTime": "2024-01-25T18:51:27Z",
        "specimen": {
          "reference": "urn:uuid:d61e2658-656d-403f-a827-b92d8ede1b13"
        }
      }
    },
    {
      "fullUrl": "urn:uuid:10f656c8-94fa-4985-8d78-b8fb7a08c4cc",
      "resource": {
        "resourceType": "Observation",
        "id": "10f656c8-94fa-4985-8d78-b8fb7a08c4cc",
        "meta": {
          "profile": [
            "http://hl7.eu/fhir/laboratory/StructureDefinition/Observation-resultslab-eu-lab"
          ]
        },
        "performer": [
          {
            "display": "The Central European Lab"
          }
        ],
        "category": [
          {
            "coding": [
              {
                "system": "http://terminology.hl7.org/CodeSystem/observation-category",
                "code": "laboratory"
              }
            ]
          }
        ],
        "code": {
          "coding": [
            {
              "code": "6298-4",
              "system": "http://loinc.org",
              "display": "Potassium [Moles/volume] in Blood"
            }
          ],
          "text": "Potassium [Moles/volume] in Blood"
        },
        "valueQuantity": {
          "system": "http://unitsofmeasure.org",
          "value": 3.9,
          "unit": "mmol/L",
          "code": "mmol/L"
        },
        "referenceRange": [
          {
            "low": {
              "value": 3.5,
              "code": "mmol/L",
              "system": "http://unitsofmeasure.org"
            }
          },
          {
            "high": {
              "value": 5.1,
              "code": "mmol/L",
              "system": "http://unitsofmeasure.org"
            }
          }
        ],
        "text": {
          "status": "generated",
          "div": "<div xmlns=\"http://www.w3.org/1999/xhtml\"><table class=\"hl7__eu__lab__report\"><tr><th>Test</th><th>25-Jan-2024</th><th>Reference&#xA0;Range</th><th>Unit</th></tr><tr><td>Potassium [Moles/volume] in Blood</td><td>3.9</td><td>3.5 - 5.1</td><td></td><td>mmol/L</td></tr></table></div>"
        },
        "status": "final",
        "subject": {
          "reference": "urn:uuid:754cbe2c-4adc-41bf-84c9-34f10a0f8b04",
          "display": "Vincenza Porzio"
        },
        "effectiveDateTime": "2024-01-25T18:51:27Z",
        "specimen": {
          "reference": "urn:uuid:d61e2658-656d-403f-a827-b92d8ede1b13"
        }
      }
    },
    {
      "fullUrl": "urn:uuid:ffb6a22c-84c8-4ad9-a1d8-98388363823c",
      "resource": {
        "resourceType": "Observation",
        "id": "ffb6a22c-84c8-4ad9-a1d8-98388363823c",
        "meta": {
          "profile": [
            "http://hl7.eu/fhir/laboratory/StructureDefinition/Observation-resultslab-eu-lab"
          ]
        },
        "performer": [
          {
            "display": "The Central European Lab"
          }
        ],
        "category": [
          {
            "coding": [
              {
                "system": "http://terminology.hl7.org/CodeSystem/observation-category",
                "code": "laboratory"
              }
            ]
          }
        ],
        "code": {
          "coding": [
            {
              "code": "2069-3",
              "system": "http://loinc.org",
              "display": "Chloride [Moles/volume] in Blood"
            }
          ],
          "text": "Chloride [Moles/volume] in Blood"
        },
        "valueQuantity": {
          "system": "http://unitsofmeasure.org",
          "value": 104.8,
          "unit": "mmol/L",
          "code": "mmol/L"
        },
        "referenceRange": [
          {
            "low": {
              "value": 98,
              "code": "mmol/L",
              "system": "http://unitsofmeasure.org"
            }
          },
          {
            "high": {
              "value": 108,
              "code": "mmol/L",
              "system": "http://unitsofmeasure.org"
            }
          }
        ],
        "text": {
          "status": "generated",
          "div": "<div xmlns=\"http://www.w3.org/1999/xhtml\"><table class=\"hl7__eu__lab__report\"><tr><th>Test</th><th>25-Jan-2024</th><th>Reference&#xA0;Range</th><th>Unit</th></tr><tr><td>Chloride [Moles/volume] in Blood</td><td>104.8</td><td>98 - 108</td><td></td><td>mmol/L</td></tr></table></div>"
        },
        "status": "final",
        "subject": {
          "reference": "urn:uuid:754cbe2c-4adc-41bf-84c9-34f10a0f8b04",
          "display": "Vincenza Porzio"
        },
        "effectiveDateTime": "2024-01-25T18:51:27Z",
        "specimen": {
          "reference": "urn:uuid:d61e2658-656d-403f-a827-b92d8ede1b13"
        }
      }
    },
    {
      "fullUrl": "urn:uuid:2b223b9c-e7b8-4ee4-8f84-0183b2323d52",
      "resource": {
        "resourceType": "Observation",
        "id": "2b223b9c-e7b8-4ee4-8f84-0183b2323d52",
        "meta": {
          "profile": [
            "http://hl7.eu/fhir/laboratory/StructureDefinition/Observation-resultslab-eu-lab"
          ]
        },
        "performer": [
          {
            "display": "The Central European Lab"
          }
        ],
        "category": [
          {
            "coding": [
              {
                "system": "http://terminology.hl7.org/CodeSystem/observation-category",
                "code": "laboratory"
              }
            ]
          }
        ],
        "code": {
          "coding": [
            {
              "code": "20565-8",
              "system": "http://loinc.org",
              "display": "Carbon dioxide, total [Moles/volume] in Blood"
            }
          ],
          "text": "Carbon dioxide, total [Moles/volume] in Blood"
        },
        "valueQuantity": {
          "system": "http://unitsofmeasure.org",
          "value": 24.4,
          "unit": "mmol/L",
          "code": "mmol/L"
        },
        "referenceRange": [
          {
            "low": {
              "value": 22,
              "code": "mmol/L",
              "system": "http://unitsofmeasure.org"
            }
          },
          {
            "high": {
              "value": 29,
              "code": "mmol/L",
              "system": "http://unitsofmeasure.org"
            }
          }
        ],
        "text": {
          "status": "generated",
          "div": "<div xmlns=\"http://www.w3.org/1999/xhtml\"><table class=\"hl7__eu__lab__report\"><tr><th>Test</th><th>25-Jan-2024</th><th>Reference&#xA0;Range</th><th>Unit</th></tr><tr><td>Carbon dioxide, total [Moles/volume] in Blood</td><td>24.4</td><td>22 - 29</td><td></td><td>mmol/L</td></tr></table></div>"
        },
        "status": "final",
        "subject": {
          "reference": "urn:uuid:754cbe2c-4adc-41bf-84c9-34f10a0f8b04",
          "display": "Vincenza Porzio"
        },
        "effectiveDateTime": "2024-01-25T18:51:27Z",
        "specimen": {
          "reference": "urn:uuid:d61e2658-656d-403f-a827-b92d8ede1b13"
        }
      }
    },
    {
      "fullUrl": "urn:uuid:cdfcdcb2-c7f7-445d-a371-99b4bd385033",
      "resource": {
        "resourceType": "Device",
        "id": "cdfcdcb2-c7f7-445d-a371-99b4bd385033",
        "deviceName": [
          {
            "name": "SYNDERAI Synthetic Generator",
            "type": "manufacturer-name"
          }
        ],
        "version": [
          {
            "value": "5.0"
          }
        ],
        "text": {
          "status": "generated",
          "div": "<div xmlns=\"http://www.w3.org/1999/xhtml\">SYNDERAI Synthetic Generator v5.0</div>"
        },
        "status": "active\"",
        "distinctIdentifier": "synderai-generator-50",
        "manufacturer": "SYNDERAI Project"
      }
    },
    {
      "fullUrl": "urn:uuid:ae1190c4-31ef-49a2-a5e6-82351129f636",
      "resource": {
        "resourceType": "Provenance",
        "id": "ae1190c4-31ef-49a2-a5e6-82351129f636",
        "target": [
          {
            "reference": "Patient/754cbe2c-4adc-41bf-84c9-34f10a0f8b04"
          },
          {
            "reference": "Bundle/caa48df8-dafb-43f4-a7b3-99d8aa27a282"
          },
          {
            "reference": "Composition/ccf1b729-cb3c-479d-8bde-a5badb04aba8"
          },
          {
            "reference": "PractitionerRole/f47ba671-b6bb-4a16-a6f2-bb61afdc21cd"
          },
          {
            "reference": "Practitioner/fea82321-ee8a-4aac-83f0-3fd10ff6381b"
          },
          {
            "reference": "PractitionerRole/083b5521-7df7-433a-8372-473dd9e71fe4"
          },
          {
            "reference": "Organization/35f47ed7-297e-4d2c-afdb-5f1e98a7377f"
          }
        ],
        "activity": {
          "text": "Synthetic Example Data Generation"
        },
        "policy": [
          "https://synderai.net/synderai-synthetic-data-policy"
        ],
        "agent": [
          {
            "type": {
              "text": "author"
            },
            "who": {
              "reference": "Device/cdfcdcb2-c7f7-445d-a371-99b4bd385033"
            }
          }
        ],
        "reason": [
          {
            "text": "Interoperability Testing and Training (non-clinical use)"
          }
        ],
        "text": {
          "status": "generated",
          "div": "<div xmlns=\"http://www.w3.org/1999/xhtml\">Provenance for SYNDERAI Synthetic Example Data Resource</div>"
        },
        "recorded": "2024-01-25T19:51:27Z"
      }
    },
    {
      "fullUrl": "urn:uuid:f47ba671-b6bb-4a16-a6f2-bb61afdc21cd",
      "resource": {
        "resourceType": "PractitionerRole",
        "id": "f47ba671-b6bb-4a16-a6f2-bb61afdc21cd",
        "meta": {
          "profile": [
            "http://hl7.eu/fhir/base/StructureDefinition/practitionerRole-eu"
          ]
        },
        "text": {
          "status": "generated",
          "div": "<div xmlns=\"http://www.w3.org/1999/xhtml\">Laboratory Role Id: f47ba671-b6bb-4a16-a6f2-bb61afdc21cd</div>"
        },
        "practitioner": {
          "reference": "urn:uuid:fea82321-ee8a-4aac-83f0-3fd10ff6381b"
        }
      }
    },
    {
      "fullUrl": "urn:uuid:fea82321-ee8a-4aac-83f0-3fd10ff6381b",
      "resource": {
        "resourceType": "Practitioner",
        "id": "fea82321-ee8a-4aac-83f0-3fd10ff6381b",
        "meta": {
          "profile": [
            "http://hl7.eu/fhir/base/StructureDefinition/practitioner-eu"
          ]
        },
        "identifier": [
          {
            "assigner": {
              "display": "HL7 Europe"
            },
            "system": "urn:oid:2.16.840.1.113883.2.51.999",
            "value": "0f7bb1e3-09c7-4065-b04c-4917fc5f730f"
          }
        ],
        "name": [
          {
            "prefix": [
              "dr"
            ],
            "given": [
              "Ex"
            ],
            "family": "Ample"
          }
        ],
        "address": [
          {
            "line": [
              "Laboratoire Central Européenne",
              "Boulevard du Jardin Botanique 32"
            ],
            "postalCode": "1000",
            "city": "Brussels",
            "country": "Belgium"
          }
        ],
        "text": {
          "status": "generated",
          "div": "<div xmlns=\"http://www.w3.org/1999/xhtml\">Laboratory: Laboratoire Central Européenne, 1000 Brussels, Belgium</div>"
        }
      }
    }
  ],
  "type": "document",
  "timestamp": "2024-01-25T19:51:27Z"
}
