{
  "resourceType": "Bundle",
  "id": "26ab7c73-c36a-4233-9b83-9cf85a0ef623",
  "meta": {
    "profile": [
      "http://hl7.eu/fhir/laboratory/StructureDefinition/Bundle-eu-lab"
    ]
  },
  "identifier": {
    "assigner": {
      "display": "HL7 Europe"
    },
    "system": "urn:oid:2.16.840.1.113883.2.51.999",
    "value": "f09a376f-3f9a-4b09-99bf-ef8f09dbea47"
  },
  "entry": [
    {
      "fullUrl": "urn:uuid:ff9f8ea1-8676-4b5b-b10c-854900a1e793",
      "resource": {
        "resourceType": "Composition",
        "id": "ff9f8ea1-8676-4b5b-b10c-854900a1e793",
        "meta": {
          "profile": [
            "http://hl7.eu/fhir/laboratory/StructureDefinition/Composition-eu-lab"
          ]
        },
        "identifier": {
          "assigner": {
            "display": "HL7 Europe"
          },
          "system": "urn:oid:2.16.840.1.113883.2.51.999",
          "value": "4cf86a0b-cdd9-4bf1-8f49-3beddb620228"
        },
        "author": [
          {
            "reference": "urn:uuid:03126281-350f-4461-9e4f-9529f3480945"
          }
        ],
        "category": [
          {
            "coding": [
              {
                "code": "26436-6",
                "system": "http://loinc.org",
                "display": "Laboratory studies (set)"
              }
            ]
          }
        ],
        "type": {
          "coding": [
            {
              "code": "11502-2",
              "system": "http://loinc.org",
              "display": "Laboratory report"
            }
          ],
          "text": "Laboratory Report"
        },
        "section": [
          {
            "code": {
              "coding": [
                {
                  "code": "26436-6",
                  "system": "http://loinc.org",
                  "display": "Laboratory studies (set)"
                }
              ],
              "text": "Laboratory studies"
            },
            "section": [
              {
                "code": {
                  "coding": [
                    {
                      "code": "$18719-5",
                      "system": "http://loinc.org",
                      "display": "Chemistry studies (set)"
                    }
                  ],
                  "text": "Chemistry"
                },
                "entry": [
                  {
                    "reference": "urn:uuid:e7fb9297-733c-4d28-8f6b-5be1d32ec45b"
                  },
                  {
                    "reference": "urn:uuid:fc30c210-5148-4a3a-b39a-84d0341dbaab"
                  },
                  {
                    "reference": "urn:uuid:2df9d05e-acf8-4f42-8f63-eab1f3a53644"
                  },
                  {
                    "reference": "urn:uuid:d31cfce9-8ed9-4464-98d6-200d497dc8de"
                  },
                  {
                    "reference": "urn:uuid:1f504326-7e3d-4890-8115-ea765684e1d6"
                  },
                  {
                    "reference": "urn:uuid:7df710b1-9a7e-4cf6-86b2-d2e4b2831311"
                  },
                  {
                    "reference": "urn:uuid:ba222abc-52ab-4181-addc-dbfce645884e"
                  },
                  {
                    "reference": "urn:uuid:c6b3d695-5a8d-4acd-8eeb-87599cca57b7"
                  },
                  {
                    "reference": "urn:uuid:852c3dc4-7592-4eab-a21b-1b9478490fe4"
                  },
                  {
                    "reference": "urn:uuid:ff1cd49d-5ce1-43aa-90ab-c5ba0e0020b7"
                  },
                  {
                    "reference": "urn:uuid:d8396e5c-f5b4-4e90-988b-481fc1829a7c"
                  },
                  {
                    "reference": "urn:uuid:0f834457-ee09-42a2-aedf-808fdf96c7bb"
                  },
                  {
                    "reference": "urn:uuid:dbc4f4b0-4acf-4164-9a65-13a87594a05f"
                  },
                  {
                    "reference": "urn:uuid:ef87a1fb-4156-467d-b113-6f1c9029d753"
                  },
                  {
                    "reference": "urn:uuid:eaf825fd-50e9-4431-96e6-dbf82b1506dc"
                  },
                  {
                    "reference": "urn:uuid:2f969737-f2fd-4887-8828-eac1cf4c4881"
                  },
                  {
                    "reference": "urn:uuid:995cf4ae-877c-45f3-8e4b-bd3c1a278356"
                  },
                  {
                    "reference": "urn:uuid:a1295445-3c5d-4519-acab-f31d104e45e6"
                  },
                  {
                    "reference": "urn:uuid:8bb0bf67-4470-495e-87d9-76290a26fe6c"
                  }
                ],
                "text": {
                  "status": "generated",
                  "div": "<div xmlns=\"http://www.w3.org/1999/xhtml\"><h3>Chemistry</h3><table class=\"hl7__eu__lab__report\"><thead><tr><th>Test</th><th>11-SEP-2020</th><th>Reference&#xA0;Range</th><th>Unit</th></tr></thead><tbody><tr><td>Glucose [Mass/volume] in Blood</td><td><strong>67.9 L</strong></td><td>70 - 140</td><td>mg/dL</td></tr><tr><td>Urea nitrogen [Mass/volume] in Blood</td><td>16.6</td><td>7 - 20</td><td>mg/dL</td></tr><tr><td>Creatinine [Mass/volume] in Blood</td><td><strong>2.6 H</strong></td><td>0.6 - 1.3</td><td>mg/dL</td></tr><tr><td>Calcium [Mass/volume] in Blood</td><td>9.5</td><td>8.5 - 10.5</td><td>mg/dL</td></tr><tr><td>Sodium [Moles/volume] in Blood</td><td>137.1</td><td>135 - 145</td><td>mmol/L</td></tr><tr><td>Potassium [Moles/volume] in Blood</td><td>5.1</td><td>3.5 - 5.1</td><td>mmol/L</td></tr><tr><td>Chloride [Moles/volume] in Blood</td><td>102.9</td><td>98 - 108</td><td>mmol/L</td></tr><tr><td>Carbon dioxide, total [Moles/volume] in Blood</td><td>25.0</td><td>22 - 32</td><td>mmol/L</td></tr><tr><td>Protein [Mass/volume] in Serum or Plasma</td><td>6.6</td><td>6.6 - 8.3</td><td>g/dL</td></tr><tr><td>Albumin [Mass/volume] in Serum or Plasma</td><td>4.1</td><td>3.5 - 5.5</td><td>g/dL</td></tr><tr><td>Globulin [Mass/volume] in Serum by calculation</td><td>2.8</td><td>2 - 3.5</td><td>g/L</td></tr><tr><td>Bilirubin.total [Mass/volume] in Serum or Plasma</td><td>1.0</td><td>0.3 - 1.2</td><td>mg/dL</td></tr><tr><td>Alkaline phosphatase [Enzymatic activity/volume] in Serum or Plasma</td><td>91.1</td><td>53 - 130</td><td>U/L</td></tr><tr><td>Alanine aminotransferase [Enzymatic activity/volume] in Serum or Plasma</td><td>33.8</td><td>7 - 60</td><td>U/L</td></tr><tr><td>Aspartate aminotransferase [Enzymatic activity/volume] in Serum or Plasma</td><td>30.8</td><td>10 - 49</td><td>U/L</td></tr><tr><td>Cholesterol [Mass/volume] in Serum or Plasma</td><td>196.0</td><td>125 - 200</td><td>mg/dL</td></tr><tr><td>Triglyceride [Mass/volume] in Serum or Plasma</td><td><strong>151.8 H</strong></td><td>40 - 150</td><td>mg/dL</td></tr><tr><td>Cholesterol in LDL [Mass/volume] in Serum or Plasma by Direct assay</td><td>138.6</td><td>0 - 190</td><td>mg/dL</td></tr><tr><td>Cholesterol in HDL [Mass/volume] in Serum or Plasma</td><td>57.1</td><td>40 - 60</td><td>mg/dL</td></tr></tbody></table></div>"
                },
                "title": "Chemistry"
              }
            ],
            "title": "Laboratory Report"
          },
          {
            "text": {
              "status": "generated",
              "div": "<div xmlns=\"http://www.w3.org/1999/xhtml\"><h3>Annotation</h3><table class=\"hl7__eu__lab__report\"><tr><th>Conclusion and Recommendations based on this report and previous findings known to us</th></tr><tr><td>The patient shows mild hypoglycemia and significantly elevated creatinine, suggesting impaired renal function. Triglycerides are slightly above normal, indicating mild dyslipidemia. Liver function, electrolytes, and protein levels are within normal limits. Recommend clinical correlation for renal impairment and monitoring of glucose and lipid levels.</td></tr></table></div>"
            },
            "code": {
              "coding": [
                {
                  "system": "http://loinc.org",
                  "code": "48767-8",
                  "display": "Annotation comment"
                }
              ]
            },
            "title": "Annotation comment"
          }
        ],
        "status": "final",
        "subject": {
          "reference": "urn:uuid:5b7293c1-5890-4367-b00a-4994718bea29",
          "display": "Leonhard Köhler"
        },
        "date": "2020-09-11T04:48:23Z",
        "title": "Laboratory Report",
        "confidentiality": "N"
      }
    },
    {
      "fullUrl": "urn:uuid:ae2d869d-8316-496b-a994-7531a3d41155",
      "resource": {
        "resourceType": "DiagnosticReport",
        "id": "ae2d869d-8316-496b-a994-7531a3d41155",
        "meta": {
          "profile": [
            "http://hl7.eu/fhir/laboratory/StructureDefinition/DiagnosticReport-eu-lab"
          ]
        },
        "identifier": [
          {
            "assigner": {
              "display": "HL7 Europe"
            },
            "system": "urn:oid:2.16.840.1.113883.2.51.999",
            "value": "6fec6eb1-b435-4538-9784-7c81d0b354af"
          }
        ],
        "extension": [
          {
            "url": "http://hl7.org/fhir/5.0/StructureDefinition/extension-DiagnosticReport.composition",
            "valueReference": {
              "reference": "urn:uuid:4cf86a0b-cdd9-4bf1-8f49-3beddb620228"
            }
          }
        ],
        "category": [
          {
            "coding": [
              {
                "code": "26436-6",
                "system": "http://loinc.org",
                "display": "Laboratory studies (set)"
              }
            ]
          }
        ],
        "specimen": [
          {
            "reference": "urn:uuid:76f37f59-1ae2-41a4-9b5a-2478382e55b9"
          },
          {
            "reference": "urn:uuid:d16fc81a-a7b9-46f5-a8ff-6ac66a2e88b0"
          },
          {
            "reference": "urn:uuid:9daafbe8-70fd-463a-8d19-4991946bfde3"
          }
        ],
        "result": [
          {
            "reference": "urn:uuid:e7fb9297-733c-4d28-8f6b-5be1d32ec45b"
          },
          {
            "reference": "urn:uuid:fc30c210-5148-4a3a-b39a-84d0341dbaab"
          },
          {
            "reference": "urn:uuid:2df9d05e-acf8-4f42-8f63-eab1f3a53644"
          },
          {
            "reference": "urn:uuid:d31cfce9-8ed9-4464-98d6-200d497dc8de"
          },
          {
            "reference": "urn:uuid:1f504326-7e3d-4890-8115-ea765684e1d6"
          },
          {
            "reference": "urn:uuid:7df710b1-9a7e-4cf6-86b2-d2e4b2831311"
          },
          {
            "reference": "urn:uuid:ba222abc-52ab-4181-addc-dbfce645884e"
          },
          {
            "reference": "urn:uuid:c6b3d695-5a8d-4acd-8eeb-87599cca57b7"
          },
          {
            "reference": "urn:uuid:852c3dc4-7592-4eab-a21b-1b9478490fe4"
          },
          {
            "reference": "urn:uuid:ff1cd49d-5ce1-43aa-90ab-c5ba0e0020b7"
          },
          {
            "reference": "urn:uuid:d8396e5c-f5b4-4e90-988b-481fc1829a7c"
          },
          {
            "reference": "urn:uuid:0f834457-ee09-42a2-aedf-808fdf96c7bb"
          },
          {
            "reference": "urn:uuid:dbc4f4b0-4acf-4164-9a65-13a87594a05f"
          },
          {
            "reference": "urn:uuid:ef87a1fb-4156-467d-b113-6f1c9029d753"
          },
          {
            "reference": "urn:uuid:eaf825fd-50e9-4431-96e6-dbf82b1506dc"
          },
          {
            "reference": "urn:uuid:2f969737-f2fd-4887-8828-eac1cf4c4881"
          },
          {
            "reference": "urn:uuid:995cf4ae-877c-45f3-8e4b-bd3c1a278356"
          },
          {
            "reference": "urn:uuid:a1295445-3c5d-4519-acab-f31d104e45e6"
          },
          {
            "reference": "urn:uuid:8bb0bf67-4470-495e-87d9-76290a26fe6c"
          }
        ],
        "status": "registered",
        "code": {
          "coding": [
            {
              "code": "11502-2",
              "system": "http://loinc.org",
              "display": "Laboratory report"
            }
          ]
        },
        "subject": {
          "reference": "urn:uuid:5b7293c1-5890-4367-b00a-4994718bea29",
          "display": "Leonhard Köhler"
        }
      }
    },
    {
      "fullUrl": "urn:uuid:5b7293c1-5890-4367-b00a-4994718bea29",
      "resource": {
        "resourceType": "Patient",
        "id": "5b7293c1-5890-4367-b00a-4994718bea29",
        "meta": {
          "security": [
            {
              "system": "http://terminology.hl7.org/CodeSystem/v3-ActReason",
              "code": "HTEST"
            },
            {
              "system": "http://terminology.hl7.org/CodeSystem/v3-ActReason",
              "code": "TRAIN"
            }
          ],
          "tag": [
            {
              "system": "https://synderai.net/fhir/CodeSystem/tags",
              "code": "synthetic",
              "display": "SYNDERAI Synthetic data"
            }
          ],
          "profile": [
            "http://hl7.eu/fhir/base/StructureDefinition/patient-eu-core"
          ]
        },
        "identifier": [
          {
            "type": {
              "coding": [
                {
                  "code": "PT",
                  "system": "http://terminology.hl7.org/CodeSystem/v2-0203"
                }
              ]
            },
            "system": "http://ec.europa.eu/identifier/eci",
            "value": "5321-442678-4"
          },
          {
            "type": {
              "coding": [
                {
                  "code": "MR",
                  "system": "http://terminology.hl7.org/CodeSystem/v2-0203"
                }
              ]
            },
            "system": "http://local.setting.eu/identifier",
            "value": "ffa9f0d8-c016-d46c-e666-000f53715b47"
          }
        ],
        "name": [
          {
            "family": "Köhler"
          },
          {
            "given": [
              "Leonhard"
            ]
          },
          {
            "text": "Leonhard Köhler"
          }
        ],
        "address": [
          {
            "line": [
              "Henckweg 97/34"
            ],
            "use": "home",
            "type": "physical",
            "postalCode": "87629",
            "city": "Füssen",
            "country": "Germany"
          }
        ],
        "telecom": [
          {
            "system": "phone",
            "value": "00028839855"
          }
        ],
        "extension": [
          {
            "url": "http://hl7.org/fhir/StructureDefinition/patient-nationality",
            "valueCodeableConcept": {
              "coding": [
                {
                  "code": "DE",
                  "system": "http://hl7.org/fhir/ValueSet/country"
                }
              ]
            }
          }
        ],
        "text": {
          "status": "generated",
          "div": "<div xmlns=\"http://www.w3.org/1999/xhtml\"><table class=\"hl7__ips\"><tr><td>Leonhard Köhler</td><td>male</td><td>19-Dec-1949</td></tr></table></div>"
        },
        "gender": "male",
        "birthDate": "1949-12-19"
      }
    },
    {
      "fullUrl": "urn:uuid:d9275899-81e0-42d8-ae36-cca0ca0ed803",
      "resource": {
        "resourceType": "ServiceRequest",
        "id": "d9275899-81e0-42d8-ae36-cca0ca0ed803",
        "meta": {
          "profile": [
            "http://hl7.eu/fhir/laboratory/StructureDefinition/ServiceRequest-eu-lab"
          ]
        },
        "identifier": [
          {
            "system": "http://example.org",
            "value": "1e90b049-c7b3-48d1-a577-e1def637e0dd"
          }
        ],
        "specimen": [
          {
            "reference": "urn:uuid:76f37f59-1ae2-41a4-9b5a-2478382e55b9"
          },
          {
            "reference": "urn:uuid:d16fc81a-a7b9-46f5-a8ff-6ac66a2e88b0"
          },
          {
            "reference": "urn:uuid:9daafbe8-70fd-463a-8d19-4991946bfde3"
          }
        ],
        "reasonCode": [
          {
            "coding": [
              {
                "code": "55822004",
                "system": "http://snomed.info/sct",
                "display": "Hyperlipidemia"
              }
            ]
          },
          {
            "coding": [
              {
                "code": "414545008",
                "system": "http://snomed.info/sct",
                "display": "Ischemic heart disease"
              }
            ]
          },
          {
            "coding": [
              {
                "code": "59621000",
                "system": "http://snomed.info/sct",
                "display": "Essential hypertension"
              }
            ]
          },
          {
            "coding": [
              {
                "code": "239873007",
                "system": "http://snomed.info/sct",
                "display": "Osteoarthritis of knee"
              }
            ]
          },
          {
            "coding": [
              {
                "code": "271737000",
                "system": "http://snomed.info/sct",
                "display": "Anemia"
              }
            ]
          },
          {
            "coding": [
              {
                "code": "15777000",
                "system": "http://snomed.info/sct",
                "display": "Prediabetes"
              }
            ]
          }
        ],
        "status": "active",
        "intent": "order",
        "code": {
          "coding": [
            {
              "code": "108252007",
              "system": "http://snomed.info/sct",
              "display": "Laboratory procedure"
            }
          ]
        },
        "subject": {
          "reference": "urn:uuid:5b7293c1-5890-4367-b00a-4994718bea29",
          "display": "Leonhard Köhler"
        },
        "requester": {
          "reference": "urn:uuid:11d40794-9afa-4f4c-b306-d4e7965c8767"
        }
      }
    },
    {
      "fullUrl": "urn:uuid:11d40794-9afa-4f4c-b306-d4e7965c8767",
      "resource": {
        "resourceType": "PractitionerRole",
        "id": "11d40794-9afa-4f4c-b306-d4e7965c8767",
        "meta": {
          "profile": [
            "http://hl7.eu/fhir/base/StructureDefinition/practitionerRole-eu"
          ]
        },
        "text": {
          "status": "generated",
          "div": "<div xmlns=\"http://www.w3.org/1999/xhtml\">Provider Role Id: 11d40794-9afa-4f4c-b306-d4e7965c8767</div>"
        },
        "organization": {
          "reference": "urn:uuid:e5d49bf4-8341-4519-af73-0bdccf380319"
        }
      }
    },
    {
      "fullUrl": "urn:uuid:e5d49bf4-8341-4519-af73-0bdccf380319",
      "resource": {
        "resourceType": "Organization",
        "id": "e5d49bf4-8341-4519-af73-0bdccf380319",
        "meta": {
          "profile": [
            "http://hl7.eu/fhir/base/StructureDefinition/organization-eu"
          ]
        },
        "identifier": [
          {
            "assigner": {
              "display": "HL7 Europe"
            },
            "system": "urn:oid:2.16.840.1.113883.2.51.999",
            "value": "956d6cd1-3879-4aa1-979a-0739672ed10d"
          }
        ],
        "address": [
          {
            "line": [
              "Feistlestraße 2"
            ],
            "city": "Füssen",
            "postalCode": "87629",
            "country": "Germany"
          }
        ],
        "text": {
          "status": "generated",
          "div": "<div xmlns=\"http://www.w3.org/1999/xhtml\">Provider Organization: hier ist kein Ärztehaus</div>"
        },
        "name": "hier ist kein Ärztehaus"
      }
    },
    {
      "fullUrl": "urn:uuid:76f37f59-1ae2-41a4-9b5a-2478382e55b9",
      "resource": {
        "resourceType": "Specimen",
        "id": "76f37f59-1ae2-41a4-9b5a-2478382e55b9",
        "meta": {
          "profile": [
            "http://hl7.eu/fhir/laboratory/StructureDefinition/Specimen-eu-lab"
          ]
        },
        "collection": {
          "collectedDateTime": "2020-09-11"
        },
        "text": {
          "status": "generated",
          "div": "<div xmlns=\"http://www.w3.org/1999/xhtml\"><table class=\"hl7__eu__lab__report\"><tr><th>Specimen</th><th>Collection Date</th></tr><tr><td>Whole blood specimen (specimen)</td><td><span class=\"nb\">11-Sep-2020</span></td></tr></table></div>"
        },
        "type": {
          "coding": [
            {
              "code": "258580003",
              "system": "http://snomed.info/sct",
              "display": "Whole blood specimen (specimen)"
            }
          ]
        }
      }
    },
    {
      "fullUrl": "urn:uuid:d16fc81a-a7b9-46f5-a8ff-6ac66a2e88b0",
      "resource": {
        "resourceType": "Specimen",
        "id": "d16fc81a-a7b9-46f5-a8ff-6ac66a2e88b0",
        "meta": {
          "profile": [
            "http://hl7.eu/fhir/laboratory/StructureDefinition/Specimen-eu-lab"
          ]
        },
        "collection": {
          "collectedDateTime": "2020-09-11"
        },
        "text": {
          "status": "generated",
          "div": "<div xmlns=\"http://www.w3.org/1999/xhtml\"><table class=\"hl7__eu__lab__report\"><tr><th>Specimen</th><th>Collection Date</th></tr><tr><td>Acellular blood (serum or plasma) specimen</td><td><span class=\"nb\">11-Sep-2020</span></td></tr></table></div>"
        },
        "type": {
          "coding": [
            {
              "code": "122592007",
              "system": "http://snomed.info/sct",
              "display": "Acellular blood (serum or plasma) specimen"
            }
          ]
        }
      }
    },
    {
      "fullUrl": "urn:uuid:9daafbe8-70fd-463a-8d19-4991946bfde3",
      "resource": {
        "resourceType": "Specimen",
        "id": "9daafbe8-70fd-463a-8d19-4991946bfde3",
        "meta": {
          "profile": [
            "http://hl7.eu/fhir/laboratory/StructureDefinition/Specimen-eu-lab"
          ]
        },
        "collection": {
          "collectedDateTime": "2020-09-11"
        },
        "text": {
          "status": "generated",
          "div": "<div xmlns=\"http://www.w3.org/1999/xhtml\"><table class=\"hl7__eu__lab__report\"><tr><th>Specimen</th><th>Collection Date</th></tr><tr><td>Serum specimen</td><td><span class=\"nb\">11-Sep-2020</span></td></tr></table></div>"
        },
        "type": {
          "coding": [
            {
              "code": "119364003",
              "system": "http://snomed.info/sct",
              "display": "Serum specimen"
            }
          ]
        }
      }
    },
    {
      "fullUrl": "urn:uuid:e7fb9297-733c-4d28-8f6b-5be1d32ec45b",
      "resource": {
        "resourceType": "Observation",
        "id": "e7fb9297-733c-4d28-8f6b-5be1d32ec45b",
        "meta": {
          "profile": [
            "http://hl7.eu/fhir/laboratory/StructureDefinition/Observation-resultslab-eu-lab"
          ]
        },
        "performer": [
          {
            "display": "The Central European Lab"
          }
        ],
        "category": [
          {
            "coding": [
              {
                "system": "http://terminology.hl7.org/CodeSystem/observation-category",
                "code": "laboratory"
              }
            ]
          }
        ],
        "code": {
          "coding": [
            {
              "code": "2339-0",
              "system": "http://loinc.org",
              "display": "Glucose [Mass/volume] in Blood"
            }
          ],
          "text": "Glucose [Mass/volume] in Blood"
        },
        "valueQuantity": {
          "system": "http://unitsofmeasure.org",
          "value": 67.9,
          "unit": "mg/dL",
          "code": "mg/dL"
        },
        "referenceRange": [
          {
            "low": {
              "value": 70,
              "code": "mg/dL",
              "system": "http://unitsofmeasure.org"
            }
          },
          {
            "high": {
              "value": 140,
              "code": "mg/dL",
              "system": "http://unitsofmeasure.org"
            }
          }
        ],
        "interpretation": [
          {
            "coding": [
              {
                "code": "L",
                "system": "http://terminology.hl7.org/CodeSystem/v3-ObservationInterpretation",
                "display": "Low"
              }
            ]
          }
        ],
        "text": {
          "status": "generated",
          "div": "<div xmlns=\"http://www.w3.org/1999/xhtml\"><table class=\"hl7__eu__lab__report\"><tr><th>Test</th><th>11-Sep-2020</th><th>Reference&#xA0;Range</th><th>Unit</th></tr><tr><td>Glucose [Mass/volume] in Blood</td><td>67.9</td><td>70 - 140</td><td>L</td><td>mg/dL</td></tr></table></div>"
        },
        "status": "final",
        "subject": {
          "reference": "urn:uuid:5b7293c1-5890-4367-b00a-4994718bea29",
          "display": "Leonhard Köhler"
        },
        "effectiveDateTime": "2020-09-11T02:48:23Z",
        "specimen": {
          "reference": "urn:uuid:76f37f59-1ae2-41a4-9b5a-2478382e55b9"
        }
      }
    },
    {
      "fullUrl": "urn:uuid:fc30c210-5148-4a3a-b39a-84d0341dbaab",
      "resource": {
        "resourceType": "Observation",
        "id": "fc30c210-5148-4a3a-b39a-84d0341dbaab",
        "meta": {
          "profile": [
            "http://hl7.eu/fhir/laboratory/StructureDefinition/Observation-resultslab-eu-lab"
          ]
        },
        "performer": [
          {
            "display": "The Central European Lab"
          }
        ],
        "category": [
          {
            "coding": [
              {
                "system": "http://terminology.hl7.org/CodeSystem/observation-category",
                "code": "laboratory"
              }
            ]
          }
        ],
        "code": {
          "coding": [
            {
              "code": "6299-2",
              "system": "http://loinc.org",
              "display": "Urea nitrogen [Mass/volume] in Blood"
            }
          ],
          "text": "Urea nitrogen [Mass/volume] in Blood"
        },
        "valueQuantity": {
          "system": "http://unitsofmeasure.org",
          "value": 16.6,
          "unit": "mg/dL",
          "code": "mg/dL"
        },
        "referenceRange": [
          {
            "low": {
              "value": 7,
              "code": "mg/dL",
              "system": "http://unitsofmeasure.org"
            }
          },
          {
            "high": {
              "value": 20,
              "code": "mg/dL",
              "system": "http://unitsofmeasure.org"
            }
          }
        ],
        "text": {
          "status": "generated",
          "div": "<div xmlns=\"http://www.w3.org/1999/xhtml\"><table class=\"hl7__eu__lab__report\"><tr><th>Test</th><th>11-Sep-2020</th><th>Reference&#xA0;Range</th><th>Unit</th></tr><tr><td>Urea nitrogen [Mass/volume] in Blood</td><td>16.6</td><td>7 - 20</td><td></td><td>mg/dL</td></tr></table></div>"
        },
        "status": "final",
        "subject": {
          "reference": "urn:uuid:5b7293c1-5890-4367-b00a-4994718bea29",
          "display": "Leonhard Köhler"
        },
        "effectiveDateTime": "2020-09-11T02:48:23Z",
        "specimen": {
          "reference": "urn:uuid:76f37f59-1ae2-41a4-9b5a-2478382e55b9"
        }
      }
    },
    {
      "fullUrl": "urn:uuid:2df9d05e-acf8-4f42-8f63-eab1f3a53644",
      "resource": {
        "resourceType": "Observation",
        "id": "2df9d05e-acf8-4f42-8f63-eab1f3a53644",
        "meta": {
          "profile": [
            "http://hl7.eu/fhir/laboratory/StructureDefinition/Observation-resultslab-eu-lab"
          ]
        },
        "performer": [
          {
            "display": "The Central European Lab"
          }
        ],
        "category": [
          {
            "coding": [
              {
                "system": "http://terminology.hl7.org/CodeSystem/observation-category",
                "code": "laboratory"
              }
            ]
          }
        ],
        "code": {
          "coding": [
            {
              "code": "38483-4",
              "system": "http://loinc.org",
              "display": "Creatinine [Mass/volume] in Blood"
            }
          ],
          "text": "Creatinine [Mass/volume] in Blood"
        },
        "valueQuantity": {
          "system": "http://unitsofmeasure.org",
          "value": 2.6,
          "unit": "mg/dL",
          "code": "mg/dL"
        },
        "referenceRange": [
          {
            "low": {
              "value": 0.6,
              "code": "mg/dL",
              "system": "http://unitsofmeasure.org"
            }
          },
          {
            "high": {
              "value": 1.3,
              "code": "mg/dL",
              "system": "http://unitsofmeasure.org"
            }
          }
        ],
        "interpretation": [
          {
            "coding": [
              {
                "code": "H",
                "system": "http://terminology.hl7.org/CodeSystem/v3-ObservationInterpretation",
                "display": "High"
              }
            ]
          }
        ],
        "text": {
          "status": "generated",
          "div": "<div xmlns=\"http://www.w3.org/1999/xhtml\"><table class=\"hl7__eu__lab__report\"><tr><th>Test</th><th>11-Sep-2020</th><th>Reference&#xA0;Range</th><th>Unit</th></tr><tr><td>Creatinine [Mass/volume] in Blood</td><td>2.6</td><td>0.6 - 1.3</td><td>H</td><td>mg/dL</td></tr></table></div>"
        },
        "status": "final",
        "subject": {
          "reference": "urn:uuid:5b7293c1-5890-4367-b00a-4994718bea29",
          "display": "Leonhard Köhler"
        },
        "effectiveDateTime": "2020-09-11T02:48:23Z",
        "specimen": {
          "reference": "urn:uuid:76f37f59-1ae2-41a4-9b5a-2478382e55b9"
        }
      }
    },
    {
      "fullUrl": "urn:uuid:d31cfce9-8ed9-4464-98d6-200d497dc8de",
      "resource": {
        "resourceType": "Observation",
        "id": "d31cfce9-8ed9-4464-98d6-200d497dc8de",
        "meta": {
          "profile": [
            "http://hl7.eu/fhir/laboratory/StructureDefinition/Observation-resultslab-eu-lab"
          ]
        },
        "performer": [
          {
            "display": "The Central European Lab"
          }
        ],
        "category": [
          {
            "coding": [
              {
                "system": "http://terminology.hl7.org/CodeSystem/observation-category",
                "code": "laboratory"
              }
            ]
          }
        ],
        "code": {
          "coding": [
            {
              "code": "49765-1",
              "system": "http://loinc.org",
              "display": "Calcium [Mass/volume] in Blood"
            }
          ],
          "text": "Calcium [Mass/volume] in Blood"
        },
        "valueQuantity": {
          "system": "http://unitsofmeasure.org",
          "value": 9.5,
          "unit": "mg/dL",
          "code": "mg/dL"
        },
        "referenceRange": [
          {
            "low": {
              "value": 8.5,
              "code": "mg/dL",
              "system": "http://unitsofmeasure.org"
            }
          },
          {
            "high": {
              "value": 10.5,
              "code": "mg/dL",
              "system": "http://unitsofmeasure.org"
            }
          }
        ],
        "text": {
          "status": "generated",
          "div": "<div xmlns=\"http://www.w3.org/1999/xhtml\"><table class=\"hl7__eu__lab__report\"><tr><th>Test</th><th>11-Sep-2020</th><th>Reference&#xA0;Range</th><th>Unit</th></tr><tr><td>Calcium [Mass/volume] in Blood</td><td>9.5</td><td>8.5 - 10.5</td><td></td><td>mg/dL</td></tr></table></div>"
        },
        "status": "final",
        "subject": {
          "reference": "urn:uuid:5b7293c1-5890-4367-b00a-4994718bea29",
          "display": "Leonhard Köhler"
        },
        "effectiveDateTime": "2020-09-11T02:48:23Z",
        "specimen": {
          "reference": "urn:uuid:76f37f59-1ae2-41a4-9b5a-2478382e55b9"
        }
      }
    },
    {
      "fullUrl": "urn:uuid:1f504326-7e3d-4890-8115-ea765684e1d6",
      "resource": {
        "resourceType": "Observation",
        "id": "1f504326-7e3d-4890-8115-ea765684e1d6",
        "meta": {
          "profile": [
            "http://hl7.eu/fhir/laboratory/StructureDefinition/Observation-resultslab-eu-lab"
          ]
        },
        "performer": [
          {
            "display": "The Central European Lab"
          }
        ],
        "category": [
          {
            "coding": [
              {
                "system": "http://terminology.hl7.org/CodeSystem/observation-category",
                "code": "laboratory"
              }
            ]
          }
        ],
        "code": {
          "coding": [
            {
              "code": "2947-0",
              "system": "http://loinc.org",
              "display": "Sodium [Moles/volume] in Blood"
            }
          ],
          "text": "Sodium [Moles/volume] in Blood"
        },
        "valueQuantity": {
          "system": "http://unitsofmeasure.org",
          "value": 137.1,
          "unit": "mmol/L",
          "code": "mmol/L"
        },
        "referenceRange": [
          {
            "low": {
              "value": 135,
              "code": "mmol/L",
              "system": "http://unitsofmeasure.org"
            }
          },
          {
            "high": {
              "value": 145,
              "code": "mmol/L",
              "system": "http://unitsofmeasure.org"
            }
          }
        ],
        "text": {
          "status": "generated",
          "div": "<div xmlns=\"http://www.w3.org/1999/xhtml\"><table class=\"hl7__eu__lab__report\"><tr><th>Test</th><th>11-Sep-2020</th><th>Reference&#xA0;Range</th><th>Unit</th></tr><tr><td>Sodium [Moles/volume] in Blood</td><td>137.1</td><td>135 - 145</td><td></td><td>mmol/L</td></tr></table></div>"
        },
        "status": "final",
        "subject": {
          "reference": "urn:uuid:5b7293c1-5890-4367-b00a-4994718bea29",
          "display": "Leonhard Köhler"
        },
        "effectiveDateTime": "2020-09-11T02:48:23Z",
        "specimen": {
          "reference": "urn:uuid:76f37f59-1ae2-41a4-9b5a-2478382e55b9"
        }
      }
    },
    {
      "fullUrl": "urn:uuid:7df710b1-9a7e-4cf6-86b2-d2e4b2831311",
      "resource": {
        "resourceType": "Observation",
        "id": "7df710b1-9a7e-4cf6-86b2-d2e4b2831311",
        "meta": {
          "profile": [
            "http://hl7.eu/fhir/laboratory/StructureDefinition/Observation-resultslab-eu-lab"
          ]
        },
        "performer": [
          {
            "display": "The Central European Lab"
          }
        ],
        "category": [
          {
            "coding": [
              {
                "system": "http://terminology.hl7.org/CodeSystem/observation-category",
                "code": "laboratory"
              }
            ]
          }
        ],
        "code": {
          "coding": [
            {
              "code": "6298-4",
              "system": "http://loinc.org",
              "display": "Potassium [Moles/volume] in Blood"
            }
          ],
          "text": "Potassium [Moles/volume] in Blood"
        },
        "valueQuantity": {
          "system": "http://unitsofmeasure.org",
          "value": 5.1,
          "unit": "mmol/L",
          "code": "mmol/L"
        },
        "referenceRange": [
          {
            "low": {
              "value": 3.5,
              "code": "mmol/L",
              "system": "http://unitsofmeasure.org"
            }
          },
          {
            "high": {
              "value": 5.1,
              "code": "mmol/L",
              "system": "http://unitsofmeasure.org"
            }
          }
        ],
        "text": {
          "status": "generated",
          "div": "<div xmlns=\"http://www.w3.org/1999/xhtml\"><table class=\"hl7__eu__lab__report\"><tr><th>Test</th><th>11-Sep-2020</th><th>Reference&#xA0;Range</th><th>Unit</th></tr><tr><td>Potassium [Moles/volume] in Blood</td><td>5.1</td><td>3.5 - 5.1</td><td></td><td>mmol/L</td></tr></table></div>"
        },
        "status": "final",
        "subject": {
          "reference": "urn:uuid:5b7293c1-5890-4367-b00a-4994718bea29",
          "display": "Leonhard Köhler"
        },
        "effectiveDateTime": "2020-09-11T02:48:23Z",
        "specimen": {
          "reference": "urn:uuid:76f37f59-1ae2-41a4-9b5a-2478382e55b9"
        }
      }
    },
    {
      "fullUrl": "urn:uuid:ba222abc-52ab-4181-addc-dbfce645884e",
      "resource": {
        "resourceType": "Observation",
        "id": "ba222abc-52ab-4181-addc-dbfce645884e",
        "meta": {
          "profile": [
            "http://hl7.eu/fhir/laboratory/StructureDefinition/Observation-resultslab-eu-lab"
          ]
        },
        "performer": [
          {
            "display": "The Central European Lab"
          }
        ],
        "category": [
          {
            "coding": [
              {
                "system": "http://terminology.hl7.org/CodeSystem/observation-category",
                "code": "laboratory"
              }
            ]
          }
        ],
        "code": {
          "coding": [
            {
              "code": "2069-3",
              "system": "http://loinc.org",
              "display": "Chloride [Moles/volume] in Blood"
            }
          ],
          "text": "Chloride [Moles/volume] in Blood"
        },
        "valueQuantity": {
          "system": "http://unitsofmeasure.org",
          "value": 102.9,
          "unit": "mmol/L",
          "code": "mmol/L"
        },
        "referenceRange": [
          {
            "low": {
              "value": 98,
              "code": "mmol/L",
              "system": "http://unitsofmeasure.org"
            }
          },
          {
            "high": {
              "value": 108,
              "code": "mmol/L",
              "system": "http://unitsofmeasure.org"
            }
          }
        ],
        "text": {
          "status": "generated",
          "div": "<div xmlns=\"http://www.w3.org/1999/xhtml\"><table class=\"hl7__eu__lab__report\"><tr><th>Test</th><th>11-Sep-2020</th><th>Reference&#xA0;Range</th><th>Unit</th></tr><tr><td>Chloride [Moles/volume] in Blood</td><td>102.9</td><td>98 - 108</td><td></td><td>mmol/L</td></tr></table></div>"
        },
        "status": "final",
        "subject": {
          "reference": "urn:uuid:5b7293c1-5890-4367-b00a-4994718bea29",
          "display": "Leonhard Köhler"
        },
        "effectiveDateTime": "2020-09-11T02:48:23Z",
        "specimen": {
          "reference": "urn:uuid:76f37f59-1ae2-41a4-9b5a-2478382e55b9"
        }
      }
    },
    {
      "fullUrl": "urn:uuid:c6b3d695-5a8d-4acd-8eeb-87599cca57b7",
      "resource": {
        "resourceType": "Observation",
        "id": "c6b3d695-5a8d-4acd-8eeb-87599cca57b7",
        "meta": {
          "profile": [
            "http://hl7.eu/fhir/laboratory/StructureDefinition/Observation-resultslab-eu-lab"
          ]
        },
        "performer": [
          {
            "display": "The Central European Lab"
          }
        ],
        "category": [
          {
            "coding": [
              {
                "system": "http://terminology.hl7.org/CodeSystem/observation-category",
                "code": "laboratory"
              }
            ]
          }
        ],
        "code": {
          "coding": [
            {
              "code": "20565-8",
              "system": "http://loinc.org",
              "display": "Carbon dioxide, total [Moles/volume] in Blood"
            }
          ],
          "text": "Carbon dioxide, total [Moles/volume] in Blood"
        },
        "valueQuantity": {
          "system": "http://unitsofmeasure.org",
          "value": 25,
          "unit": "mmol/L",
          "code": "mmol/L"
        },
        "referenceRange": [
          {
            "low": {
              "value": 22,
              "code": "mmol/L",
              "system": "http://unitsofmeasure.org"
            }
          },
          {
            "high": {
              "value": 32,
              "code": "mmol/L",
              "system": "http://unitsofmeasure.org"
            }
          }
        ],
        "text": {
          "status": "generated",
          "div": "<div xmlns=\"http://www.w3.org/1999/xhtml\"><table class=\"hl7__eu__lab__report\"><tr><th>Test</th><th>11-Sep-2020</th><th>Reference&#xA0;Range</th><th>Unit</th></tr><tr><td>Carbon dioxide, total [Moles/volume] in Blood</td><td>25.0</td><td>22 - 32</td><td></td><td>mmol/L</td></tr></table></div>"
        },
        "status": "final",
        "subject": {
          "reference": "urn:uuid:5b7293c1-5890-4367-b00a-4994718bea29",
          "display": "Leonhard Köhler"
        },
        "effectiveDateTime": "2020-09-11T02:48:23Z",
        "specimen": {
          "reference": "urn:uuid:76f37f59-1ae2-41a4-9b5a-2478382e55b9"
        }
      }
    },
    {
      "fullUrl": "urn:uuid:852c3dc4-7592-4eab-a21b-1b9478490fe4",
      "resource": {
        "resourceType": "Observation",
        "id": "852c3dc4-7592-4eab-a21b-1b9478490fe4",
        "meta": {
          "profile": [
            "http://hl7.eu/fhir/laboratory/StructureDefinition/Observation-resultslab-eu-lab"
          ]
        },
        "performer": [
          {
            "display": "The Central European Lab"
          }
        ],
        "category": [
          {
            "coding": [
              {
                "system": "http://terminology.hl7.org/CodeSystem/observation-category",
                "code": "laboratory"
              }
            ]
          }
        ],
        "code": {
          "coding": [
            {
              "code": "2885-2",
              "system": "http://loinc.org",
              "display": "Protein [Mass/volume] in Serum or Plasma"
            }
          ],
          "text": "Protein [Mass/volume] in Serum or Plasma"
        },
        "valueQuantity": {
          "system": "http://unitsofmeasure.org",
          "value": 6.6,
          "unit": "g/dL",
          "code": "g/dL"
        },
        "referenceRange": [
          {
            "low": {
              "value": 6.6,
              "code": "g/dL",
              "system": "http://unitsofmeasure.org"
            }
          },
          {
            "high": {
              "value": 8.3,
              "code": "g/dL",
              "system": "http://unitsofmeasure.org"
            }
          }
        ],
        "text": {
          "status": "generated",
          "div": "<div xmlns=\"http://www.w3.org/1999/xhtml\"><table class=\"hl7__eu__lab__report\"><tr><th>Test</th><th>11-Sep-2020</th><th>Reference&#xA0;Range</th><th>Unit</th></tr><tr><td>Protein [Mass/volume] in Serum or Plasma</td><td>6.6</td><td>6.6 - 8.3</td><td></td><td>g/dL</td></tr></table></div>"
        },
        "status": "final",
        "subject": {
          "reference": "urn:uuid:5b7293c1-5890-4367-b00a-4994718bea29",
          "display": "Leonhard Köhler"
        },
        "effectiveDateTime": "2020-09-11T02:48:23Z",
        "specimen": {
          "reference": "urn:uuid:d16fc81a-a7b9-46f5-a8ff-6ac66a2e88b0"
        }
      }
    },
    {
      "fullUrl": "urn:uuid:ff1cd49d-5ce1-43aa-90ab-c5ba0e0020b7",
      "resource": {
        "resourceType": "Observation",
        "id": "ff1cd49d-5ce1-43aa-90ab-c5ba0e0020b7",
        "meta": {
          "profile": [
            "http://hl7.eu/fhir/laboratory/StructureDefinition/Observation-resultslab-eu-lab"
          ]
        },
        "performer": [
          {
            "display": "The Central European Lab"
          }
        ],
        "category": [
          {
            "coding": [
              {
                "system": "http://terminology.hl7.org/CodeSystem/observation-category",
                "code": "laboratory"
              }
            ]
          }
        ],
        "code": {
          "coding": [
            {
              "code": "1751-7",
              "system": "http://loinc.org",
              "display": "Albumin [Mass/volume] in Serum or Plasma"
            }
          ],
          "text": "Albumin [Mass/volume] in Serum or Plasma"
        },
        "valueQuantity": {
          "system": "http://unitsofmeasure.org",
          "value": 4.1,
          "unit": "g/dL",
          "code": "g/dL"
        },
        "referenceRange": [
          {
            "low": {
              "value": 3.5,
              "code": "g/dL",
              "system": "http://unitsofmeasure.org"
            }
          },
          {
            "high": {
              "value": 5.5,
              "code": "g/dL",
              "system": "http://unitsofmeasure.org"
            }
          }
        ],
        "text": {
          "status": "generated",
          "div": "<div xmlns=\"http://www.w3.org/1999/xhtml\"><table class=\"hl7__eu__lab__report\"><tr><th>Test</th><th>11-Sep-2020</th><th>Reference&#xA0;Range</th><th>Unit</th></tr><tr><td>Albumin [Mass/volume] in Serum or Plasma</td><td>4.1</td><td>3.5 - 5.5</td><td></td><td>g/dL</td></tr></table></div>"
        },
        "status": "final",
        "subject": {
          "reference": "urn:uuid:5b7293c1-5890-4367-b00a-4994718bea29",
          "display": "Leonhard Köhler"
        },
        "effectiveDateTime": "2020-09-11T02:48:23Z",
        "specimen": {
          "reference": "urn:uuid:d16fc81a-a7b9-46f5-a8ff-6ac66a2e88b0"
        }
      }
    },
    {
      "fullUrl": "urn:uuid:d8396e5c-f5b4-4e90-988b-481fc1829a7c",
      "resource": {
        "resourceType": "Observation",
        "id": "d8396e5c-f5b4-4e90-988b-481fc1829a7c",
        "meta": {
          "profile": [
            "http://hl7.eu/fhir/laboratory/StructureDefinition/Observation-resultslab-eu-lab"
          ]
        },
        "performer": [
          {
            "display": "The Central European Lab"
          }
        ],
        "category": [
          {
            "coding": [
              {
                "system": "http://terminology.hl7.org/CodeSystem/observation-category",
                "code": "laboratory"
              }
            ]
          }
        ],
        "code": {
          "coding": [
            {
              "code": "10834-0",
              "system": "http://loinc.org",
              "display": "Globulin [Mass/volume] in Serum by calculation"
            }
          ],
          "text": "Globulin [Mass/volume] in Serum by calculation"
        },
        "valueQuantity": {
          "system": "http://unitsofmeasure.org",
          "value": 2.8,
          "unit": "g/L",
          "code": "g/L"
        },
        "referenceRange": [
          {
            "low": {
              "value": 2,
              "code": "g/L",
              "system": "http://unitsofmeasure.org"
            }
          },
          {
            "high": {
              "value": 3.5,
              "code": "g/L",
              "system": "http://unitsofmeasure.org"
            }
          }
        ],
        "text": {
          "status": "generated",
          "div": "<div xmlns=\"http://www.w3.org/1999/xhtml\"><table class=\"hl7__eu__lab__report\"><tr><th>Test</th><th>11-Sep-2020</th><th>Reference&#xA0;Range</th><th>Unit</th></tr><tr><td>Globulin [Mass/volume] in Serum by calculation</td><td>2.8</td><td>2 - 3.5</td><td></td><td>g/L</td></tr></table></div>"
        },
        "status": "final",
        "subject": {
          "reference": "urn:uuid:5b7293c1-5890-4367-b00a-4994718bea29",
          "display": "Leonhard Köhler"
        },
        "effectiveDateTime": "2020-09-11T02:48:23Z",
        "specimen": {
          "reference": "urn:uuid:9daafbe8-70fd-463a-8d19-4991946bfde3"
        }
      }
    },
    {
      "fullUrl": "urn:uuid:0f834457-ee09-42a2-aedf-808fdf96c7bb",
      "resource": {
        "resourceType": "Observation",
        "id": "0f834457-ee09-42a2-aedf-808fdf96c7bb",
        "meta": {
          "profile": [
            "http://hl7.eu/fhir/laboratory/StructureDefinition/Observation-resultslab-eu-lab"
          ]
        },
        "performer": [
          {
            "display": "The Central European Lab"
          }
        ],
        "category": [
          {
            "coding": [
              {
                "system": "http://terminology.hl7.org/CodeSystem/observation-category",
                "code": "laboratory"
              }
            ]
          }
        ],
        "code": {
          "coding": [
            {
              "code": "1975-2",
              "system": "http://loinc.org",
              "display": "Bilirubin.total [Mass/volume] in Serum or Plasma"
            }
          ],
          "text": "Bilirubin.total [Mass/volume] in Serum or Plasma"
        },
        "valueQuantity": {
          "system": "http://unitsofmeasure.org",
          "value": 1,
          "unit": "mg/dL",
          "code": "mg/dL"
        },
        "referenceRange": [
          {
            "low": {
              "value": 0.3,
              "code": "mg/dL",
              "system": "http://unitsofmeasure.org"
            }
          },
          {
            "high": {
              "value": 1.2,
              "code": "mg/dL",
              "system": "http://unitsofmeasure.org"
            }
          }
        ],
        "text": {
          "status": "generated",
          "div": "<div xmlns=\"http://www.w3.org/1999/xhtml\"><table class=\"hl7__eu__lab__report\"><tr><th>Test</th><th>11-Sep-2020</th><th>Reference&#xA0;Range</th><th>Unit</th></tr><tr><td>Bilirubin.total [Mass/volume] in Serum or Plasma</td><td>1.0</td><td>0.3 - 1.2</td><td></td><td>mg/dL</td></tr></table></div>"
        },
        "status": "final",
        "subject": {
          "reference": "urn:uuid:5b7293c1-5890-4367-b00a-4994718bea29",
          "display": "Leonhard Köhler"
        },
        "effectiveDateTime": "2020-09-11T02:48:23Z",
        "specimen": {
          "reference": "urn:uuid:d16fc81a-a7b9-46f5-a8ff-6ac66a2e88b0"
        }
      }
    },
    {
      "fullUrl": "urn:uuid:dbc4f4b0-4acf-4164-9a65-13a87594a05f",
      "resource": {
        "resourceType": "Observation",
        "id": "dbc4f4b0-4acf-4164-9a65-13a87594a05f",
        "meta": {
          "profile": [
            "http://hl7.eu/fhir/laboratory/StructureDefinition/Observation-resultslab-eu-lab"
          ]
        },
        "performer": [
          {
            "display": "The Central European Lab"
          }
        ],
        "category": [
          {
            "coding": [
              {
                "system": "http://terminology.hl7.org/CodeSystem/observation-category",
                "code": "laboratory"
              }
            ]
          }
        ],
        "code": {
          "coding": [
            {
              "code": "6768-6",
              "system": "http://loinc.org",
              "display": "Alkaline phosphatase [Enzymatic activity/volume] in Serum or Plasma"
            }
          ],
          "text": "Alkaline phosphatase [Enzymatic activity/volume] in Serum or Plasma"
        },
        "valueQuantity": {
          "system": "http://unitsofmeasure.org",
          "value": 91.1,
          "unit": "U/L",
          "code": "U/L"
        },
        "referenceRange": [
          {
            "low": {
              "value": 53,
              "code": "U/L",
              "system": "http://unitsofmeasure.org"
            }
          },
          {
            "high": {
              "value": 130,
              "code": "U/L",
              "system": "http://unitsofmeasure.org"
            }
          }
        ],
        "text": {
          "status": "generated",
          "div": "<div xmlns=\"http://www.w3.org/1999/xhtml\"><table class=\"hl7__eu__lab__report\"><tr><th>Test</th><th>11-Sep-2020</th><th>Reference&#xA0;Range</th><th>Unit</th></tr><tr><td>Alkaline phosphatase [Enzymatic activity/volume] in Serum or Plasma</td><td>91.1</td><td>53 - 130</td><td></td><td>U/L</td></tr></table></div>"
        },
        "status": "final",
        "subject": {
          "reference": "urn:uuid:5b7293c1-5890-4367-b00a-4994718bea29",
          "display": "Leonhard Köhler"
        },
        "effectiveDateTime": "2020-09-11T02:48:23Z",
        "specimen": {
          "reference": "urn:uuid:d16fc81a-a7b9-46f5-a8ff-6ac66a2e88b0"
        }
      }
    },
    {
      "fullUrl": "urn:uuid:ef87a1fb-4156-467d-b113-6f1c9029d753",
      "resource": {
        "resourceType": "Observation",
        "id": "ef87a1fb-4156-467d-b113-6f1c9029d753",
        "meta": {
          "profile": [
            "http://hl7.eu/fhir/laboratory/StructureDefinition/Observation-resultslab-eu-lab"
          ]
        },
        "performer": [
          {
            "display": "The Central European Lab"
          }
        ],
        "category": [
          {
            "coding": [
              {
                "system": "http://terminology.hl7.org/CodeSystem/observation-category",
                "code": "laboratory"
              }
            ]
          }
        ],
        "code": {
          "coding": [
            {
              "code": "1742-6",
              "system": "http://loinc.org",
              "display": "Alanine aminotransferase [Enzymatic activity/volume] in Serum or Plasma"
            }
          ],
          "text": "Alanine aminotransferase [Enzymatic activity/volume] in Serum or Plasma"
        },
        "valueQuantity": {
          "system": "http://unitsofmeasure.org",
          "value": 33.8,
          "unit": "U/L",
          "code": "U/L"
        },
        "referenceRange": [
          {
            "low": {
              "value": 7,
              "code": "U/L",
              "system": "http://unitsofmeasure.org"
            }
          },
          {
            "high": {
              "value": 60,
              "code": "U/L",
              "system": "http://unitsofmeasure.org"
            }
          }
        ],
        "text": {
          "status": "generated",
          "div": "<div xmlns=\"http://www.w3.org/1999/xhtml\"><table class=\"hl7__eu__lab__report\"><tr><th>Test</th><th>11-Sep-2020</th><th>Reference&#xA0;Range</th><th>Unit</th></tr><tr><td>Alanine aminotransferase [Enzymatic activity/volume] in Serum or Plasma</td><td>33.8</td><td>7 - 60</td><td></td><td>U/L</td></tr></table></div>"
        },
        "status": "final",
        "subject": {
          "reference": "urn:uuid:5b7293c1-5890-4367-b00a-4994718bea29",
          "display": "Leonhard Köhler"
        },
        "effectiveDateTime": "2020-09-11T02:48:23Z",
        "specimen": {
          "reference": "urn:uuid:d16fc81a-a7b9-46f5-a8ff-6ac66a2e88b0"
        }
      }
    },
    {
      "fullUrl": "urn:uuid:eaf825fd-50e9-4431-96e6-dbf82b1506dc",
      "resource": {
        "resourceType": "Observation",
        "id": "eaf825fd-50e9-4431-96e6-dbf82b1506dc",
        "meta": {
          "profile": [
            "http://hl7.eu/fhir/laboratory/StructureDefinition/Observation-resultslab-eu-lab"
          ]
        },
        "performer": [
          {
            "display": "The Central European Lab"
          }
        ],
        "category": [
          {
            "coding": [
              {
                "system": "http://terminology.hl7.org/CodeSystem/observation-category",
                "code": "laboratory"
              }
            ]
          }
        ],
        "code": {
          "coding": [
            {
              "code": "1920-8",
              "system": "http://loinc.org",
              "display": "Aspartate aminotransferase [Enzymatic activity/volume] in Serum or Plasma"
            }
          ],
          "text": "Aspartate aminotransferase [Enzymatic activity/volume] in Serum or Plasma"
        },
        "valueQuantity": {
          "system": "http://unitsofmeasure.org",
          "value": 30.8,
          "unit": "U/L",
          "code": "U/L"
        },
        "referenceRange": [
          {
            "low": {
              "value": 10,
              "code": "U/L",
              "system": "http://unitsofmeasure.org"
            }
          },
          {
            "high": {
              "value": 49,
              "code": "U/L",
              "system": "http://unitsofmeasure.org"
            }
          }
        ],
        "text": {
          "status": "generated",
          "div": "<div xmlns=\"http://www.w3.org/1999/xhtml\"><table class=\"hl7__eu__lab__report\"><tr><th>Test</th><th>11-Sep-2020</th><th>Reference&#xA0;Range</th><th>Unit</th></tr><tr><td>Aspartate aminotransferase [Enzymatic activity/volume] in Serum or Plasma</td><td>30.8</td><td>10 - 49</td><td></td><td>U/L</td></tr></table></div>"
        },
        "status": "final",
        "subject": {
          "reference": "urn:uuid:5b7293c1-5890-4367-b00a-4994718bea29",
          "display": "Leonhard Köhler"
        },
        "effectiveDateTime": "2020-09-11T02:48:23Z",
        "specimen": {
          "reference": "urn:uuid:d16fc81a-a7b9-46f5-a8ff-6ac66a2e88b0"
        }
      }
    },
    {
      "fullUrl": "urn:uuid:2f969737-f2fd-4887-8828-eac1cf4c4881",
      "resource": {
        "resourceType": "Observation",
        "id": "2f969737-f2fd-4887-8828-eac1cf4c4881",
        "meta": {
          "profile": [
            "http://hl7.eu/fhir/laboratory/StructureDefinition/Observation-resultslab-eu-lab"
          ]
        },
        "performer": [
          {
            "display": "The Central European Lab"
          }
        ],
        "category": [
          {
            "coding": [
              {
                "system": "http://terminology.hl7.org/CodeSystem/observation-category",
                "code": "laboratory"
              }
            ]
          }
        ],
        "code": {
          "coding": [
            {
              "code": "2093-3",
              "system": "http://loinc.org",
              "display": "Cholesterol [Mass/volume] in Serum or Plasma"
            }
          ],
          "text": "Cholesterol [Mass/volume] in Serum or Plasma"
        },
        "valueQuantity": {
          "system": "http://unitsofmeasure.org",
          "value": 196,
          "unit": "mg/dL",
          "code": "mg/dL"
        },
        "referenceRange": [
          {
            "low": {
              "value": 125,
              "code": "mg/dL",
              "system": "http://unitsofmeasure.org"
            }
          },
          {
            "high": {
              "value": 200,
              "code": "mg/dL",
              "system": "http://unitsofmeasure.org"
            }
          }
        ],
        "text": {
          "status": "generated",
          "div": "<div xmlns=\"http://www.w3.org/1999/xhtml\"><table class=\"hl7__eu__lab__report\"><tr><th>Test</th><th>11-Sep-2020</th><th>Reference&#xA0;Range</th><th>Unit</th></tr><tr><td>Cholesterol [Mass/volume] in Serum or Plasma</td><td>196.0</td><td>125 - 200</td><td></td><td>mg/dL</td></tr></table></div>"
        },
        "status": "final",
        "subject": {
          "reference": "urn:uuid:5b7293c1-5890-4367-b00a-4994718bea29",
          "display": "Leonhard Köhler"
        },
        "effectiveDateTime": "2020-09-11T02:48:23Z",
        "specimen": {
          "reference": "urn:uuid:d16fc81a-a7b9-46f5-a8ff-6ac66a2e88b0"
        }
      }
    },
    {
      "fullUrl": "urn:uuid:995cf4ae-877c-45f3-8e4b-bd3c1a278356",
      "resource": {
        "resourceType": "Observation",
        "id": "995cf4ae-877c-45f3-8e4b-bd3c1a278356",
        "meta": {
          "profile": [
            "http://hl7.eu/fhir/laboratory/StructureDefinition/Observation-resultslab-eu-lab"
          ]
        },
        "performer": [
          {
            "display": "The Central European Lab"
          }
        ],
        "category": [
          {
            "coding": [
              {
                "system": "http://terminology.hl7.org/CodeSystem/observation-category",
                "code": "laboratory"
              }
            ]
          }
        ],
        "code": {
          "coding": [
            {
              "code": "2571-8",
              "system": "http://loinc.org",
              "display": "Triglyceride [Mass/volume] in Serum or Plasma"
            }
          ],
          "text": "Triglyceride [Mass/volume] in Serum or Plasma"
        },
        "valueQuantity": {
          "system": "http://unitsofmeasure.org",
          "value": 151.8,
          "unit": "mg/dL",
          "code": "mg/dL"
        },
        "referenceRange": [
          {
            "low": {
              "value": 40,
              "code": "mg/dL",
              "system": "http://unitsofmeasure.org"
            }
          },
          {
            "high": {
              "value": 150,
              "code": "mg/dL",
              "system": "http://unitsofmeasure.org"
            }
          }
        ],
        "interpretation": [
          {
            "coding": [
              {
                "code": "H",
                "system": "http://terminology.hl7.org/CodeSystem/v3-ObservationInterpretation",
                "display": "High"
              }
            ]
          }
        ],
        "text": {
          "status": "generated",
          "div": "<div xmlns=\"http://www.w3.org/1999/xhtml\"><table class=\"hl7__eu__lab__report\"><tr><th>Test</th><th>11-Sep-2020</th><th>Reference&#xA0;Range</th><th>Unit</th></tr><tr><td>Triglyceride [Mass/volume] in Serum or Plasma</td><td>151.8</td><td>40 - 150</td><td>H</td><td>mg/dL</td></tr></table></div>"
        },
        "status": "final",
        "subject": {
          "reference": "urn:uuid:5b7293c1-5890-4367-b00a-4994718bea29",
          "display": "Leonhard Köhler"
        },
        "effectiveDateTime": "2020-09-11T02:48:23Z",
        "specimen": {
          "reference": "urn:uuid:d16fc81a-a7b9-46f5-a8ff-6ac66a2e88b0"
        }
      }
    },
    {
      "fullUrl": "urn:uuid:a1295445-3c5d-4519-acab-f31d104e45e6",
      "resource": {
        "resourceType": "Observation",
        "id": "a1295445-3c5d-4519-acab-f31d104e45e6",
        "meta": {
          "profile": [
            "http://hl7.eu/fhir/laboratory/StructureDefinition/Observation-resultslab-eu-lab"
          ]
        },
        "performer": [
          {
            "display": "The Central European Lab"
          }
        ],
        "category": [
          {
            "coding": [
              {
                "system": "http://terminology.hl7.org/CodeSystem/observation-category",
                "code": "laboratory"
              }
            ]
          }
        ],
        "code": {
          "coding": [
            {
              "code": "18262-6",
              "system": "http://loinc.org",
              "display": "Cholesterol in LDL [Mass/volume] in Serum or Plasma by Direct assay"
            }
          ],
          "text": "Cholesterol in LDL [Mass/volume] in Serum or Plasma by Direct assay"
        },
        "valueQuantity": {
          "system": "http://unitsofmeasure.org",
          "value": 138.6,
          "unit": "mg/dL",
          "code": "mg/dL"
        },
        "referenceRange": [
          {
            "low": {
              "value": 0,
              "code": "mg/dL",
              "system": "http://unitsofmeasure.org"
            }
          },
          {
            "high": {
              "value": 190,
              "code": "mg/dL",
              "system": "http://unitsofmeasure.org"
            }
          }
        ],
        "text": {
          "status": "generated",
          "div": "<div xmlns=\"http://www.w3.org/1999/xhtml\"><table class=\"hl7__eu__lab__report\"><tr><th>Test</th><th>11-Sep-2020</th><th>Reference&#xA0;Range</th><th>Unit</th></tr><tr><td>Cholesterol in LDL [Mass/volume] in Serum or Plasma by Direct assay</td><td>138.6</td><td>0 - 190</td><td></td><td>mg/dL</td></tr></table></div>"
        },
        "status": "final",
        "subject": {
          "reference": "urn:uuid:5b7293c1-5890-4367-b00a-4994718bea29",
          "display": "Leonhard Köhler"
        },
        "effectiveDateTime": "2020-09-11T02:48:23Z",
        "specimen": {
          "reference": "urn:uuid:d16fc81a-a7b9-46f5-a8ff-6ac66a2e88b0"
        }
      }
    },
    {
      "fullUrl": "urn:uuid:8bb0bf67-4470-495e-87d9-76290a26fe6c",
      "resource": {
        "resourceType": "Observation",
        "id": "8bb0bf67-4470-495e-87d9-76290a26fe6c",
        "meta": {
          "profile": [
            "http://hl7.eu/fhir/laboratory/StructureDefinition/Observation-resultslab-eu-lab"
          ]
        },
        "performer": [
          {
            "display": "The Central European Lab"
          }
        ],
        "category": [
          {
            "coding": [
              {
                "system": "http://terminology.hl7.org/CodeSystem/observation-category",
                "code": "laboratory"
              }
            ]
          }
        ],
        "code": {
          "coding": [
            {
              "code": "2085-9",
              "system": "http://loinc.org",
              "display": "Cholesterol in HDL [Mass/volume] in Serum or Plasma"
            }
          ],
          "text": "Cholesterol in HDL [Mass/volume] in Serum or Plasma"
        },
        "valueQuantity": {
          "system": "http://unitsofmeasure.org",
          "value": 57.1,
          "unit": "mg/dL",
          "code": "mg/dL"
        },
        "referenceRange": [
          {
            "low": {
              "value": 40,
              "code": "mg/dL",
              "system": "http://unitsofmeasure.org"
            }
          },
          {
            "high": {
              "value": 60,
              "code": "mg/dL",
              "system": "http://unitsofmeasure.org"
            }
          }
        ],
        "text": {
          "status": "generated",
          "div": "<div xmlns=\"http://www.w3.org/1999/xhtml\"><table class=\"hl7__eu__lab__report\"><tr><th>Test</th><th>11-Sep-2020</th><th>Reference&#xA0;Range</th><th>Unit</th></tr><tr><td>Cholesterol in HDL [Mass/volume] in Serum or Plasma</td><td>57.1</td><td>40 - 60</td><td></td><td>mg/dL</td></tr></table></div>"
        },
        "status": "final",
        "subject": {
          "reference": "urn:uuid:5b7293c1-5890-4367-b00a-4994718bea29",
          "display": "Leonhard Köhler"
        },
        "effectiveDateTime": "2020-09-11T02:48:23Z",
        "specimen": {
          "reference": "urn:uuid:d16fc81a-a7b9-46f5-a8ff-6ac66a2e88b0"
        }
      }
    },
    {
      "fullUrl": "urn:uuid:82fcd40f-e9e6-48c3-be31-1cfa9f4280b7",
      "resource": {
        "resourceType": "Device",
        "id": "82fcd40f-e9e6-48c3-be31-1cfa9f4280b7",
        "deviceName": [
          {
            "name": "SYNDERAI Synthetic Generator",
            "type": "manufacturer-name"
          }
        ],
        "version": [
          {
            "value": "5.0"
          }
        ],
        "text": {
          "status": "generated",
          "div": "<div xmlns=\"http://www.w3.org/1999/xhtml\">SYNDERAI Synthetic Generator v5.0</div>"
        },
        "status": "active\"",
        "distinctIdentifier": "synderai-generator-50",
        "manufacturer": "SYNDERAI Project"
      }
    },
    {
      "fullUrl": "urn:uuid:cec5f271-6244-41ac-a268-8c775520ff5e",
      "resource": {
        "resourceType": "Provenance",
        "id": "cec5f271-6244-41ac-a268-8c775520ff5e",
        "target": [
          {
            "reference": "Patient/5b7293c1-5890-4367-b00a-4994718bea29"
          },
          {
            "reference": "Bundle/26ab7c73-c36a-4233-9b83-9cf85a0ef623"
          },
          {
            "reference": "Composition/ff9f8ea1-8676-4b5b-b10c-854900a1e793"
          },
          {
            "reference": "PractitionerRole/03126281-350f-4461-9e4f-9529f3480945"
          },
          {
            "reference": "Practitioner/45d52f93-5062-467d-a262-abf2b83dba09"
          },
          {
            "reference": "PractitionerRole/11d40794-9afa-4f4c-b306-d4e7965c8767"
          },
          {
            "reference": "Organization/e5d49bf4-8341-4519-af73-0bdccf380319"
          }
        ],
        "activity": {
          "text": "Synthetic Example Data Generation"
        },
        "policy": [
          "https://synderai.net/synderai-synthetic-data-policy"
        ],
        "agent": [
          {
            "type": {
              "text": "author"
            },
            "who": {
              "reference": "Device/82fcd40f-e9e6-48c3-be31-1cfa9f4280b7"
            }
          }
        ],
        "reason": [
          {
            "text": "Interoperability Testing and Training (non-clinical use)"
          }
        ],
        "text": {
          "status": "generated",
          "div": "<div xmlns=\"http://www.w3.org/1999/xhtml\">Provenance for SYNDERAI Synthetic Example Data Resource</div>"
        },
        "recorded": "2020-09-11T04:48:23Z"
      }
    },
    {
      "fullUrl": "urn:uuid:03126281-350f-4461-9e4f-9529f3480945",
      "resource": {
        "resourceType": "PractitionerRole",
        "id": "03126281-350f-4461-9e4f-9529f3480945",
        "meta": {
          "profile": [
            "http://hl7.eu/fhir/base/StructureDefinition/practitionerRole-eu"
          ]
        },
        "text": {
          "status": "generated",
          "div": "<div xmlns=\"http://www.w3.org/1999/xhtml\">Laboratory Role Id: 03126281-350f-4461-9e4f-9529f3480945</div>"
        },
        "practitioner": {
          "reference": "urn:uuid:45d52f93-5062-467d-a262-abf2b83dba09"
        }
      }
    },
    {
      "fullUrl": "urn:uuid:45d52f93-5062-467d-a262-abf2b83dba09",
      "resource": {
        "resourceType": "Practitioner",
        "id": "45d52f93-5062-467d-a262-abf2b83dba09",
        "meta": {
          "profile": [
            "http://hl7.eu/fhir/base/StructureDefinition/practitioner-eu"
          ]
        },
        "identifier": [
          {
            "assigner": {
              "display": "HL7 Europe"
            },
            "system": "urn:oid:2.16.840.1.113883.2.51.999",
            "value": "71366b0a-bd3e-48eb-bbde-4afe5d1a09c9"
          }
        ],
        "name": [
          {
            "prefix": [
              "dr"
            ],
            "given": [
              "Ex"
            ],
            "family": "Ample"
          }
        ],
        "address": [
          {
            "line": [
              "Laboratoire Central Européenne",
              "Boulevard du Jardin Botanique 32"
            ],
            "postalCode": "1000",
            "city": "Brussels",
            "country": "Belgium"
          }
        ],
        "text": {
          "status": "generated",
          "div": "<div xmlns=\"http://www.w3.org/1999/xhtml\">Laboratory: Laboratoire Central Européenne, 1000 Brussels, Belgium</div>"
        }
      }
    }
  ],
  "type": "document",
  "timestamp": "2020-09-11T04:48:23Z"
}
