{
  "resourceType": "Bundle",
  "id": "3c100f43-0c19-4b57-9a97-4824dec6a65d",
  "meta": {
    "profile": [
      "http://hl7.eu/fhir/laboratory/StructureDefinition/Bundle-eu-lab"
    ]
  },
  "identifier": {
    "assigner": {
      "display": "HL7 Europe"
    },
    "system": "urn:oid:2.16.840.1.113883.2.51.999",
    "value": "517df5fd-021e-437b-bd73-da477834625b"
  },
  "entry": [
    {
      "fullUrl": "urn:uuid:5f686378-6257-4390-a9b5-9121da4820fb",
      "resource": {
        "resourceType": "Composition",
        "id": "5f686378-6257-4390-a9b5-9121da4820fb",
        "meta": {
          "profile": [
            "http://hl7.eu/fhir/laboratory/StructureDefinition/Composition-eu-lab"
          ]
        },
        "identifier": {
          "assigner": {
            "display": "HL7 Europe"
          },
          "system": "urn:oid:2.16.840.1.113883.2.51.999",
          "value": "62f9a93c-dd67-4671-8e4b-228422c6c10e"
        },
        "author": [
          {
            "reference": "urn:uuid:432c4092-e1a9-4c1b-96c4-0c315c14f9ac"
          }
        ],
        "category": [
          {
            "coding": [
              {
                "code": "26436-6",
                "system": "http://loinc.org",
                "display": "Laboratory studies (set)"
              }
            ]
          }
        ],
        "type": {
          "coding": [
            {
              "code": "11502-2",
              "system": "http://loinc.org",
              "display": "Laboratory report"
            }
          ],
          "text": "Laboratory Report"
        },
        "section": [
          {
            "code": {
              "coding": [
                {
                  "code": "26436-6",
                  "system": "http://loinc.org",
                  "display": "Laboratory studies (set)"
                }
              ],
              "text": "Laboratory studies"
            },
            "section": [
              {
                "code": {
                  "coding": [
                    {
                      "code": "$18719-5",
                      "system": "http://loinc.org",
                      "display": "Chemistry studies (set)"
                    }
                  ],
                  "text": "Chemistry"
                },
                "entry": [
                  {
                    "reference": "urn:uuid:aa689bb7-afbc-4941-ad1b-dc2b5928d6ad"
                  },
                  {
                    "reference": "urn:uuid:e59f20b7-8004-4c30-8d1f-8d32f8c6e0c0"
                  },
                  {
                    "reference": "urn:uuid:2981f736-2036-4a08-8edb-0a3070c43fff"
                  },
                  {
                    "reference": "urn:uuid:9912e1fe-ea31-41ee-8c9d-69ef5ebff74e"
                  },
                  {
                    "reference": "urn:uuid:2acb305b-216e-4bdf-bb98-aad863288f45"
                  },
                  {
                    "reference": "urn:uuid:12987031-c053-44ea-bffe-3ab0a1980a9f"
                  },
                  {
                    "reference": "urn:uuid:3b154f37-638f-4cd6-bcbf-3bee29eb7c46"
                  },
                  {
                    "reference": "urn:uuid:e564801c-9af2-4d75-84c3-9ba75f440912"
                  },
                  {
                    "reference": "urn:uuid:dfc90f6a-669b-44e8-9d90-757f1ac69f1e"
                  },
                  {
                    "reference": "urn:uuid:d4008bf7-e98a-4bc7-a3f5-5baad9cd92df"
                  },
                  {
                    "reference": "urn:uuid:06ff332e-9515-4a76-92f3-712af8baca61"
                  },
                  {
                    "reference": "urn:uuid:e16478db-b64c-489c-86d2-80062bdda8f0"
                  },
                  {
                    "reference": "urn:uuid:05a75900-1f36-42bd-b3d1-081a67b57080"
                  },
                  {
                    "reference": "urn:uuid:933b7de3-4642-4f1c-a19d-427bf275a0a2"
                  }
                ],
                "text": {
                  "status": "generated",
                  "div": "<div xmlns=\"http://www.w3.org/1999/xhtml\"><h3>Chemistry</h3><table class=\"hl7__eu__lab__report\"><thead><tr><th>Test</th><th>16-AUG-2024</th><th>Reference&#xA0;Range</th><th>Unit</th></tr></thead><tbody><tr><td>Hemoglobin A1c/Hemoglobin.total in Blood</td><td><strong>7.0 H</strong></td><td>4 - 6</td><td>%</td></tr><tr><td>Glucose [Mass/volume] in Blood</td><td>110.5</td><td>70 - 140</td><td>mg/dL</td></tr><tr><td>Urea nitrogen [Mass/volume] in Blood</td><td>17.2</td><td>7 - 25</td><td>mg/dL</td></tr><tr><td>Creatinine [Mass/volume] in Blood</td><td>0.9</td><td>0.6 - 1.1</td><td>mg/dL</td></tr><tr><td>Calcium [Mass/volume] in Blood</td><td>10.2</td><td>8.5 - 10.4</td><td>mg/dL</td></tr><tr><td>Sodium [Moles/volume] in Blood</td><td>141.0</td><td>135 - 145</td><td>mmol/L</td></tr><tr><td>Potassium [Moles/volume] in Blood</td><td>3.9</td><td>3.5 - 5.1</td><td>mmol/L</td></tr><tr><td>Chloride [Moles/volume] in Blood</td><td><strong>108.0 H</strong></td><td>98 - 107</td><td>mmol/L</td></tr><tr><td>Carbon dioxide, total [Moles/volume] in Blood</td><td>27.7</td><td>22 - 29</td><td>mmol/L</td></tr><tr><td>Cholesterol [Mass/volume] in Serum or Plasma</td><td><strong>215.4 H</strong></td><td>125 - 200</td><td>mg/dL</td></tr><tr><td>Triglyceride [Mass/volume] in Serum or Plasma</td><td><strong>196.9 H</strong></td><td>35 - 150</td><td>mg/dL</td></tr><tr><td>Cholesterol in LDL [Mass/volume] in Serum or Plasma by Direct assay</td><td>128.7</td><td>0 - 130</td><td>mg/dL</td></tr><tr><td>Cholesterol in HDL [Mass/volume] in Serum or Plasma</td><td>47.3</td><td>40 - 100</td><td>mg/dL</td></tr><tr><td>Microalbumin/Creatinine [Mass Ratio] in Urine</td><td>10.7</td><td>0 - 30</td><td>mg/g</td></tr></tbody></table></div>"
                },
                "title": "Chemistry"
              }
            ],
            "title": "Laboratory Report"
          },
          {
            "text": {
              "status": "generated",
              "div": "<div xmlns=\"http://www.w3.org/1999/xhtml\"><h3>Annotation</h3><table class=\"hl7__eu__lab__report\"><tr><th>Conclusion and Recommendations based on this report and previous findings known to us</th></tr><tr><td>The patient shows elevated HbA1c, indicating suboptimal long-term glycemic control. Cholesterol, triglycerides, and chloride are also mildly elevated, suggesting increased cardiovascular risk and possible metabolic syndrome. Renal function and electrolytes are within normal limits, and there is no evidence of microalbuminuria. Recommend review of diabetes and lipid management.</td></tr></table></div>"
            },
            "code": {
              "coding": [
                {
                  "system": "http://loinc.org",
                  "code": "48767-8",
                  "display": "Annotation comment"
                }
              ]
            },
            "title": "Annotation comment"
          }
        ],
        "status": "final",
        "subject": {
          "reference": "urn:uuid:a9a44943-b88b-4e81-ad84-240c1cb43eb2",
          "display": "Martine Couturier"
        },
        "date": "2024-08-16T22:13:15Z",
        "title": "Laboratory Report",
        "confidentiality": "N"
      }
    },
    {
      "fullUrl": "urn:uuid:1c2f8b18-dc13-40fb-8ec9-490acfb218c6",
      "resource": {
        "resourceType": "DiagnosticReport",
        "id": "1c2f8b18-dc13-40fb-8ec9-490acfb218c6",
        "meta": {
          "profile": [
            "http://hl7.eu/fhir/laboratory/StructureDefinition/DiagnosticReport-eu-lab"
          ]
        },
        "identifier": [
          {
            "assigner": {
              "display": "HL7 Europe"
            },
            "system": "urn:oid:2.16.840.1.113883.2.51.999",
            "value": "ff27a8f5-4e0c-4d2b-896c-60b1d8afa458"
          }
        ],
        "extension": [
          {
            "url": "http://hl7.org/fhir/5.0/StructureDefinition/extension-DiagnosticReport.composition",
            "valueReference": {
              "reference": "urn:uuid:62f9a93c-dd67-4671-8e4b-228422c6c10e"
            }
          }
        ],
        "category": [
          {
            "coding": [
              {
                "code": "26436-6",
                "system": "http://loinc.org",
                "display": "Laboratory studies (set)"
              }
            ]
          }
        ],
        "specimen": [
          {
            "reference": "urn:uuid:b59e5c97-27bc-4992-8905-4181ca8b3c74"
          },
          {
            "reference": "urn:uuid:a5fe727a-4bf6-435f-89ab-b75263b67867"
          },
          {
            "reference": "urn:uuid:8096ed8f-4c7a-4c90-9ab0-9020e0b78c8f"
          }
        ],
        "result": [
          {
            "reference": "urn:uuid:aa689bb7-afbc-4941-ad1b-dc2b5928d6ad"
          },
          {
            "reference": "urn:uuid:e59f20b7-8004-4c30-8d1f-8d32f8c6e0c0"
          },
          {
            "reference": "urn:uuid:2981f736-2036-4a08-8edb-0a3070c43fff"
          },
          {
            "reference": "urn:uuid:9912e1fe-ea31-41ee-8c9d-69ef5ebff74e"
          },
          {
            "reference": "urn:uuid:2acb305b-216e-4bdf-bb98-aad863288f45"
          },
          {
            "reference": "urn:uuid:12987031-c053-44ea-bffe-3ab0a1980a9f"
          },
          {
            "reference": "urn:uuid:3b154f37-638f-4cd6-bcbf-3bee29eb7c46"
          },
          {
            "reference": "urn:uuid:e564801c-9af2-4d75-84c3-9ba75f440912"
          },
          {
            "reference": "urn:uuid:dfc90f6a-669b-44e8-9d90-757f1ac69f1e"
          },
          {
            "reference": "urn:uuid:d4008bf7-e98a-4bc7-a3f5-5baad9cd92df"
          },
          {
            "reference": "urn:uuid:06ff332e-9515-4a76-92f3-712af8baca61"
          },
          {
            "reference": "urn:uuid:e16478db-b64c-489c-86d2-80062bdda8f0"
          },
          {
            "reference": "urn:uuid:05a75900-1f36-42bd-b3d1-081a67b57080"
          },
          {
            "reference": "urn:uuid:933b7de3-4642-4f1c-a19d-427bf275a0a2"
          }
        ],
        "status": "registered",
        "code": {
          "coding": [
            {
              "code": "11502-2",
              "system": "http://loinc.org",
              "display": "Laboratory report"
            }
          ]
        },
        "subject": {
          "reference": "urn:uuid:a9a44943-b88b-4e81-ad84-240c1cb43eb2",
          "display": "Martine Couturier"
        }
      }
    },
    {
      "fullUrl": "urn:uuid:a9a44943-b88b-4e81-ad84-240c1cb43eb2",
      "resource": {
        "resourceType": "Patient",
        "id": "a9a44943-b88b-4e81-ad84-240c1cb43eb2",
        "meta": {
          "security": [
            {
              "system": "http://terminology.hl7.org/CodeSystem/v3-ActReason",
              "code": "HTEST"
            },
            {
              "system": "http://terminology.hl7.org/CodeSystem/v3-ActReason",
              "code": "TRAIN"
            }
          ],
          "tag": [
            {
              "system": "https://synderai.net/fhir/CodeSystem/tags",
              "code": "synthetic",
              "display": "SYNDERAI Synthetic data"
            }
          ],
          "profile": [
            "http://hl7.eu/fhir/base/StructureDefinition/patient-eu-core"
          ]
        },
        "identifier": [
          {
            "type": {
              "coding": [
                {
                  "code": "PT",
                  "system": "http://terminology.hl7.org/CodeSystem/v2-0203"
                }
              ]
            },
            "system": "http://ec.europa.eu/identifier/eci",
            "value": "6614-983327-0"
          },
          {
            "type": {
              "coding": [
                {
                  "code": "MR",
                  "system": "http://terminology.hl7.org/CodeSystem/v2-0203"
                }
              ]
            },
            "system": "http://local.setting.eu/identifier",
            "value": "decdc04d-a1c8-929f-4aad-63136dd70efd"
          }
        ],
        "name": [
          {
            "family": "Couturier"
          },
          {
            "given": [
              "Martine"
            ]
          },
          {
            "text": "Martine Couturier"
          }
        ],
        "address": [
          {
            "line": [
              "458, rue de Bègue"
            ],
            "use": "home",
            "type": "physical",
            "postalCode": "03110",
            "city": "Boutin",
            "country": "France"
          }
        ],
        "telecom": [
          {
            "system": "phone",
            "value": "+33 4 11 66 35 81"
          }
        ],
        "extension": [
          {
            "url": "http://hl7.org/fhir/StructureDefinition/patient-nationality",
            "valueCodeableConcept": {
              "coding": [
                {
                  "code": "FR",
                  "system": "http://hl7.org/fhir/ValueSet/country"
                }
              ]
            }
          }
        ],
        "text": {
          "status": "generated",
          "div": "<div xmlns=\"http://www.w3.org/1999/xhtml\"><table class=\"hl7__ips\"><tr><td>Martine Couturier</td><td>female</td><td>13-Nov-1961</td></tr></table></div>"
        },
        "gender": "female",
        "birthDate": "1961-11-13"
      }
    },
    {
      "fullUrl": "urn:uuid:711f131b-c15a-4d7e-a6cd-29e97c990237",
      "resource": {
        "resourceType": "ServiceRequest",
        "id": "711f131b-c15a-4d7e-a6cd-29e97c990237",
        "meta": {
          "profile": [
            "http://hl7.eu/fhir/laboratory/StructureDefinition/ServiceRequest-eu-lab"
          ]
        },
        "identifier": [
          {
            "system": "http://example.org",
            "value": "a489ff64-a646-47fd-888e-632abadcae7d"
          }
        ],
        "specimen": [
          {
            "reference": "urn:uuid:b59e5c97-27bc-4992-8905-4181ca8b3c74"
          },
          {
            "reference": "urn:uuid:a5fe727a-4bf6-435f-89ab-b75263b67867"
          },
          {
            "reference": "urn:uuid:8096ed8f-4c7a-4c90-9ab0-9020e0b78c8f"
          }
        ],
        "reasonCode": [
          {
            "coding": [
              {
                "code": "368581000119106",
                "system": "http://snomed.info/sct",
                "display": "Neuropathy due to type 2 diabetes mellitus"
              }
            ]
          },
          {
            "coding": [
              {
                "code": "302870006",
                "system": "http://snomed.info/sct",
                "display": "Hypertriglyceridemia"
              }
            ]
          },
          {
            "coding": [
              {
                "code": "44054006",
                "system": "http://snomed.info/sct",
                "display": "Type 2 diabetes mellitus"
              }
            ]
          },
          {
            "coding": [
              {
                "code": "237602007",
                "system": "http://snomed.info/sct",
                "display": "Metabolic syndrome X"
              }
            ]
          },
          {
            "coding": [
              {
                "code": "271737000",
                "system": "http://snomed.info/sct",
                "display": "Anemia"
              }
            ]
          },
          {
            "coding": [
              {
                "code": "15777000",
                "system": "http://snomed.info/sct",
                "display": "Prediabetes"
              }
            ]
          }
        ],
        "status": "active",
        "intent": "order",
        "code": {
          "coding": [
            {
              "code": "108252007",
              "system": "http://snomed.info/sct",
              "display": "Laboratory procedure"
            }
          ]
        },
        "subject": {
          "reference": "urn:uuid:a9a44943-b88b-4e81-ad84-240c1cb43eb2",
          "display": "Martine Couturier"
        },
        "requester": {
          "reference": "urn:uuid:6efd2452-26e3-46ed-b368-bb27e8cf311e"
        }
      }
    },
    {
      "fullUrl": "urn:uuid:6efd2452-26e3-46ed-b368-bb27e8cf311e",
      "resource": {
        "resourceType": "PractitionerRole",
        "id": "6efd2452-26e3-46ed-b368-bb27e8cf311e",
        "meta": {
          "profile": [
            "http://hl7.eu/fhir/base/StructureDefinition/practitionerRole-eu"
          ]
        },
        "text": {
          "status": "generated",
          "div": "<div xmlns=\"http://www.w3.org/1999/xhtml\">Provider Role Id: 6efd2452-26e3-46ed-b368-bb27e8cf311e</div>"
        },
        "organization": {
          "reference": "urn:uuid:ecc5d7ee-f8fb-44b6-8338-cb879672a612"
        }
      }
    },
    {
      "fullUrl": "urn:uuid:ecc5d7ee-f8fb-44b6-8338-cb879672a612",
      "resource": {
        "resourceType": "Organization",
        "id": "ecc5d7ee-f8fb-44b6-8338-cb879672a612",
        "meta": {
          "profile": [
            "http://hl7.eu/fhir/base/StructureDefinition/organization-eu"
          ]
        },
        "identifier": [
          {
            "assigner": {
              "display": "HL7 Europe"
            },
            "system": "urn:oid:2.16.840.1.113883.2.51.999",
            "value": "626ac776-fbc3-4096-bd4b-2878e63a1c60"
          }
        ],
        "address": [
          {
            "line": [
              "Boulevard Denière 1"
            ],
            "city": "Vichy",
            "postalCode": "03200",
            "country": "France"
          }
        ],
        "text": {
          "status": "generated",
          "div": "<div xmlns=\"http://www.w3.org/1999/xhtml\">Provider Organization: Centre hospitalier Jacques Lacarin</div>"
        },
        "name": "Centre hospitalier Jacques Lacarin"
      }
    },
    {
      "fullUrl": "urn:uuid:b59e5c97-27bc-4992-8905-4181ca8b3c74",
      "resource": {
        "resourceType": "Specimen",
        "id": "b59e5c97-27bc-4992-8905-4181ca8b3c74",
        "meta": {
          "profile": [
            "http://hl7.eu/fhir/laboratory/StructureDefinition/Specimen-eu-lab"
          ]
        },
        "collection": {
          "collectedDateTime": "2024-08-16"
        },
        "text": {
          "status": "generated",
          "div": "<div xmlns=\"http://www.w3.org/1999/xhtml\"><table class=\"hl7__eu__lab__report\"><tr><th>Specimen</th><th>Collection Date</th></tr><tr><td>Whole blood specimen (specimen)</td><td><span class=\"nb\">16-Aug-2024</span></td></tr></table></div>"
        },
        "type": {
          "coding": [
            {
              "code": "258580003",
              "system": "http://snomed.info/sct",
              "display": "Whole blood specimen (specimen)"
            }
          ]
        }
      }
    },
    {
      "fullUrl": "urn:uuid:a5fe727a-4bf6-435f-89ab-b75263b67867",
      "resource": {
        "resourceType": "Specimen",
        "id": "a5fe727a-4bf6-435f-89ab-b75263b67867",
        "meta": {
          "profile": [
            "http://hl7.eu/fhir/laboratory/StructureDefinition/Specimen-eu-lab"
          ]
        },
        "collection": {
          "collectedDateTime": "2024-08-16"
        },
        "text": {
          "status": "generated",
          "div": "<div xmlns=\"http://www.w3.org/1999/xhtml\"><table class=\"hl7__eu__lab__report\"><tr><th>Specimen</th><th>Collection Date</th></tr><tr><td>Acellular blood (serum or plasma) specimen</td><td><span class=\"nb\">16-Aug-2024</span></td></tr></table></div>"
        },
        "type": {
          "coding": [
            {
              "code": "122592007",
              "system": "http://snomed.info/sct",
              "display": "Acellular blood (serum or plasma) specimen"
            }
          ]
        }
      }
    },
    {
      "fullUrl": "urn:uuid:8096ed8f-4c7a-4c90-9ab0-9020e0b78c8f",
      "resource": {
        "resourceType": "Specimen",
        "id": "8096ed8f-4c7a-4c90-9ab0-9020e0b78c8f",
        "meta": {
          "profile": [
            "http://hl7.eu/fhir/laboratory/StructureDefinition/Specimen-eu-lab"
          ]
        },
        "collection": {
          "collectedDateTime": "2024-08-16"
        },
        "text": {
          "status": "generated",
          "div": "<div xmlns=\"http://www.w3.org/1999/xhtml\"><table class=\"hl7__eu__lab__report\"><tr><th>Specimen</th><th>Collection Date</th></tr><tr><td>Urine specimen</td><td><span class=\"nb\">16-Aug-2024</span></td></tr></table></div>"
        },
        "type": {
          "coding": [
            {
              "code": "122575003",
              "system": "http://snomed.info/sct",
              "display": "Urine specimen"
            }
          ]
        }
      }
    },
    {
      "fullUrl": "urn:uuid:aa689bb7-afbc-4941-ad1b-dc2b5928d6ad",
      "resource": {
        "resourceType": "Observation",
        "id": "aa689bb7-afbc-4941-ad1b-dc2b5928d6ad",
        "meta": {
          "profile": [
            "http://hl7.eu/fhir/laboratory/StructureDefinition/Observation-resultslab-eu-lab"
          ]
        },
        "performer": [
          {
            "display": "The Central European Lab"
          }
        ],
        "category": [
          {
            "coding": [
              {
                "system": "http://terminology.hl7.org/CodeSystem/observation-category",
                "code": "laboratory"
              }
            ]
          }
        ],
        "code": {
          "coding": [
            {
              "code": "4548-4",
              "system": "http://loinc.org",
              "display": "Hemoglobin A1c/Hemoglobin.total in Blood"
            }
          ],
          "text": "Hemoglobin A1c/Hemoglobin.total in Blood"
        },
        "valueQuantity": {
          "system": "http://unitsofmeasure.org",
          "value": 7,
          "unit": "%",
          "code": "%"
        },
        "referenceRange": [
          {
            "low": {
              "value": 4,
              "code": "%",
              "system": "http://unitsofmeasure.org"
            }
          },
          {
            "high": {
              "value": 6,
              "code": "%",
              "system": "http://unitsofmeasure.org"
            }
          }
        ],
        "interpretation": [
          {
            "coding": [
              {
                "code": "H",
                "system": "http://terminology.hl7.org/CodeSystem/v3-ObservationInterpretation",
                "display": "High"
              }
            ]
          }
        ],
        "text": {
          "status": "generated",
          "div": "<div xmlns=\"http://www.w3.org/1999/xhtml\"><table class=\"hl7__eu__lab__report\"><tr><th>Test</th><th>16-Aug-2024</th><th>Reference&#xA0;Range</th><th>Unit</th></tr><tr><td>Hemoglobin A1c/Hemoglobin.total in Blood</td><td>7.0</td><td>4 - 6</td><td>H</td><td>%</td></tr></table></div>"
        },
        "status": "final",
        "subject": {
          "reference": "urn:uuid:a9a44943-b88b-4e81-ad84-240c1cb43eb2",
          "display": "Martine Couturier"
        },
        "effectiveDateTime": "2024-08-16T20:13:15Z",
        "specimen": {
          "reference": "urn:uuid:b59e5c97-27bc-4992-8905-4181ca8b3c74"
        }
      }
    },
    {
      "fullUrl": "urn:uuid:e59f20b7-8004-4c30-8d1f-8d32f8c6e0c0",
      "resource": {
        "resourceType": "Observation",
        "id": "e59f20b7-8004-4c30-8d1f-8d32f8c6e0c0",
        "meta": {
          "profile": [
            "http://hl7.eu/fhir/laboratory/StructureDefinition/Observation-resultslab-eu-lab"
          ]
        },
        "performer": [
          {
            "display": "The Central European Lab"
          }
        ],
        "category": [
          {
            "coding": [
              {
                "system": "http://terminology.hl7.org/CodeSystem/observation-category",
                "code": "laboratory"
              }
            ]
          }
        ],
        "code": {
          "coding": [
            {
              "code": "2339-0",
              "system": "http://loinc.org",
              "display": "Glucose [Mass/volume] in Blood"
            }
          ],
          "text": "Glucose [Mass/volume] in Blood"
        },
        "valueQuantity": {
          "system": "http://unitsofmeasure.org",
          "value": 110.5,
          "unit": "mg/dL",
          "code": "mg/dL"
        },
        "referenceRange": [
          {
            "low": {
              "value": 70,
              "code": "mg/dL",
              "system": "http://unitsofmeasure.org"
            }
          },
          {
            "high": {
              "value": 140,
              "code": "mg/dL",
              "system": "http://unitsofmeasure.org"
            }
          }
        ],
        "text": {
          "status": "generated",
          "div": "<div xmlns=\"http://www.w3.org/1999/xhtml\"><table class=\"hl7__eu__lab__report\"><tr><th>Test</th><th>16-Aug-2024</th><th>Reference&#xA0;Range</th><th>Unit</th></tr><tr><td>Glucose [Mass/volume] in Blood</td><td>110.5</td><td>70 - 140</td><td></td><td>mg/dL</td></tr></table></div>"
        },
        "status": "final",
        "subject": {
          "reference": "urn:uuid:a9a44943-b88b-4e81-ad84-240c1cb43eb2",
          "display": "Martine Couturier"
        },
        "effectiveDateTime": "2024-08-16T20:13:15Z",
        "specimen": {
          "reference": "urn:uuid:b59e5c97-27bc-4992-8905-4181ca8b3c74"
        }
      }
    },
    {
      "fullUrl": "urn:uuid:2981f736-2036-4a08-8edb-0a3070c43fff",
      "resource": {
        "resourceType": "Observation",
        "id": "2981f736-2036-4a08-8edb-0a3070c43fff",
        "meta": {
          "profile": [
            "http://hl7.eu/fhir/laboratory/StructureDefinition/Observation-resultslab-eu-lab"
          ]
        },
        "performer": [
          {
            "display": "The Central European Lab"
          }
        ],
        "category": [
          {
            "coding": [
              {
                "system": "http://terminology.hl7.org/CodeSystem/observation-category",
                "code": "laboratory"
              }
            ]
          }
        ],
        "code": {
          "coding": [
            {
              "code": "6299-2",
              "system": "http://loinc.org",
              "display": "Urea nitrogen [Mass/volume] in Blood"
            }
          ],
          "text": "Urea nitrogen [Mass/volume] in Blood"
        },
        "valueQuantity": {
          "system": "http://unitsofmeasure.org",
          "value": 17.2,
          "unit": "mg/dL",
          "code": "mg/dL"
        },
        "referenceRange": [
          {
            "low": {
              "value": 7,
              "code": "mg/dL",
              "system": "http://unitsofmeasure.org"
            }
          },
          {
            "high": {
              "value": 25,
              "code": "mg/dL",
              "system": "http://unitsofmeasure.org"
            }
          }
        ],
        "text": {
          "status": "generated",
          "div": "<div xmlns=\"http://www.w3.org/1999/xhtml\"><table class=\"hl7__eu__lab__report\"><tr><th>Test</th><th>16-Aug-2024</th><th>Reference&#xA0;Range</th><th>Unit</th></tr><tr><td>Urea nitrogen [Mass/volume] in Blood</td><td>17.2</td><td>7 - 25</td><td></td><td>mg/dL</td></tr></table></div>"
        },
        "status": "final",
        "subject": {
          "reference": "urn:uuid:a9a44943-b88b-4e81-ad84-240c1cb43eb2",
          "display": "Martine Couturier"
        },
        "effectiveDateTime": "2024-08-16T20:13:15Z",
        "specimen": {
          "reference": "urn:uuid:b59e5c97-27bc-4992-8905-4181ca8b3c74"
        }
      }
    },
    {
      "fullUrl": "urn:uuid:9912e1fe-ea31-41ee-8c9d-69ef5ebff74e",
      "resource": {
        "resourceType": "Observation",
        "id": "9912e1fe-ea31-41ee-8c9d-69ef5ebff74e",
        "meta": {
          "profile": [
            "http://hl7.eu/fhir/laboratory/StructureDefinition/Observation-resultslab-eu-lab"
          ]
        },
        "performer": [
          {
            "display": "The Central European Lab"
          }
        ],
        "category": [
          {
            "coding": [
              {
                "system": "http://terminology.hl7.org/CodeSystem/observation-category",
                "code": "laboratory"
              }
            ]
          }
        ],
        "code": {
          "coding": [
            {
              "code": "38483-4",
              "system": "http://loinc.org",
              "display": "Creatinine [Mass/volume] in Blood"
            }
          ],
          "text": "Creatinine [Mass/volume] in Blood"
        },
        "valueQuantity": {
          "system": "http://unitsofmeasure.org",
          "value": 0.9,
          "unit": "mg/dL",
          "code": "mg/dL"
        },
        "referenceRange": [
          {
            "low": {
              "value": 0.6,
              "code": "mg/dL",
              "system": "http://unitsofmeasure.org"
            }
          },
          {
            "high": {
              "value": 1.1,
              "code": "mg/dL",
              "system": "http://unitsofmeasure.org"
            }
          }
        ],
        "text": {
          "status": "generated",
          "div": "<div xmlns=\"http://www.w3.org/1999/xhtml\"><table class=\"hl7__eu__lab__report\"><tr><th>Test</th><th>16-Aug-2024</th><th>Reference&#xA0;Range</th><th>Unit</th></tr><tr><td>Creatinine [Mass/volume] in Blood</td><td>0.9</td><td>0.6 - 1.1</td><td></td><td>mg/dL</td></tr></table></div>"
        },
        "status": "final",
        "subject": {
          "reference": "urn:uuid:a9a44943-b88b-4e81-ad84-240c1cb43eb2",
          "display": "Martine Couturier"
        },
        "effectiveDateTime": "2024-08-16T20:13:15Z",
        "specimen": {
          "reference": "urn:uuid:b59e5c97-27bc-4992-8905-4181ca8b3c74"
        }
      }
    },
    {
      "fullUrl": "urn:uuid:2acb305b-216e-4bdf-bb98-aad863288f45",
      "resource": {
        "resourceType": "Observation",
        "id": "2acb305b-216e-4bdf-bb98-aad863288f45",
        "meta": {
          "profile": [
            "http://hl7.eu/fhir/laboratory/StructureDefinition/Observation-resultslab-eu-lab"
          ]
        },
        "performer": [
          {
            "display": "The Central European Lab"
          }
        ],
        "category": [
          {
            "coding": [
              {
                "system": "http://terminology.hl7.org/CodeSystem/observation-category",
                "code": "laboratory"
              }
            ]
          }
        ],
        "code": {
          "coding": [
            {
              "code": "49765-1",
              "system": "http://loinc.org",
              "display": "Calcium [Mass/volume] in Blood"
            }
          ],
          "text": "Calcium [Mass/volume] in Blood"
        },
        "valueQuantity": {
          "system": "http://unitsofmeasure.org",
          "value": 10.2,
          "unit": "mg/dL",
          "code": "mg/dL"
        },
        "referenceRange": [
          {
            "low": {
              "value": 8.5,
              "code": "mg/dL",
              "system": "http://unitsofmeasure.org"
            }
          },
          {
            "high": {
              "value": 10.4,
              "code": "mg/dL",
              "system": "http://unitsofmeasure.org"
            }
          }
        ],
        "text": {
          "status": "generated",
          "div": "<div xmlns=\"http://www.w3.org/1999/xhtml\"><table class=\"hl7__eu__lab__report\"><tr><th>Test</th><th>16-Aug-2024</th><th>Reference&#xA0;Range</th><th>Unit</th></tr><tr><td>Calcium [Mass/volume] in Blood</td><td>10.2</td><td>8.5 - 10.4</td><td></td><td>mg/dL</td></tr></table></div>"
        },
        "status": "final",
        "subject": {
          "reference": "urn:uuid:a9a44943-b88b-4e81-ad84-240c1cb43eb2",
          "display": "Martine Couturier"
        },
        "effectiveDateTime": "2024-08-16T20:13:15Z",
        "specimen": {
          "reference": "urn:uuid:b59e5c97-27bc-4992-8905-4181ca8b3c74"
        }
      }
    },
    {
      "fullUrl": "urn:uuid:12987031-c053-44ea-bffe-3ab0a1980a9f",
      "resource": {
        "resourceType": "Observation",
        "id": "12987031-c053-44ea-bffe-3ab0a1980a9f",
        "meta": {
          "profile": [
            "http://hl7.eu/fhir/laboratory/StructureDefinition/Observation-resultslab-eu-lab"
          ]
        },
        "performer": [
          {
            "display": "The Central European Lab"
          }
        ],
        "category": [
          {
            "coding": [
              {
                "system": "http://terminology.hl7.org/CodeSystem/observation-category",
                "code": "laboratory"
              }
            ]
          }
        ],
        "code": {
          "coding": [
            {
              "code": "2947-0",
              "system": "http://loinc.org",
              "display": "Sodium [Moles/volume] in Blood"
            }
          ],
          "text": "Sodium [Moles/volume] in Blood"
        },
        "valueQuantity": {
          "system": "http://unitsofmeasure.org",
          "value": 141,
          "unit": "mmol/L",
          "code": "mmol/L"
        },
        "referenceRange": [
          {
            "low": {
              "value": 135,
              "code": "mmol/L",
              "system": "http://unitsofmeasure.org"
            }
          },
          {
            "high": {
              "value": 145,
              "code": "mmol/L",
              "system": "http://unitsofmeasure.org"
            }
          }
        ],
        "text": {
          "status": "generated",
          "div": "<div xmlns=\"http://www.w3.org/1999/xhtml\"><table class=\"hl7__eu__lab__report\"><tr><th>Test</th><th>16-Aug-2024</th><th>Reference&#xA0;Range</th><th>Unit</th></tr><tr><td>Sodium [Moles/volume] in Blood</td><td>141.0</td><td>135 - 145</td><td></td><td>mmol/L</td></tr></table></div>"
        },
        "status": "final",
        "subject": {
          "reference": "urn:uuid:a9a44943-b88b-4e81-ad84-240c1cb43eb2",
          "display": "Martine Couturier"
        },
        "effectiveDateTime": "2024-08-16T20:13:15Z",
        "specimen": {
          "reference": "urn:uuid:b59e5c97-27bc-4992-8905-4181ca8b3c74"
        }
      }
    },
    {
      "fullUrl": "urn:uuid:3b154f37-638f-4cd6-bcbf-3bee29eb7c46",
      "resource": {
        "resourceType": "Observation",
        "id": "3b154f37-638f-4cd6-bcbf-3bee29eb7c46",
        "meta": {
          "profile": [
            "http://hl7.eu/fhir/laboratory/StructureDefinition/Observation-resultslab-eu-lab"
          ]
        },
        "performer": [
          {
            "display": "The Central European Lab"
          }
        ],
        "category": [
          {
            "coding": [
              {
                "system": "http://terminology.hl7.org/CodeSystem/observation-category",
                "code": "laboratory"
              }
            ]
          }
        ],
        "code": {
          "coding": [
            {
              "code": "6298-4",
              "system": "http://loinc.org",
              "display": "Potassium [Moles/volume] in Blood"
            }
          ],
          "text": "Potassium [Moles/volume] in Blood"
        },
        "valueQuantity": {
          "system": "http://unitsofmeasure.org",
          "value": 3.9,
          "unit": "mmol/L",
          "code": "mmol/L"
        },
        "referenceRange": [
          {
            "low": {
              "value": 3.5,
              "code": "mmol/L",
              "system": "http://unitsofmeasure.org"
            }
          },
          {
            "high": {
              "value": 5.1,
              "code": "mmol/L",
              "system": "http://unitsofmeasure.org"
            }
          }
        ],
        "text": {
          "status": "generated",
          "div": "<div xmlns=\"http://www.w3.org/1999/xhtml\"><table class=\"hl7__eu__lab__report\"><tr><th>Test</th><th>16-Aug-2024</th><th>Reference&#xA0;Range</th><th>Unit</th></tr><tr><td>Potassium [Moles/volume] in Blood</td><td>3.9</td><td>3.5 - 5.1</td><td></td><td>mmol/L</td></tr></table></div>"
        },
        "status": "final",
        "subject": {
          "reference": "urn:uuid:a9a44943-b88b-4e81-ad84-240c1cb43eb2",
          "display": "Martine Couturier"
        },
        "effectiveDateTime": "2024-08-16T20:13:15Z",
        "specimen": {
          "reference": "urn:uuid:b59e5c97-27bc-4992-8905-4181ca8b3c74"
        }
      }
    },
    {
      "fullUrl": "urn:uuid:e564801c-9af2-4d75-84c3-9ba75f440912",
      "resource": {
        "resourceType": "Observation",
        "id": "e564801c-9af2-4d75-84c3-9ba75f440912",
        "meta": {
          "profile": [
            "http://hl7.eu/fhir/laboratory/StructureDefinition/Observation-resultslab-eu-lab"
          ]
        },
        "performer": [
          {
            "display": "The Central European Lab"
          }
        ],
        "category": [
          {
            "coding": [
              {
                "system": "http://terminology.hl7.org/CodeSystem/observation-category",
                "code": "laboratory"
              }
            ]
          }
        ],
        "code": {
          "coding": [
            {
              "code": "2069-3",
              "system": "http://loinc.org",
              "display": "Chloride [Moles/volume] in Blood"
            }
          ],
          "text": "Chloride [Moles/volume] in Blood"
        },
        "valueQuantity": {
          "system": "http://unitsofmeasure.org",
          "value": 108,
          "unit": "mmol/L",
          "code": "mmol/L"
        },
        "referenceRange": [
          {
            "low": {
              "value": 98,
              "code": "mmol/L",
              "system": "http://unitsofmeasure.org"
            }
          },
          {
            "high": {
              "value": 107,
              "code": "mmol/L",
              "system": "http://unitsofmeasure.org"
            }
          }
        ],
        "interpretation": [
          {
            "coding": [
              {
                "code": "H",
                "system": "http://terminology.hl7.org/CodeSystem/v3-ObservationInterpretation",
                "display": "High"
              }
            ]
          }
        ],
        "text": {
          "status": "generated",
          "div": "<div xmlns=\"http://www.w3.org/1999/xhtml\"><table class=\"hl7__eu__lab__report\"><tr><th>Test</th><th>16-Aug-2024</th><th>Reference&#xA0;Range</th><th>Unit</th></tr><tr><td>Chloride [Moles/volume] in Blood</td><td>108.0</td><td>98 - 107</td><td>H</td><td>mmol/L</td></tr></table></div>"
        },
        "status": "final",
        "subject": {
          "reference": "urn:uuid:a9a44943-b88b-4e81-ad84-240c1cb43eb2",
          "display": "Martine Couturier"
        },
        "effectiveDateTime": "2024-08-16T20:13:15Z",
        "specimen": {
          "reference": "urn:uuid:b59e5c97-27bc-4992-8905-4181ca8b3c74"
        }
      }
    },
    {
      "fullUrl": "urn:uuid:dfc90f6a-669b-44e8-9d90-757f1ac69f1e",
      "resource": {
        "resourceType": "Observation",
        "id": "dfc90f6a-669b-44e8-9d90-757f1ac69f1e",
        "meta": {
          "profile": [
            "http://hl7.eu/fhir/laboratory/StructureDefinition/Observation-resultslab-eu-lab"
          ]
        },
        "performer": [
          {
            "display": "The Central European Lab"
          }
        ],
        "category": [
          {
            "coding": [
              {
                "system": "http://terminology.hl7.org/CodeSystem/observation-category",
                "code": "laboratory"
              }
            ]
          }
        ],
        "code": {
          "coding": [
            {
              "code": "20565-8",
              "system": "http://loinc.org",
              "display": "Carbon dioxide, total [Moles/volume] in Blood"
            }
          ],
          "text": "Carbon dioxide, total [Moles/volume] in Blood"
        },
        "valueQuantity": {
          "system": "http://unitsofmeasure.org",
          "value": 27.7,
          "unit": "mmol/L",
          "code": "mmol/L"
        },
        "referenceRange": [
          {
            "low": {
              "value": 22,
              "code": "mmol/L",
              "system": "http://unitsofmeasure.org"
            }
          },
          {
            "high": {
              "value": 29,
              "code": "mmol/L",
              "system": "http://unitsofmeasure.org"
            }
          }
        ],
        "text": {
          "status": "generated",
          "div": "<div xmlns=\"http://www.w3.org/1999/xhtml\"><table class=\"hl7__eu__lab__report\"><tr><th>Test</th><th>16-Aug-2024</th><th>Reference&#xA0;Range</th><th>Unit</th></tr><tr><td>Carbon dioxide, total [Moles/volume] in Blood</td><td>27.7</td><td>22 - 29</td><td></td><td>mmol/L</td></tr></table></div>"
        },
        "status": "final",
        "subject": {
          "reference": "urn:uuid:a9a44943-b88b-4e81-ad84-240c1cb43eb2",
          "display": "Martine Couturier"
        },
        "effectiveDateTime": "2024-08-16T20:13:15Z",
        "specimen": {
          "reference": "urn:uuid:b59e5c97-27bc-4992-8905-4181ca8b3c74"
        }
      }
    },
    {
      "fullUrl": "urn:uuid:d4008bf7-e98a-4bc7-a3f5-5baad9cd92df",
      "resource": {
        "resourceType": "Observation",
        "id": "d4008bf7-e98a-4bc7-a3f5-5baad9cd92df",
        "meta": {
          "profile": [
            "http://hl7.eu/fhir/laboratory/StructureDefinition/Observation-resultslab-eu-lab"
          ]
        },
        "performer": [
          {
            "display": "The Central European Lab"
          }
        ],
        "category": [
          {
            "coding": [
              {
                "system": "http://terminology.hl7.org/CodeSystem/observation-category",
                "code": "laboratory"
              }
            ]
          }
        ],
        "code": {
          "coding": [
            {
              "code": "2093-3",
              "system": "http://loinc.org",
              "display": "Cholesterol [Mass/volume] in Serum or Plasma"
            }
          ],
          "text": "Cholesterol [Mass/volume] in Serum or Plasma"
        },
        "valueQuantity": {
          "system": "http://unitsofmeasure.org",
          "value": 215.4,
          "unit": "mg/dL",
          "code": "mg/dL"
        },
        "referenceRange": [
          {
            "low": {
              "value": 125,
              "code": "mg/dL",
              "system": "http://unitsofmeasure.org"
            }
          },
          {
            "high": {
              "value": 200,
              "code": "mg/dL",
              "system": "http://unitsofmeasure.org"
            }
          }
        ],
        "interpretation": [
          {
            "coding": [
              {
                "code": "H",
                "system": "http://terminology.hl7.org/CodeSystem/v3-ObservationInterpretation",
                "display": "High"
              }
            ]
          }
        ],
        "text": {
          "status": "generated",
          "div": "<div xmlns=\"http://www.w3.org/1999/xhtml\"><table class=\"hl7__eu__lab__report\"><tr><th>Test</th><th>16-Aug-2024</th><th>Reference&#xA0;Range</th><th>Unit</th></tr><tr><td>Cholesterol [Mass/volume] in Serum or Plasma</td><td>215.4</td><td>125 - 200</td><td>H</td><td>mg/dL</td></tr></table></div>"
        },
        "status": "final",
        "subject": {
          "reference": "urn:uuid:a9a44943-b88b-4e81-ad84-240c1cb43eb2",
          "display": "Martine Couturier"
        },
        "effectiveDateTime": "2024-08-16T20:13:15Z",
        "specimen": {
          "reference": "urn:uuid:a5fe727a-4bf6-435f-89ab-b75263b67867"
        }
      }
    },
    {
      "fullUrl": "urn:uuid:06ff332e-9515-4a76-92f3-712af8baca61",
      "resource": {
        "resourceType": "Observation",
        "id": "06ff332e-9515-4a76-92f3-712af8baca61",
        "meta": {
          "profile": [
            "http://hl7.eu/fhir/laboratory/StructureDefinition/Observation-resultslab-eu-lab"
          ]
        },
        "performer": [
          {
            "display": "The Central European Lab"
          }
        ],
        "category": [
          {
            "coding": [
              {
                "system": "http://terminology.hl7.org/CodeSystem/observation-category",
                "code": "laboratory"
              }
            ]
          }
        ],
        "code": {
          "coding": [
            {
              "code": "2571-8",
              "system": "http://loinc.org",
              "display": "Triglyceride [Mass/volume] in Serum or Plasma"
            }
          ],
          "text": "Triglyceride [Mass/volume] in Serum or Plasma"
        },
        "valueQuantity": {
          "system": "http://unitsofmeasure.org",
          "value": 196.9,
          "unit": "mg/dL",
          "code": "mg/dL"
        },
        "referenceRange": [
          {
            "low": {
              "value": 35,
              "code": "mg/dL",
              "system": "http://unitsofmeasure.org"
            }
          },
          {
            "high": {
              "value": 150,
              "code": "mg/dL",
              "system": "http://unitsofmeasure.org"
            }
          }
        ],
        "interpretation": [
          {
            "coding": [
              {
                "code": "H",
                "system": "http://terminology.hl7.org/CodeSystem/v3-ObservationInterpretation",
                "display": "High"
              }
            ]
          }
        ],
        "text": {
          "status": "generated",
          "div": "<div xmlns=\"http://www.w3.org/1999/xhtml\"><table class=\"hl7__eu__lab__report\"><tr><th>Test</th><th>16-Aug-2024</th><th>Reference&#xA0;Range</th><th>Unit</th></tr><tr><td>Triglyceride [Mass/volume] in Serum or Plasma</td><td>196.9</td><td>35 - 150</td><td>H</td><td>mg/dL</td></tr></table></div>"
        },
        "status": "final",
        "subject": {
          "reference": "urn:uuid:a9a44943-b88b-4e81-ad84-240c1cb43eb2",
          "display": "Martine Couturier"
        },
        "effectiveDateTime": "2024-08-16T20:13:15Z",
        "specimen": {
          "reference": "urn:uuid:a5fe727a-4bf6-435f-89ab-b75263b67867"
        }
      }
    },
    {
      "fullUrl": "urn:uuid:e16478db-b64c-489c-86d2-80062bdda8f0",
      "resource": {
        "resourceType": "Observation",
        "id": "e16478db-b64c-489c-86d2-80062bdda8f0",
        "meta": {
          "profile": [
            "http://hl7.eu/fhir/laboratory/StructureDefinition/Observation-resultslab-eu-lab"
          ]
        },
        "performer": [
          {
            "display": "The Central European Lab"
          }
        ],
        "category": [
          {
            "coding": [
              {
                "system": "http://terminology.hl7.org/CodeSystem/observation-category",
                "code": "laboratory"
              }
            ]
          }
        ],
        "code": {
          "coding": [
            {
              "code": "18262-6",
              "system": "http://loinc.org",
              "display": "Cholesterol in LDL [Mass/volume] in Serum or Plasma by Direct assay"
            }
          ],
          "text": "Cholesterol in LDL [Mass/volume] in Serum or Plasma by Direct assay"
        },
        "valueQuantity": {
          "system": "http://unitsofmeasure.org",
          "value": 128.7,
          "unit": "mg/dL",
          "code": "mg/dL"
        },
        "referenceRange": [
          {
            "low": {
              "value": 0,
              "code": "mg/dL",
              "system": "http://unitsofmeasure.org"
            }
          },
          {
            "high": {
              "value": 130,
              "code": "mg/dL",
              "system": "http://unitsofmeasure.org"
            }
          }
        ],
        "text": {
          "status": "generated",
          "div": "<div xmlns=\"http://www.w3.org/1999/xhtml\"><table class=\"hl7__eu__lab__report\"><tr><th>Test</th><th>16-Aug-2024</th><th>Reference&#xA0;Range</th><th>Unit</th></tr><tr><td>Cholesterol in LDL [Mass/volume] in Serum or Plasma by Direct assay</td><td>128.7</td><td>0 - 130</td><td></td><td>mg/dL</td></tr></table></div>"
        },
        "status": "final",
        "subject": {
          "reference": "urn:uuid:a9a44943-b88b-4e81-ad84-240c1cb43eb2",
          "display": "Martine Couturier"
        },
        "effectiveDateTime": "2024-08-16T20:13:15Z",
        "specimen": {
          "reference": "urn:uuid:a5fe727a-4bf6-435f-89ab-b75263b67867"
        }
      }
    },
    {
      "fullUrl": "urn:uuid:05a75900-1f36-42bd-b3d1-081a67b57080",
      "resource": {
        "resourceType": "Observation",
        "id": "05a75900-1f36-42bd-b3d1-081a67b57080",
        "meta": {
          "profile": [
            "http://hl7.eu/fhir/laboratory/StructureDefinition/Observation-resultslab-eu-lab"
          ]
        },
        "performer": [
          {
            "display": "The Central European Lab"
          }
        ],
        "category": [
          {
            "coding": [
              {
                "system": "http://terminology.hl7.org/CodeSystem/observation-category",
                "code": "laboratory"
              }
            ]
          }
        ],
        "code": {
          "coding": [
            {
              "code": "2085-9",
              "system": "http://loinc.org",
              "display": "Cholesterol in HDL [Mass/volume] in Serum or Plasma"
            }
          ],
          "text": "Cholesterol in HDL [Mass/volume] in Serum or Plasma"
        },
        "valueQuantity": {
          "system": "http://unitsofmeasure.org",
          "value": 47.3,
          "unit": "mg/dL",
          "code": "mg/dL"
        },
        "referenceRange": [
          {
            "low": {
              "value": 40,
              "code": "mg/dL",
              "system": "http://unitsofmeasure.org"
            }
          },
          {
            "high": {
              "value": 100,
              "code": "mg/dL",
              "system": "http://unitsofmeasure.org"
            }
          }
        ],
        "text": {
          "status": "generated",
          "div": "<div xmlns=\"http://www.w3.org/1999/xhtml\"><table class=\"hl7__eu__lab__report\"><tr><th>Test</th><th>16-Aug-2024</th><th>Reference&#xA0;Range</th><th>Unit</th></tr><tr><td>Cholesterol in HDL [Mass/volume] in Serum or Plasma</td><td>47.3</td><td>40 - 100</td><td></td><td>mg/dL</td></tr></table></div>"
        },
        "status": "final",
        "subject": {
          "reference": "urn:uuid:a9a44943-b88b-4e81-ad84-240c1cb43eb2",
          "display": "Martine Couturier"
        },
        "effectiveDateTime": "2024-08-16T20:13:15Z",
        "specimen": {
          "reference": "urn:uuid:a5fe727a-4bf6-435f-89ab-b75263b67867"
        }
      }
    },
    {
      "fullUrl": "urn:uuid:933b7de3-4642-4f1c-a19d-427bf275a0a2",
      "resource": {
        "resourceType": "Observation",
        "id": "933b7de3-4642-4f1c-a19d-427bf275a0a2",
        "meta": {
          "profile": [
            "http://hl7.eu/fhir/laboratory/StructureDefinition/Observation-resultslab-eu-lab"
          ]
        },
        "performer": [
          {
            "display": "The Central European Lab"
          }
        ],
        "category": [
          {
            "coding": [
              {
                "system": "http://terminology.hl7.org/CodeSystem/observation-category",
                "code": "laboratory"
              }
            ]
          }
        ],
        "code": {
          "coding": [
            {
              "code": "14959-1",
              "system": "http://loinc.org",
              "display": "Microalbumin/Creatinine [Mass Ratio] in Urine"
            }
          ],
          "text": "Microalbumin/Creatinine [Mass Ratio] in Urine"
        },
        "valueQuantity": {
          "system": "http://unitsofmeasure.org",
          "value": 10.7,
          "unit": "mg/g",
          "code": "mg/g"
        },
        "referenceRange": [
          {
            "low": {
              "value": 0,
              "code": "mg/g",
              "system": "http://unitsofmeasure.org"
            }
          },
          {
            "high": {
              "value": 30,
              "code": "mg/g",
              "system": "http://unitsofmeasure.org"
            }
          }
        ],
        "text": {
          "status": "generated",
          "div": "<div xmlns=\"http://www.w3.org/1999/xhtml\"><table class=\"hl7__eu__lab__report\"><tr><th>Test</th><th>16-Aug-2024</th><th>Reference&#xA0;Range</th><th>Unit</th></tr><tr><td>Microalbumin/Creatinine [Mass Ratio] in Urine</td><td>10.7</td><td>0 - 30</td><td></td><td>mg/g</td></tr></table></div>"
        },
        "status": "final",
        "subject": {
          "reference": "urn:uuid:a9a44943-b88b-4e81-ad84-240c1cb43eb2",
          "display": "Martine Couturier"
        },
        "effectiveDateTime": "2024-08-16T20:13:15Z",
        "specimen": {
          "reference": "urn:uuid:8096ed8f-4c7a-4c90-9ab0-9020e0b78c8f"
        }
      }
    },
    {
      "fullUrl": "urn:uuid:2190bdb2-55e2-4672-a4d6-4f6053d4019a",
      "resource": {
        "resourceType": "Device",
        "id": "2190bdb2-55e2-4672-a4d6-4f6053d4019a",
        "deviceName": [
          {
            "name": "SYNDERAI Synthetic Generator",
            "type": "manufacturer-name"
          }
        ],
        "version": [
          {
            "value": "5.0"
          }
        ],
        "text": {
          "status": "generated",
          "div": "<div xmlns=\"http://www.w3.org/1999/xhtml\">SYNDERAI Synthetic Generator v5.0</div>"
        },
        "status": "active\"",
        "distinctIdentifier": "synderai-generator-50",
        "manufacturer": "SYNDERAI Project"
      }
    },
    {
      "fullUrl": "urn:uuid:c8729f70-04c2-4771-8afd-824f52803c9c",
      "resource": {
        "resourceType": "Provenance",
        "id": "c8729f70-04c2-4771-8afd-824f52803c9c",
        "target": [
          {
            "reference": "Patient/a9a44943-b88b-4e81-ad84-240c1cb43eb2"
          },
          {
            "reference": "Bundle/3c100f43-0c19-4b57-9a97-4824dec6a65d"
          },
          {
            "reference": "Composition/5f686378-6257-4390-a9b5-9121da4820fb"
          },
          {
            "reference": "PractitionerRole/432c4092-e1a9-4c1b-96c4-0c315c14f9ac"
          },
          {
            "reference": "Practitioner/2f069044-b88a-45b7-bc35-cd32bdf45fbf"
          },
          {
            "reference": "PractitionerRole/6efd2452-26e3-46ed-b368-bb27e8cf311e"
          },
          {
            "reference": "Organization/ecc5d7ee-f8fb-44b6-8338-cb879672a612"
          }
        ],
        "activity": {
          "text": "Synthetic Example Data Generation"
        },
        "policy": [
          "https://synderai.net/synderai-synthetic-data-policy"
        ],
        "agent": [
          {
            "type": {
              "text": "author"
            },
            "who": {
              "reference": "Device/2190bdb2-55e2-4672-a4d6-4f6053d4019a"
            }
          }
        ],
        "reason": [
          {
            "text": "Interoperability Testing and Training (non-clinical use)"
          }
        ],
        "text": {
          "status": "generated",
          "div": "<div xmlns=\"http://www.w3.org/1999/xhtml\">Provenance for SYNDERAI Synthetic Example Data Resource</div>"
        },
        "recorded": "2024-08-16T22:13:15Z"
      }
    },
    {
      "fullUrl": "urn:uuid:432c4092-e1a9-4c1b-96c4-0c315c14f9ac",
      "resource": {
        "resourceType": "PractitionerRole",
        "id": "432c4092-e1a9-4c1b-96c4-0c315c14f9ac",
        "meta": {
          "profile": [
            "http://hl7.eu/fhir/base/StructureDefinition/practitionerRole-eu"
          ]
        },
        "text": {
          "status": "generated",
          "div": "<div xmlns=\"http://www.w3.org/1999/xhtml\">Laboratory Role Id: 432c4092-e1a9-4c1b-96c4-0c315c14f9ac</div>"
        },
        "practitioner": {
          "reference": "urn:uuid:2f069044-b88a-45b7-bc35-cd32bdf45fbf"
        }
      }
    },
    {
      "fullUrl": "urn:uuid:2f069044-b88a-45b7-bc35-cd32bdf45fbf",
      "resource": {
        "resourceType": "Practitioner",
        "id": "2f069044-b88a-45b7-bc35-cd32bdf45fbf",
        "meta": {
          "profile": [
            "http://hl7.eu/fhir/base/StructureDefinition/practitioner-eu"
          ]
        },
        "identifier": [
          {
            "assigner": {
              "display": "HL7 Europe"
            },
            "system": "urn:oid:2.16.840.1.113883.2.51.999",
            "value": "c2dbac4b-d2c2-434d-bd5a-e76ce7ad4863"
          }
        ],
        "name": [
          {
            "prefix": [
              "dr"
            ],
            "given": [
              "Ex"
            ],
            "family": "Ample"
          }
        ],
        "address": [
          {
            "line": [
              "Laboratoire Central Européenne",
              "Boulevard du Jardin Botanique 32"
            ],
            "postalCode": "1000",
            "city": "Brussels",
            "country": "Belgium"
          }
        ],
        "text": {
          "status": "generated",
          "div": "<div xmlns=\"http://www.w3.org/1999/xhtml\">Laboratory: Laboratoire Central Européenne, 1000 Brussels, Belgium</div>"
        }
      }
    }
  ],
  "type": "document",
  "timestamp": "2024-08-16T22:13:15Z"
}
