{
  "resourceType": "Bundle",
  "id": "61a70c39-12a6-4ca8-9a0d-2befbaed88cc",
  "meta": {
    "profile": [
      "http://hl7.eu/fhir/laboratory/StructureDefinition/Bundle-eu-lab"
    ]
  },
  "identifier": {
    "assigner": {
      "display": "HL7 Europe"
    },
    "system": "urn:oid:2.16.840.1.113883.2.51.999",
    "value": "fbc18932-a78f-4bd7-833a-ccbf03805608"
  },
  "entry": [
    {
      "fullUrl": "urn:uuid:703f957f-27c5-494a-80d3-0fde28c75fac",
      "resource": {
        "resourceType": "Composition",
        "id": "703f957f-27c5-494a-80d3-0fde28c75fac",
        "meta": {
          "profile": [
            "http://hl7.eu/fhir/laboratory/StructureDefinition/Composition-eu-lab"
          ]
        },
        "identifier": {
          "assigner": {
            "display": "HL7 Europe"
          },
          "system": "urn:oid:2.16.840.1.113883.2.51.999",
          "value": "866407c1-cd13-47a0-8fdc-c6f697752cf5"
        },
        "author": [
          {
            "reference": "urn:uuid:6a9526d6-2177-4f2b-a874-11a8e510d77f"
          }
        ],
        "category": [
          {
            "coding": [
              {
                "code": "26436-6",
                "system": "http://loinc.org",
                "display": "Laboratory studies (set)"
              }
            ]
          }
        ],
        "type": {
          "coding": [
            {
              "code": "11502-2",
              "system": "http://loinc.org",
              "display": "Laboratory report"
            }
          ],
          "text": "Laboratory Report"
        },
        "section": [
          {
            "code": {
              "coding": [
                {
                  "code": "26436-6",
                  "system": "http://loinc.org",
                  "display": "Laboratory studies (set)"
                }
              ],
              "text": "Laboratory studies"
            },
            "section": [
              {
                "code": {
                  "coding": [
                    {
                      "code": "$18719-5",
                      "system": "http://loinc.org",
                      "display": "Chemistry studies (set)"
                    }
                  ],
                  "text": "Chemistry"
                },
                "entry": [
                  {
                    "reference": "urn:uuid:f10e3ba4-a2d4-442b-b6e4-f9208cac14dc"
                  },
                  {
                    "reference": "urn:uuid:4fa8207f-ca4c-4005-a734-39cc1dabcda5"
                  },
                  {
                    "reference": "urn:uuid:c9af5724-8623-46ff-85fc-2c25d5a1d4d8"
                  },
                  {
                    "reference": "urn:uuid:22d6c55a-147d-46bf-9fc9-6c17de503a28"
                  },
                  {
                    "reference": "urn:uuid:8708750b-aaed-421a-b98a-1395cccb7151"
                  },
                  {
                    "reference": "urn:uuid:3fb857a5-332b-4413-8e82-94741148d86a"
                  },
                  {
                    "reference": "urn:uuid:f57d5152-70c1-4379-a81a-8b375f282442"
                  },
                  {
                    "reference": "urn:uuid:83ffce51-b757-4847-b52e-eb68cbe8265c"
                  },
                  {
                    "reference": "urn:uuid:10fb00e2-f473-4b7b-9348-732b907c0b57"
                  },
                  {
                    "reference": "urn:uuid:3e250f97-3462-4cb9-b3f0-2bbc06a3acd9"
                  },
                  {
                    "reference": "urn:uuid:9c8f9d76-c499-42cf-8222-2cfb0b001051"
                  },
                  {
                    "reference": "urn:uuid:12ca4e1a-a72e-4b84-bb53-30bc1db2b4de"
                  },
                  {
                    "reference": "urn:uuid:44253787-e7d2-4432-9932-dc167a33f4a2"
                  }
                ],
                "text": {
                  "status": "generated",
                  "div": "<div xmlns=\"http://www.w3.org/1999/xhtml\"><h3>Chemistry</h3><table class=\"hl7__eu__lab__report\"><thead><tr><th>Test</th><th>05-MAY-2025</th><th>Reference&#xA0;Range</th><th>Unit</th></tr></thead><tbody><tr><td>Hemoglobin A1c/Hemoglobin.total in Blood</td><td>6.0</td><td>4 - 6</td><td>%</td></tr><tr><td>Glucose [Mass/volume] in Blood</td><td>76.1</td><td>70 - 140</td><td>mg/dL</td></tr><tr><td>Urea nitrogen [Mass/volume] in Blood</td><td>18.9</td><td>7 - 20</td><td>mg/dL</td></tr><tr><td>Creatinine [Mass/volume] in Blood</td><td>0.9</td><td>0.9 - 1.3</td><td>mg/dL</td></tr><tr><td>Calcium [Mass/volume] in Blood</td><td>9.4</td><td>8.5 - 10.5</td><td>mg/dL</td></tr><tr><td>Sodium [Moles/volume] in Blood</td><td>136.5</td><td>135 - 145</td><td>mmol/L</td></tr><tr><td>Potassium [Moles/volume] in Blood</td><td>4.3</td><td>3.5 - 5</td><td>mmol/L</td></tr><tr><td>Chloride [Moles/volume] in Blood</td><td>104.3</td><td>98 - 110</td><td>mmol/L</td></tr><tr><td>Carbon dioxide, total [Moles/volume] in Blood</td><td><strong>20.4 L</strong></td><td>22 - 32</td><td>mmol/L</td></tr><tr><td>Cholesterol [Mass/volume] in Serum or Plasma</td><td><strong>214.9 H</strong></td><td>125 - 200</td><td>mg/dL</td></tr><tr><td>Triglyceride [Mass/volume] in Serum or Plasma</td><td>141.2</td><td>0 - 150</td><td>mg/dL</td></tr><tr><td>Cholesterol in LDL [Mass/volume] in Serum or Plasma by Direct assay</td><td><strong>159.3 H</strong></td><td>0 - 130</td><td>mg/dL</td></tr><tr><td>Cholesterol in HDL [Mass/volume] in Serum or Plasma</td><td><strong>27.4 L</strong></td><td>40 - 60</td><td>mg/dL</td></tr></tbody></table></div>"
                },
                "title": "Chemistry"
              }
            ],
            "title": "Laboratory Report"
          },
          {
            "text": {
              "status": "generated",
              "div": "<div xmlns=\"http://www.w3.org/1999/xhtml\"><h3>Annotation</h3><table class=\"hl7__eu__lab__report\"><tr><th>Conclusion and Recommendations based on this report and previous findings known to us</th></tr><tr><td>The patient shows borderline elevated HbA1c, suggesting possible impaired glucose tolerance. Lipid profile reveals high total and LDL cholesterol, low HDL, and normal triglycerides, indicating increased cardiovascular risk. Mildly decreased total CO₂ may suggest a mild metabolic acidosis or compensated respiratory alkalosis. Renal function, electrolytes, and glucose are within normal limits. Recommend further cardiovascular risk assessment and consideration of lifestyle or pharmacological interventions.</td></tr></table></div>"
            },
            "code": {
              "coding": [
                {
                  "system": "http://loinc.org",
                  "code": "48767-8",
                  "display": "Annotation comment"
                }
              ]
            },
            "title": "Annotation comment"
          }
        ],
        "status": "final",
        "subject": {
          "reference": "urn:uuid:30ed1032-5759-4783-abdd-fa5a2e097303",
          "display": "Alessio Fanucci"
        },
        "date": "2025-05-05T09:49:06Z",
        "title": "Laboratory Report",
        "confidentiality": "N"
      }
    },
    {
      "fullUrl": "urn:uuid:8cf12ad7-5aaf-4ca4-886a-f59e855434f0",
      "resource": {
        "resourceType": "DiagnosticReport",
        "id": "8cf12ad7-5aaf-4ca4-886a-f59e855434f0",
        "meta": {
          "profile": [
            "http://hl7.eu/fhir/laboratory/StructureDefinition/DiagnosticReport-eu-lab"
          ]
        },
        "identifier": [
          {
            "assigner": {
              "display": "HL7 Europe"
            },
            "system": "urn:oid:2.16.840.1.113883.2.51.999",
            "value": "e2d58c0c-5c78-4074-94ee-e7be9ed91361"
          }
        ],
        "extension": [
          {
            "url": "http://hl7.org/fhir/5.0/StructureDefinition/extension-DiagnosticReport.composition",
            "valueReference": {
              "reference": "urn:uuid:866407c1-cd13-47a0-8fdc-c6f697752cf5"
            }
          }
        ],
        "category": [
          {
            "coding": [
              {
                "code": "26436-6",
                "system": "http://loinc.org",
                "display": "Laboratory studies (set)"
              }
            ]
          }
        ],
        "specimen": [
          {
            "reference": "urn:uuid:cc7d7e49-2cbb-4389-a9cd-cb30a116d9e1"
          },
          {
            "reference": "urn:uuid:30174e94-f909-4cba-8c88-f50f6e6d5314"
          }
        ],
        "result": [
          {
            "reference": "urn:uuid:f10e3ba4-a2d4-442b-b6e4-f9208cac14dc"
          },
          {
            "reference": "urn:uuid:4fa8207f-ca4c-4005-a734-39cc1dabcda5"
          },
          {
            "reference": "urn:uuid:c9af5724-8623-46ff-85fc-2c25d5a1d4d8"
          },
          {
            "reference": "urn:uuid:22d6c55a-147d-46bf-9fc9-6c17de503a28"
          },
          {
            "reference": "urn:uuid:8708750b-aaed-421a-b98a-1395cccb7151"
          },
          {
            "reference": "urn:uuid:3fb857a5-332b-4413-8e82-94741148d86a"
          },
          {
            "reference": "urn:uuid:f57d5152-70c1-4379-a81a-8b375f282442"
          },
          {
            "reference": "urn:uuid:83ffce51-b757-4847-b52e-eb68cbe8265c"
          },
          {
            "reference": "urn:uuid:10fb00e2-f473-4b7b-9348-732b907c0b57"
          },
          {
            "reference": "urn:uuid:3e250f97-3462-4cb9-b3f0-2bbc06a3acd9"
          },
          {
            "reference": "urn:uuid:9c8f9d76-c499-42cf-8222-2cfb0b001051"
          },
          {
            "reference": "urn:uuid:12ca4e1a-a72e-4b84-bb53-30bc1db2b4de"
          },
          {
            "reference": "urn:uuid:44253787-e7d2-4432-9932-dc167a33f4a2"
          }
        ],
        "status": "registered",
        "code": {
          "coding": [
            {
              "code": "11502-2",
              "system": "http://loinc.org",
              "display": "Laboratory report"
            }
          ]
        },
        "subject": {
          "reference": "urn:uuid:30ed1032-5759-4783-abdd-fa5a2e097303",
          "display": "Alessio Fanucci"
        }
      }
    },
    {
      "fullUrl": "urn:uuid:30ed1032-5759-4783-abdd-fa5a2e097303",
      "resource": {
        "resourceType": "Patient",
        "id": "30ed1032-5759-4783-abdd-fa5a2e097303",
        "meta": {
          "security": [
            {
              "system": "http://terminology.hl7.org/CodeSystem/v3-ActReason",
              "code": "HTEST"
            },
            {
              "system": "http://terminology.hl7.org/CodeSystem/v3-ActReason",
              "code": "TRAIN"
            }
          ],
          "tag": [
            {
              "system": "https://synderai.net/fhir/CodeSystem/tags",
              "code": "synthetic",
              "display": "SYNDERAI Synthetic data"
            }
          ],
          "profile": [
            "http://hl7.eu/fhir/base/StructureDefinition/patient-eu-core"
          ]
        },
        "identifier": [
          {
            "type": {
              "coding": [
                {
                  "code": "PT",
                  "system": "http://terminology.hl7.org/CodeSystem/v2-0203"
                }
              ]
            },
            "system": "http://ec.europa.eu/identifier/eci",
            "value": "4754-874768-3"
          },
          {
            "type": {
              "coding": [
                {
                  "code": "MR",
                  "system": "http://terminology.hl7.org/CodeSystem/v2-0203"
                }
              ]
            },
            "system": "http://local.setting.eu/identifier",
            "value": "4b888823-bdd8-59a3-b785-e7ba28e6a7b5"
          }
        ],
        "name": [
          {
            "family": "Fanucci"
          },
          {
            "given": [
              "Alessio"
            ]
          },
          {
            "text": "Alessio Fanucci"
          }
        ],
        "address": [
          {
            "line": [
              "Incrocio Combi, 822"
            ],
            "use": "home",
            "type": "physical",
            "postalCode": "33015",
            "city": "Moggio Udinese",
            "country": "Italy"
          }
        ],
        "telecom": [
          {
            "system": "phone",
            "value": "0125684636"
          }
        ],
        "extension": [
          {
            "url": "http://hl7.org/fhir/StructureDefinition/patient-nationality",
            "valueCodeableConcept": {
              "coding": [
                {
                  "code": "IT",
                  "system": "http://hl7.org/fhir/ValueSet/country"
                }
              ]
            }
          }
        ],
        "text": {
          "status": "generated",
          "div": "<div xmlns=\"http://www.w3.org/1999/xhtml\"><table class=\"hl7__ips\"><tr><td>Alessio Fanucci</td><td>male</td><td>12-Sep-1964</td></tr></table></div>"
        },
        "gender": "male",
        "birthDate": "1964-09-12"
      }
    },
    {
      "fullUrl": "urn:uuid:238e69a9-7212-4859-84ff-751aa6d3efb1",
      "resource": {
        "resourceType": "ServiceRequest",
        "id": "238e69a9-7212-4859-84ff-751aa6d3efb1",
        "meta": {
          "profile": [
            "http://hl7.eu/fhir/laboratory/StructureDefinition/ServiceRequest-eu-lab"
          ]
        },
        "identifier": [
          {
            "system": "http://example.org",
            "value": "5f5ca901-6ae8-4ff2-9c79-4b932e449d61"
          }
        ],
        "specimen": [
          {
            "reference": "urn:uuid:cc7d7e49-2cbb-4389-a9cd-cb30a116d9e1"
          },
          {
            "reference": "urn:uuid:30174e94-f909-4cba-8c88-f50f6e6d5314"
          }
        ],
        "reasonCode": [
          {
            "coding": [
              {
                "code": "15777000",
                "system": "http://snomed.info/sct",
                "display": "Prediabetes"
              }
            ]
          },
          {
            "coding": [
              {
                "code": "271737000",
                "system": "http://snomed.info/sct",
                "display": "Anemia"
              }
            ]
          },
          {
            "coding": [
              {
                "code": "40055000",
                "system": "http://snomed.info/sct",
                "display": "Chronic sinusitis"
              }
            ]
          }
        ],
        "status": "active",
        "intent": "order",
        "code": {
          "coding": [
            {
              "code": "108252007",
              "system": "http://snomed.info/sct",
              "display": "Laboratory procedure"
            }
          ]
        },
        "subject": {
          "reference": "urn:uuid:30ed1032-5759-4783-abdd-fa5a2e097303",
          "display": "Alessio Fanucci"
        },
        "requester": {
          "reference": "urn:uuid:1b7b0da8-efe8-4c12-99ce-898b8b8b3d57"
        }
      }
    },
    {
      "fullUrl": "urn:uuid:1b7b0da8-efe8-4c12-99ce-898b8b8b3d57",
      "resource": {
        "resourceType": "PractitionerRole",
        "id": "1b7b0da8-efe8-4c12-99ce-898b8b8b3d57",
        "meta": {
          "profile": [
            "http://hl7.eu/fhir/base/StructureDefinition/practitionerRole-eu"
          ]
        },
        "text": {
          "status": "generated",
          "div": "<div xmlns=\"http://www.w3.org/1999/xhtml\">Provider Role Id: 1b7b0da8-efe8-4c12-99ce-898b8b8b3d57</div>"
        },
        "organization": {
          "reference": "urn:uuid:386d0ae8-2fbe-411e-9b51-4071aa2f937d"
        }
      }
    },
    {
      "fullUrl": "urn:uuid:386d0ae8-2fbe-411e-9b51-4071aa2f937d",
      "resource": {
        "resourceType": "Organization",
        "id": "386d0ae8-2fbe-411e-9b51-4071aa2f937d",
        "meta": {
          "profile": [
            "http://hl7.eu/fhir/base/StructureDefinition/organization-eu"
          ]
        },
        "identifier": [
          {
            "assigner": {
              "display": "HL7 Europe"
            },
            "system": "urn:oid:2.16.840.1.113883.2.51.999",
            "value": "beb038ce-f6ea-444d-aa66-ddc6bbebc92c"
          }
        ],
        "address": [
          {
            "city": "Artegna",
            "postalCode": "33011",
            "country": "Italy"
          }
        ],
        "text": {
          "status": "generated",
          "div": "<div xmlns=\"http://www.w3.org/1999/xhtml\">Provider Organization: Ambulatori</div>"
        },
        "name": "Ambulatori"
      }
    },
    {
      "fullUrl": "urn:uuid:cc7d7e49-2cbb-4389-a9cd-cb30a116d9e1",
      "resource": {
        "resourceType": "Specimen",
        "id": "cc7d7e49-2cbb-4389-a9cd-cb30a116d9e1",
        "meta": {
          "profile": [
            "http://hl7.eu/fhir/laboratory/StructureDefinition/Specimen-eu-lab"
          ]
        },
        "collection": {
          "collectedDateTime": "2025-05-05"
        },
        "text": {
          "status": "generated",
          "div": "<div xmlns=\"http://www.w3.org/1999/xhtml\"><table class=\"hl7__eu__lab__report\"><tr><th>Specimen</th><th>Collection Date</th></tr><tr><td>Whole blood specimen (specimen)</td><td><span class=\"nb\">05-May-2025</span></td></tr></table></div>"
        },
        "type": {
          "coding": [
            {
              "code": "258580003",
              "system": "http://snomed.info/sct",
              "display": "Whole blood specimen (specimen)"
            }
          ]
        }
      }
    },
    {
      "fullUrl": "urn:uuid:30174e94-f909-4cba-8c88-f50f6e6d5314",
      "resource": {
        "resourceType": "Specimen",
        "id": "30174e94-f909-4cba-8c88-f50f6e6d5314",
        "meta": {
          "profile": [
            "http://hl7.eu/fhir/laboratory/StructureDefinition/Specimen-eu-lab"
          ]
        },
        "collection": {
          "collectedDateTime": "2025-05-05"
        },
        "text": {
          "status": "generated",
          "div": "<div xmlns=\"http://www.w3.org/1999/xhtml\"><table class=\"hl7__eu__lab__report\"><tr><th>Specimen</th><th>Collection Date</th></tr><tr><td>Acellular blood (serum or plasma) specimen</td><td><span class=\"nb\">05-May-2025</span></td></tr></table></div>"
        },
        "type": {
          "coding": [
            {
              "code": "122592007",
              "system": "http://snomed.info/sct",
              "display": "Acellular blood (serum or plasma) specimen"
            }
          ]
        }
      }
    },
    {
      "fullUrl": "urn:uuid:f10e3ba4-a2d4-442b-b6e4-f9208cac14dc",
      "resource": {
        "resourceType": "Observation",
        "id": "f10e3ba4-a2d4-442b-b6e4-f9208cac14dc",
        "meta": {
          "profile": [
            "http://hl7.eu/fhir/laboratory/StructureDefinition/Observation-resultslab-eu-lab"
          ]
        },
        "performer": [
          {
            "display": "The Central European Lab"
          }
        ],
        "category": [
          {
            "coding": [
              {
                "system": "http://terminology.hl7.org/CodeSystem/observation-category",
                "code": "laboratory"
              }
            ]
          }
        ],
        "code": {
          "coding": [
            {
              "code": "4548-4",
              "system": "http://loinc.org",
              "display": "Hemoglobin A1c/Hemoglobin.total in Blood"
            }
          ],
          "text": "Hemoglobin A1c/Hemoglobin.total in Blood"
        },
        "valueQuantity": {
          "system": "http://unitsofmeasure.org",
          "value": 6,
          "unit": "%",
          "code": "%"
        },
        "referenceRange": [
          {
            "low": {
              "value": 4,
              "code": "%",
              "system": "http://unitsofmeasure.org"
            }
          },
          {
            "high": {
              "value": 6,
              "code": "%",
              "system": "http://unitsofmeasure.org"
            }
          }
        ],
        "text": {
          "status": "generated",
          "div": "<div xmlns=\"http://www.w3.org/1999/xhtml\"><table class=\"hl7__eu__lab__report\"><tr><th>Test</th><th>05-May-2025</th><th>Reference&#xA0;Range</th><th>Unit</th></tr><tr><td>Hemoglobin A1c/Hemoglobin.total in Blood</td><td>6.0</td><td>4 - 6</td><td></td><td>%</td></tr></table></div>"
        },
        "status": "final",
        "subject": {
          "reference": "urn:uuid:30ed1032-5759-4783-abdd-fa5a2e097303",
          "display": "Alessio Fanucci"
        },
        "effectiveDateTime": "2025-05-05T07:49:06Z",
        "specimen": {
          "reference": "urn:uuid:cc7d7e49-2cbb-4389-a9cd-cb30a116d9e1"
        }
      }
    },
    {
      "fullUrl": "urn:uuid:4fa8207f-ca4c-4005-a734-39cc1dabcda5",
      "resource": {
        "resourceType": "Observation",
        "id": "4fa8207f-ca4c-4005-a734-39cc1dabcda5",
        "meta": {
          "profile": [
            "http://hl7.eu/fhir/laboratory/StructureDefinition/Observation-resultslab-eu-lab"
          ]
        },
        "performer": [
          {
            "display": "The Central European Lab"
          }
        ],
        "category": [
          {
            "coding": [
              {
                "system": "http://terminology.hl7.org/CodeSystem/observation-category",
                "code": "laboratory"
              }
            ]
          }
        ],
        "code": {
          "coding": [
            {
              "code": "2339-0",
              "system": "http://loinc.org",
              "display": "Glucose [Mass/volume] in Blood"
            }
          ],
          "text": "Glucose [Mass/volume] in Blood"
        },
        "valueQuantity": {
          "system": "http://unitsofmeasure.org",
          "value": 76.1,
          "unit": "mg/dL",
          "code": "mg/dL"
        },
        "referenceRange": [
          {
            "low": {
              "value": 70,
              "code": "mg/dL",
              "system": "http://unitsofmeasure.org"
            }
          },
          {
            "high": {
              "value": 140,
              "code": "mg/dL",
              "system": "http://unitsofmeasure.org"
            }
          }
        ],
        "text": {
          "status": "generated",
          "div": "<div xmlns=\"http://www.w3.org/1999/xhtml\"><table class=\"hl7__eu__lab__report\"><tr><th>Test</th><th>05-May-2025</th><th>Reference&#xA0;Range</th><th>Unit</th></tr><tr><td>Glucose [Mass/volume] in Blood</td><td>76.1</td><td>70 - 140</td><td></td><td>mg/dL</td></tr></table></div>"
        },
        "status": "final",
        "subject": {
          "reference": "urn:uuid:30ed1032-5759-4783-abdd-fa5a2e097303",
          "display": "Alessio Fanucci"
        },
        "effectiveDateTime": "2025-05-05T07:49:06Z",
        "specimen": {
          "reference": "urn:uuid:cc7d7e49-2cbb-4389-a9cd-cb30a116d9e1"
        }
      }
    },
    {
      "fullUrl": "urn:uuid:c9af5724-8623-46ff-85fc-2c25d5a1d4d8",
      "resource": {
        "resourceType": "Observation",
        "id": "c9af5724-8623-46ff-85fc-2c25d5a1d4d8",
        "meta": {
          "profile": [
            "http://hl7.eu/fhir/laboratory/StructureDefinition/Observation-resultslab-eu-lab"
          ]
        },
        "performer": [
          {
            "display": "The Central European Lab"
          }
        ],
        "category": [
          {
            "coding": [
              {
                "system": "http://terminology.hl7.org/CodeSystem/observation-category",
                "code": "laboratory"
              }
            ]
          }
        ],
        "code": {
          "coding": [
            {
              "code": "6299-2",
              "system": "http://loinc.org",
              "display": "Urea nitrogen [Mass/volume] in Blood"
            }
          ],
          "text": "Urea nitrogen [Mass/volume] in Blood"
        },
        "valueQuantity": {
          "system": "http://unitsofmeasure.org",
          "value": 18.9,
          "unit": "mg/dL",
          "code": "mg/dL"
        },
        "referenceRange": [
          {
            "low": {
              "value": 7,
              "code": "mg/dL",
              "system": "http://unitsofmeasure.org"
            }
          },
          {
            "high": {
              "value": 20,
              "code": "mg/dL",
              "system": "http://unitsofmeasure.org"
            }
          }
        ],
        "text": {
          "status": "generated",
          "div": "<div xmlns=\"http://www.w3.org/1999/xhtml\"><table class=\"hl7__eu__lab__report\"><tr><th>Test</th><th>05-May-2025</th><th>Reference&#xA0;Range</th><th>Unit</th></tr><tr><td>Urea nitrogen [Mass/volume] in Blood</td><td>18.9</td><td>7 - 20</td><td></td><td>mg/dL</td></tr></table></div>"
        },
        "status": "final",
        "subject": {
          "reference": "urn:uuid:30ed1032-5759-4783-abdd-fa5a2e097303",
          "display": "Alessio Fanucci"
        },
        "effectiveDateTime": "2025-05-05T07:49:06Z",
        "specimen": {
          "reference": "urn:uuid:cc7d7e49-2cbb-4389-a9cd-cb30a116d9e1"
        }
      }
    },
    {
      "fullUrl": "urn:uuid:22d6c55a-147d-46bf-9fc9-6c17de503a28",
      "resource": {
        "resourceType": "Observation",
        "id": "22d6c55a-147d-46bf-9fc9-6c17de503a28",
        "meta": {
          "profile": [
            "http://hl7.eu/fhir/laboratory/StructureDefinition/Observation-resultslab-eu-lab"
          ]
        },
        "performer": [
          {
            "display": "The Central European Lab"
          }
        ],
        "category": [
          {
            "coding": [
              {
                "system": "http://terminology.hl7.org/CodeSystem/observation-category",
                "code": "laboratory"
              }
            ]
          }
        ],
        "code": {
          "coding": [
            {
              "code": "38483-4",
              "system": "http://loinc.org",
              "display": "Creatinine [Mass/volume] in Blood"
            }
          ],
          "text": "Creatinine [Mass/volume] in Blood"
        },
        "valueQuantity": {
          "system": "http://unitsofmeasure.org",
          "value": 0.9,
          "unit": "mg/dL",
          "code": "mg/dL"
        },
        "referenceRange": [
          {
            "low": {
              "value": 0.9,
              "code": "mg/dL",
              "system": "http://unitsofmeasure.org"
            }
          },
          {
            "high": {
              "value": 1.3,
              "code": "mg/dL",
              "system": "http://unitsofmeasure.org"
            }
          }
        ],
        "text": {
          "status": "generated",
          "div": "<div xmlns=\"http://www.w3.org/1999/xhtml\"><table class=\"hl7__eu__lab__report\"><tr><th>Test</th><th>05-May-2025</th><th>Reference&#xA0;Range</th><th>Unit</th></tr><tr><td>Creatinine [Mass/volume] in Blood</td><td>0.9</td><td>0.9 - 1.3</td><td></td><td>mg/dL</td></tr></table></div>"
        },
        "status": "final",
        "subject": {
          "reference": "urn:uuid:30ed1032-5759-4783-abdd-fa5a2e097303",
          "display": "Alessio Fanucci"
        },
        "effectiveDateTime": "2025-05-05T07:49:06Z",
        "specimen": {
          "reference": "urn:uuid:cc7d7e49-2cbb-4389-a9cd-cb30a116d9e1"
        }
      }
    },
    {
      "fullUrl": "urn:uuid:8708750b-aaed-421a-b98a-1395cccb7151",
      "resource": {
        "resourceType": "Observation",
        "id": "8708750b-aaed-421a-b98a-1395cccb7151",
        "meta": {
          "profile": [
            "http://hl7.eu/fhir/laboratory/StructureDefinition/Observation-resultslab-eu-lab"
          ]
        },
        "performer": [
          {
            "display": "The Central European Lab"
          }
        ],
        "category": [
          {
            "coding": [
              {
                "system": "http://terminology.hl7.org/CodeSystem/observation-category",
                "code": "laboratory"
              }
            ]
          }
        ],
        "code": {
          "coding": [
            {
              "code": "49765-1",
              "system": "http://loinc.org",
              "display": "Calcium [Mass/volume] in Blood"
            }
          ],
          "text": "Calcium [Mass/volume] in Blood"
        },
        "valueQuantity": {
          "system": "http://unitsofmeasure.org",
          "value": 9.4,
          "unit": "mg/dL",
          "code": "mg/dL"
        },
        "referenceRange": [
          {
            "low": {
              "value": 8.5,
              "code": "mg/dL",
              "system": "http://unitsofmeasure.org"
            }
          },
          {
            "high": {
              "value": 10.5,
              "code": "mg/dL",
              "system": "http://unitsofmeasure.org"
            }
          }
        ],
        "text": {
          "status": "generated",
          "div": "<div xmlns=\"http://www.w3.org/1999/xhtml\"><table class=\"hl7__eu__lab__report\"><tr><th>Test</th><th>05-May-2025</th><th>Reference&#xA0;Range</th><th>Unit</th></tr><tr><td>Calcium [Mass/volume] in Blood</td><td>9.4</td><td>8.5 - 10.5</td><td></td><td>mg/dL</td></tr></table></div>"
        },
        "status": "final",
        "subject": {
          "reference": "urn:uuid:30ed1032-5759-4783-abdd-fa5a2e097303",
          "display": "Alessio Fanucci"
        },
        "effectiveDateTime": "2025-05-05T07:49:06Z",
        "specimen": {
          "reference": "urn:uuid:cc7d7e49-2cbb-4389-a9cd-cb30a116d9e1"
        }
      }
    },
    {
      "fullUrl": "urn:uuid:3fb857a5-332b-4413-8e82-94741148d86a",
      "resource": {
        "resourceType": "Observation",
        "id": "3fb857a5-332b-4413-8e82-94741148d86a",
        "meta": {
          "profile": [
            "http://hl7.eu/fhir/laboratory/StructureDefinition/Observation-resultslab-eu-lab"
          ]
        },
        "performer": [
          {
            "display": "The Central European Lab"
          }
        ],
        "category": [
          {
            "coding": [
              {
                "system": "http://terminology.hl7.org/CodeSystem/observation-category",
                "code": "laboratory"
              }
            ]
          }
        ],
        "code": {
          "coding": [
            {
              "code": "2947-0",
              "system": "http://loinc.org",
              "display": "Sodium [Moles/volume] in Blood"
            }
          ],
          "text": "Sodium [Moles/volume] in Blood"
        },
        "valueQuantity": {
          "system": "http://unitsofmeasure.org",
          "value": 136.5,
          "unit": "mmol/L",
          "code": "mmol/L"
        },
        "referenceRange": [
          {
            "low": {
              "value": 135,
              "code": "mmol/L",
              "system": "http://unitsofmeasure.org"
            }
          },
          {
            "high": {
              "value": 145,
              "code": "mmol/L",
              "system": "http://unitsofmeasure.org"
            }
          }
        ],
        "text": {
          "status": "generated",
          "div": "<div xmlns=\"http://www.w3.org/1999/xhtml\"><table class=\"hl7__eu__lab__report\"><tr><th>Test</th><th>05-May-2025</th><th>Reference&#xA0;Range</th><th>Unit</th></tr><tr><td>Sodium [Moles/volume] in Blood</td><td>136.5</td><td>135 - 145</td><td></td><td>mmol/L</td></tr></table></div>"
        },
        "status": "final",
        "subject": {
          "reference": "urn:uuid:30ed1032-5759-4783-abdd-fa5a2e097303",
          "display": "Alessio Fanucci"
        },
        "effectiveDateTime": "2025-05-05T07:49:06Z",
        "specimen": {
          "reference": "urn:uuid:cc7d7e49-2cbb-4389-a9cd-cb30a116d9e1"
        }
      }
    },
    {
      "fullUrl": "urn:uuid:f57d5152-70c1-4379-a81a-8b375f282442",
      "resource": {
        "resourceType": "Observation",
        "id": "f57d5152-70c1-4379-a81a-8b375f282442",
        "meta": {
          "profile": [
            "http://hl7.eu/fhir/laboratory/StructureDefinition/Observation-resultslab-eu-lab"
          ]
        },
        "performer": [
          {
            "display": "The Central European Lab"
          }
        ],
        "category": [
          {
            "coding": [
              {
                "system": "http://terminology.hl7.org/CodeSystem/observation-category",
                "code": "laboratory"
              }
            ]
          }
        ],
        "code": {
          "coding": [
            {
              "code": "6298-4",
              "system": "http://loinc.org",
              "display": "Potassium [Moles/volume] in Blood"
            }
          ],
          "text": "Potassium [Moles/volume] in Blood"
        },
        "valueQuantity": {
          "system": "http://unitsofmeasure.org",
          "value": 4.3,
          "unit": "mmol/L",
          "code": "mmol/L"
        },
        "referenceRange": [
          {
            "low": {
              "value": 3.5,
              "code": "mmol/L",
              "system": "http://unitsofmeasure.org"
            }
          },
          {
            "high": {
              "value": 5,
              "code": "mmol/L",
              "system": "http://unitsofmeasure.org"
            }
          }
        ],
        "text": {
          "status": "generated",
          "div": "<div xmlns=\"http://www.w3.org/1999/xhtml\"><table class=\"hl7__eu__lab__report\"><tr><th>Test</th><th>05-May-2025</th><th>Reference&#xA0;Range</th><th>Unit</th></tr><tr><td>Potassium [Moles/volume] in Blood</td><td>4.3</td><td>3.5 - 5</td><td></td><td>mmol/L</td></tr></table></div>"
        },
        "status": "final",
        "subject": {
          "reference": "urn:uuid:30ed1032-5759-4783-abdd-fa5a2e097303",
          "display": "Alessio Fanucci"
        },
        "effectiveDateTime": "2025-05-05T07:49:06Z",
        "specimen": {
          "reference": "urn:uuid:cc7d7e49-2cbb-4389-a9cd-cb30a116d9e1"
        }
      }
    },
    {
      "fullUrl": "urn:uuid:83ffce51-b757-4847-b52e-eb68cbe8265c",
      "resource": {
        "resourceType": "Observation",
        "id": "83ffce51-b757-4847-b52e-eb68cbe8265c",
        "meta": {
          "profile": [
            "http://hl7.eu/fhir/laboratory/StructureDefinition/Observation-resultslab-eu-lab"
          ]
        },
        "performer": [
          {
            "display": "The Central European Lab"
          }
        ],
        "category": [
          {
            "coding": [
              {
                "system": "http://terminology.hl7.org/CodeSystem/observation-category",
                "code": "laboratory"
              }
            ]
          }
        ],
        "code": {
          "coding": [
            {
              "code": "2069-3",
              "system": "http://loinc.org",
              "display": "Chloride [Moles/volume] in Blood"
            }
          ],
          "text": "Chloride [Moles/volume] in Blood"
        },
        "valueQuantity": {
          "system": "http://unitsofmeasure.org",
          "value": 104.3,
          "unit": "mmol/L",
          "code": "mmol/L"
        },
        "referenceRange": [
          {
            "low": {
              "value": 98,
              "code": "mmol/L",
              "system": "http://unitsofmeasure.org"
            }
          },
          {
            "high": {
              "value": 110,
              "code": "mmol/L",
              "system": "http://unitsofmeasure.org"
            }
          }
        ],
        "text": {
          "status": "generated",
          "div": "<div xmlns=\"http://www.w3.org/1999/xhtml\"><table class=\"hl7__eu__lab__report\"><tr><th>Test</th><th>05-May-2025</th><th>Reference&#xA0;Range</th><th>Unit</th></tr><tr><td>Chloride [Moles/volume] in Blood</td><td>104.3</td><td>98 - 110</td><td></td><td>mmol/L</td></tr></table></div>"
        },
        "status": "final",
        "subject": {
          "reference": "urn:uuid:30ed1032-5759-4783-abdd-fa5a2e097303",
          "display": "Alessio Fanucci"
        },
        "effectiveDateTime": "2025-05-05T07:49:06Z",
        "specimen": {
          "reference": "urn:uuid:cc7d7e49-2cbb-4389-a9cd-cb30a116d9e1"
        }
      }
    },
    {
      "fullUrl": "urn:uuid:10fb00e2-f473-4b7b-9348-732b907c0b57",
      "resource": {
        "resourceType": "Observation",
        "id": "10fb00e2-f473-4b7b-9348-732b907c0b57",
        "meta": {
          "profile": [
            "http://hl7.eu/fhir/laboratory/StructureDefinition/Observation-resultslab-eu-lab"
          ]
        },
        "performer": [
          {
            "display": "The Central European Lab"
          }
        ],
        "category": [
          {
            "coding": [
              {
                "system": "http://terminology.hl7.org/CodeSystem/observation-category",
                "code": "laboratory"
              }
            ]
          }
        ],
        "code": {
          "coding": [
            {
              "code": "20565-8",
              "system": "http://loinc.org",
              "display": "Carbon dioxide, total [Moles/volume] in Blood"
            }
          ],
          "text": "Carbon dioxide, total [Moles/volume] in Blood"
        },
        "valueQuantity": {
          "system": "http://unitsofmeasure.org",
          "value": 20.4,
          "unit": "mmol/L",
          "code": "mmol/L"
        },
        "referenceRange": [
          {
            "low": {
              "value": 22,
              "code": "mmol/L",
              "system": "http://unitsofmeasure.org"
            }
          },
          {
            "high": {
              "value": 32,
              "code": "mmol/L",
              "system": "http://unitsofmeasure.org"
            }
          }
        ],
        "interpretation": [
          {
            "coding": [
              {
                "code": "L",
                "system": "http://terminology.hl7.org/CodeSystem/v3-ObservationInterpretation",
                "display": "Low"
              }
            ]
          }
        ],
        "text": {
          "status": "generated",
          "div": "<div xmlns=\"http://www.w3.org/1999/xhtml\"><table class=\"hl7__eu__lab__report\"><tr><th>Test</th><th>05-May-2025</th><th>Reference&#xA0;Range</th><th>Unit</th></tr><tr><td>Carbon dioxide, total [Moles/volume] in Blood</td><td>20.4</td><td>22 - 32</td><td>L</td><td>mmol/L</td></tr></table></div>"
        },
        "status": "final",
        "subject": {
          "reference": "urn:uuid:30ed1032-5759-4783-abdd-fa5a2e097303",
          "display": "Alessio Fanucci"
        },
        "effectiveDateTime": "2025-05-05T07:49:06Z",
        "specimen": {
          "reference": "urn:uuid:cc7d7e49-2cbb-4389-a9cd-cb30a116d9e1"
        }
      }
    },
    {
      "fullUrl": "urn:uuid:3e250f97-3462-4cb9-b3f0-2bbc06a3acd9",
      "resource": {
        "resourceType": "Observation",
        "id": "3e250f97-3462-4cb9-b3f0-2bbc06a3acd9",
        "meta": {
          "profile": [
            "http://hl7.eu/fhir/laboratory/StructureDefinition/Observation-resultslab-eu-lab"
          ]
        },
        "performer": [
          {
            "display": "The Central European Lab"
          }
        ],
        "category": [
          {
            "coding": [
              {
                "system": "http://terminology.hl7.org/CodeSystem/observation-category",
                "code": "laboratory"
              }
            ]
          }
        ],
        "code": {
          "coding": [
            {
              "code": "2093-3",
              "system": "http://loinc.org",
              "display": "Cholesterol [Mass/volume] in Serum or Plasma"
            }
          ],
          "text": "Cholesterol [Mass/volume] in Serum or Plasma"
        },
        "valueQuantity": {
          "system": "http://unitsofmeasure.org",
          "value": 214.9,
          "unit": "mg/dL",
          "code": "mg/dL"
        },
        "referenceRange": [
          {
            "low": {
              "value": 125,
              "code": "mg/dL",
              "system": "http://unitsofmeasure.org"
            }
          },
          {
            "high": {
              "value": 200,
              "code": "mg/dL",
              "system": "http://unitsofmeasure.org"
            }
          }
        ],
        "interpretation": [
          {
            "coding": [
              {
                "code": "H",
                "system": "http://terminology.hl7.org/CodeSystem/v3-ObservationInterpretation",
                "display": "High"
              }
            ]
          }
        ],
        "text": {
          "status": "generated",
          "div": "<div xmlns=\"http://www.w3.org/1999/xhtml\"><table class=\"hl7__eu__lab__report\"><tr><th>Test</th><th>05-May-2025</th><th>Reference&#xA0;Range</th><th>Unit</th></tr><tr><td>Cholesterol [Mass/volume] in Serum or Plasma</td><td>214.9</td><td>125 - 200</td><td>H</td><td>mg/dL</td></tr></table></div>"
        },
        "status": "final",
        "subject": {
          "reference": "urn:uuid:30ed1032-5759-4783-abdd-fa5a2e097303",
          "display": "Alessio Fanucci"
        },
        "effectiveDateTime": "2025-05-05T07:49:06Z",
        "specimen": {
          "reference": "urn:uuid:30174e94-f909-4cba-8c88-f50f6e6d5314"
        }
      }
    },
    {
      "fullUrl": "urn:uuid:9c8f9d76-c499-42cf-8222-2cfb0b001051",
      "resource": {
        "resourceType": "Observation",
        "id": "9c8f9d76-c499-42cf-8222-2cfb0b001051",
        "meta": {
          "profile": [
            "http://hl7.eu/fhir/laboratory/StructureDefinition/Observation-resultslab-eu-lab"
          ]
        },
        "performer": [
          {
            "display": "The Central European Lab"
          }
        ],
        "category": [
          {
            "coding": [
              {
                "system": "http://terminology.hl7.org/CodeSystem/observation-category",
                "code": "laboratory"
              }
            ]
          }
        ],
        "code": {
          "coding": [
            {
              "code": "2571-8",
              "system": "http://loinc.org",
              "display": "Triglyceride [Mass/volume] in Serum or Plasma"
            }
          ],
          "text": "Triglyceride [Mass/volume] in Serum or Plasma"
        },
        "valueQuantity": {
          "system": "http://unitsofmeasure.org",
          "value": 141.2,
          "unit": "mg/dL",
          "code": "mg/dL"
        },
        "referenceRange": [
          {
            "low": {
              "value": 0,
              "code": "mg/dL",
              "system": "http://unitsofmeasure.org"
            }
          },
          {
            "high": {
              "value": 150,
              "code": "mg/dL",
              "system": "http://unitsofmeasure.org"
            }
          }
        ],
        "text": {
          "status": "generated",
          "div": "<div xmlns=\"http://www.w3.org/1999/xhtml\"><table class=\"hl7__eu__lab__report\"><tr><th>Test</th><th>05-May-2025</th><th>Reference&#xA0;Range</th><th>Unit</th></tr><tr><td>Triglyceride [Mass/volume] in Serum or Plasma</td><td>141.2</td><td>0 - 150</td><td></td><td>mg/dL</td></tr></table></div>"
        },
        "status": "final",
        "subject": {
          "reference": "urn:uuid:30ed1032-5759-4783-abdd-fa5a2e097303",
          "display": "Alessio Fanucci"
        },
        "effectiveDateTime": "2025-05-05T07:49:06Z",
        "specimen": {
          "reference": "urn:uuid:30174e94-f909-4cba-8c88-f50f6e6d5314"
        }
      }
    },
    {
      "fullUrl": "urn:uuid:12ca4e1a-a72e-4b84-bb53-30bc1db2b4de",
      "resource": {
        "resourceType": "Observation",
        "id": "12ca4e1a-a72e-4b84-bb53-30bc1db2b4de",
        "meta": {
          "profile": [
            "http://hl7.eu/fhir/laboratory/StructureDefinition/Observation-resultslab-eu-lab"
          ]
        },
        "performer": [
          {
            "display": "The Central European Lab"
          }
        ],
        "category": [
          {
            "coding": [
              {
                "system": "http://terminology.hl7.org/CodeSystem/observation-category",
                "code": "laboratory"
              }
            ]
          }
        ],
        "code": {
          "coding": [
            {
              "code": "18262-6",
              "system": "http://loinc.org",
              "display": "Cholesterol in LDL [Mass/volume] in Serum or Plasma by Direct assay"
            }
          ],
          "text": "Cholesterol in LDL [Mass/volume] in Serum or Plasma by Direct assay"
        },
        "valueQuantity": {
          "system": "http://unitsofmeasure.org",
          "value": 159.3,
          "unit": "mg/dL",
          "code": "mg/dL"
        },
        "referenceRange": [
          {
            "low": {
              "value": 0,
              "code": "mg/dL",
              "system": "http://unitsofmeasure.org"
            }
          },
          {
            "high": {
              "value": 130,
              "code": "mg/dL",
              "system": "http://unitsofmeasure.org"
            }
          }
        ],
        "interpretation": [
          {
            "coding": [
              {
                "code": "H",
                "system": "http://terminology.hl7.org/CodeSystem/v3-ObservationInterpretation",
                "display": "High"
              }
            ]
          }
        ],
        "text": {
          "status": "generated",
          "div": "<div xmlns=\"http://www.w3.org/1999/xhtml\"><table class=\"hl7__eu__lab__report\"><tr><th>Test</th><th>05-May-2025</th><th>Reference&#xA0;Range</th><th>Unit</th></tr><tr><td>Cholesterol in LDL [Mass/volume] in Serum or Plasma by Direct assay</td><td>159.3</td><td>0 - 130</td><td>H</td><td>mg/dL</td></tr></table></div>"
        },
        "status": "final",
        "subject": {
          "reference": "urn:uuid:30ed1032-5759-4783-abdd-fa5a2e097303",
          "display": "Alessio Fanucci"
        },
        "effectiveDateTime": "2025-05-05T07:49:06Z",
        "specimen": {
          "reference": "urn:uuid:30174e94-f909-4cba-8c88-f50f6e6d5314"
        }
      }
    },
    {
      "fullUrl": "urn:uuid:44253787-e7d2-4432-9932-dc167a33f4a2",
      "resource": {
        "resourceType": "Observation",
        "id": "44253787-e7d2-4432-9932-dc167a33f4a2",
        "meta": {
          "profile": [
            "http://hl7.eu/fhir/laboratory/StructureDefinition/Observation-resultslab-eu-lab"
          ]
        },
        "performer": [
          {
            "display": "The Central European Lab"
          }
        ],
        "category": [
          {
            "coding": [
              {
                "system": "http://terminology.hl7.org/CodeSystem/observation-category",
                "code": "laboratory"
              }
            ]
          }
        ],
        "code": {
          "coding": [
            {
              "code": "2085-9",
              "system": "http://loinc.org",
              "display": "Cholesterol in HDL [Mass/volume] in Serum or Plasma"
            }
          ],
          "text": "Cholesterol in HDL [Mass/volume] in Serum or Plasma"
        },
        "valueQuantity": {
          "system": "http://unitsofmeasure.org",
          "value": 27.4,
          "unit": "mg/dL",
          "code": "mg/dL"
        },
        "referenceRange": [
          {
            "low": {
              "value": 40,
              "code": "mg/dL",
              "system": "http://unitsofmeasure.org"
            }
          },
          {
            "high": {
              "value": 60,
              "code": "mg/dL",
              "system": "http://unitsofmeasure.org"
            }
          }
        ],
        "interpretation": [
          {
            "coding": [
              {
                "code": "L",
                "system": "http://terminology.hl7.org/CodeSystem/v3-ObservationInterpretation",
                "display": "Low"
              }
            ]
          }
        ],
        "text": {
          "status": "generated",
          "div": "<div xmlns=\"http://www.w3.org/1999/xhtml\"><table class=\"hl7__eu__lab__report\"><tr><th>Test</th><th>05-May-2025</th><th>Reference&#xA0;Range</th><th>Unit</th></tr><tr><td>Cholesterol in HDL [Mass/volume] in Serum or Plasma</td><td>27.4</td><td>40 - 60</td><td>L</td><td>mg/dL</td></tr></table></div>"
        },
        "status": "final",
        "subject": {
          "reference": "urn:uuid:30ed1032-5759-4783-abdd-fa5a2e097303",
          "display": "Alessio Fanucci"
        },
        "effectiveDateTime": "2025-05-05T07:49:06Z",
        "specimen": {
          "reference": "urn:uuid:30174e94-f909-4cba-8c88-f50f6e6d5314"
        }
      }
    },
    {
      "fullUrl": "urn:uuid:2803fcf8-d059-4cbb-9e09-b422a336f191",
      "resource": {
        "resourceType": "Device",
        "id": "2803fcf8-d059-4cbb-9e09-b422a336f191",
        "deviceName": [
          {
            "name": "SYNDERAI Synthetic Generator",
            "type": "manufacturer-name"
          }
        ],
        "version": [
          {
            "value": "5.0"
          }
        ],
        "text": {
          "status": "generated",
          "div": "<div xmlns=\"http://www.w3.org/1999/xhtml\">SYNDERAI Synthetic Generator v5.0</div>"
        },
        "status": "active\"",
        "distinctIdentifier": "synderai-generator-50",
        "manufacturer": "SYNDERAI Project"
      }
    },
    {
      "fullUrl": "urn:uuid:ab2b32ac-cecd-444b-a443-9c1b6afa1b88",
      "resource": {
        "resourceType": "Provenance",
        "id": "ab2b32ac-cecd-444b-a443-9c1b6afa1b88",
        "target": [
          {
            "reference": "Patient/30ed1032-5759-4783-abdd-fa5a2e097303"
          },
          {
            "reference": "Bundle/61a70c39-12a6-4ca8-9a0d-2befbaed88cc"
          },
          {
            "reference": "Composition/703f957f-27c5-494a-80d3-0fde28c75fac"
          },
          {
            "reference": "PractitionerRole/6a9526d6-2177-4f2b-a874-11a8e510d77f"
          },
          {
            "reference": "Practitioner/d61449a0-c5db-4729-a264-579d073274bd"
          },
          {
            "reference": "PractitionerRole/1b7b0da8-efe8-4c12-99ce-898b8b8b3d57"
          },
          {
            "reference": "Organization/386d0ae8-2fbe-411e-9b51-4071aa2f937d"
          }
        ],
        "activity": {
          "text": "Synthetic Example Data Generation"
        },
        "policy": [
          "https://synderai.net/synderai-synthetic-data-policy"
        ],
        "agent": [
          {
            "type": {
              "text": "author"
            },
            "who": {
              "reference": "Device/2803fcf8-d059-4cbb-9e09-b422a336f191"
            }
          }
        ],
        "reason": [
          {
            "text": "Interoperability Testing and Training (non-clinical use)"
          }
        ],
        "text": {
          "status": "generated",
          "div": "<div xmlns=\"http://www.w3.org/1999/xhtml\">Provenance for SYNDERAI Synthetic Example Data Resource</div>"
        },
        "recorded": "2025-05-05T09:49:06Z"
      }
    },
    {
      "fullUrl": "urn:uuid:6a9526d6-2177-4f2b-a874-11a8e510d77f",
      "resource": {
        "resourceType": "PractitionerRole",
        "id": "6a9526d6-2177-4f2b-a874-11a8e510d77f",
        "meta": {
          "profile": [
            "http://hl7.eu/fhir/base/StructureDefinition/practitionerRole-eu"
          ]
        },
        "text": {
          "status": "generated",
          "div": "<div xmlns=\"http://www.w3.org/1999/xhtml\">Laboratory Role Id: 6a9526d6-2177-4f2b-a874-11a8e510d77f</div>"
        },
        "practitioner": {
          "reference": "urn:uuid:d61449a0-c5db-4729-a264-579d073274bd"
        }
      }
    },
    {
      "fullUrl": "urn:uuid:d61449a0-c5db-4729-a264-579d073274bd",
      "resource": {
        "resourceType": "Practitioner",
        "id": "d61449a0-c5db-4729-a264-579d073274bd",
        "meta": {
          "profile": [
            "http://hl7.eu/fhir/base/StructureDefinition/practitioner-eu"
          ]
        },
        "identifier": [
          {
            "assigner": {
              "display": "HL7 Europe"
            },
            "system": "urn:oid:2.16.840.1.113883.2.51.999",
            "value": "d5ca8243-6800-405a-bd06-809130fb4160"
          }
        ],
        "name": [
          {
            "prefix": [
              "dr"
            ],
            "given": [
              "Ex"
            ],
            "family": "Ample"
          }
        ],
        "address": [
          {
            "line": [
              "Laboratoire Central Européenne",
              "Boulevard du Jardin Botanique 32"
            ],
            "postalCode": "1000",
            "city": "Brussels",
            "country": "Belgium"
          }
        ],
        "text": {
          "status": "generated",
          "div": "<div xmlns=\"http://www.w3.org/1999/xhtml\">Laboratory: Laboratoire Central Européenne, 1000 Brussels, Belgium</div>"
        }
      }
    }
  ],
  "type": "document",
  "timestamp": "2025-05-05T09:49:06Z"
}
