{
  "resourceType": "Bundle",
  "id": "6f3133fd-197a-405b-b02a-94528f1abfdd",
  "meta": {
    "profile": [
      "http://hl7.eu/fhir/laboratory/StructureDefinition/Bundle-eu-lab"
    ]
  },
  "identifier": {
    "assigner": {
      "display": "HL7 Europe"
    },
    "system": "urn:oid:2.16.840.1.113883.2.51.999",
    "value": "af603c3e-709e-439d-8d22-fd1550e65900"
  },
  "entry": [
    {
      "fullUrl": "urn:uuid:d6e1dac4-2c4e-4ac0-93d2-c92ea614a1ad",
      "resource": {
        "resourceType": "Composition",
        "id": "d6e1dac4-2c4e-4ac0-93d2-c92ea614a1ad",
        "meta": {
          "profile": [
            "http://hl7.eu/fhir/laboratory/StructureDefinition/Composition-eu-lab"
          ]
        },
        "identifier": {
          "assigner": {
            "display": "HL7 Europe"
          },
          "system": "urn:oid:2.16.840.1.113883.2.51.999",
          "value": "bbde27a7-533e-47c7-a2b7-4da1c80301ae"
        },
        "author": [
          {
            "reference": "urn:uuid:8e24d412-eb43-4405-835e-f6d07b778a44"
          }
        ],
        "category": [
          {
            "coding": [
              {
                "code": "26436-6",
                "system": "http://loinc.org",
                "display": "Laboratory studies (set)"
              }
            ]
          }
        ],
        "type": {
          "coding": [
            {
              "code": "11502-2",
              "system": "http://loinc.org",
              "display": "Laboratory report"
            }
          ],
          "text": "Laboratory Report"
        },
        "section": [
          {
            "code": {
              "coding": [
                {
                  "code": "26436-6",
                  "system": "http://loinc.org",
                  "display": "Laboratory studies (set)"
                }
              ],
              "text": "Laboratory studies"
            },
            "section": [
              {
                "code": {
                  "coding": [
                    {
                      "code": "$18719-5",
                      "system": "http://loinc.org",
                      "display": "Chemistry studies (set)"
                    }
                  ],
                  "text": "Chemistry"
                },
                "entry": [
                  {
                    "reference": "urn:uuid:18bbd6e4-728e-447c-8d5f-4b9657f1a841"
                  },
                  {
                    "reference": "urn:uuid:26336233-03f2-45d3-a8e2-482a6a32c5fd"
                  },
                  {
                    "reference": "urn:uuid:f1c9b73a-b525-4c1f-8b5b-3b43e45eca1d"
                  },
                  {
                    "reference": "urn:uuid:32e5e515-708f-4c75-ab5f-8de00f9b73ce"
                  },
                  {
                    "reference": "urn:uuid:b75a1eba-1aa1-49c9-baa9-ba6d9c8e60e0"
                  },
                  {
                    "reference": "urn:uuid:5d8af116-7d97-4401-8c35-bbb3955aba0e"
                  },
                  {
                    "reference": "urn:uuid:eb9621d5-2892-4d29-aac5-da078f5b0b09"
                  },
                  {
                    "reference": "urn:uuid:1dd96db8-099c-452b-9a03-609c0807518b"
                  },
                  {
                    "reference": "urn:uuid:3595de07-5105-4ae6-a72b-9ebb66b295c7"
                  },
                  {
                    "reference": "urn:uuid:10a2a158-c224-4401-958c-27c3549b9bca"
                  },
                  {
                    "reference": "urn:uuid:4d1c6bc5-5479-4553-987c-91c7e095a9dd"
                  },
                  {
                    "reference": "urn:uuid:0541ca75-e673-44f5-a530-e3315737ff53"
                  },
                  {
                    "reference": "urn:uuid:0d9ccd55-78c1-4d35-851f-fdbaf3b9b389"
                  },
                  {
                    "reference": "urn:uuid:cc875fbc-9158-4082-ba0b-e47251f1ac0d"
                  },
                  {
                    "reference": "urn:uuid:10336d80-f377-43f9-8a24-8630edcfc420"
                  },
                  {
                    "reference": "urn:uuid:bb284561-71c8-40c2-b3f8-a144bfc4fca4"
                  },
                  {
                    "reference": "urn:uuid:b8351465-2e85-418e-a3b5-84b6eccb9f4c"
                  },
                  {
                    "reference": "urn:uuid:2525b17f-da68-42a7-8e7d-1dc9ad4bbd40"
                  },
                  {
                    "reference": "urn:uuid:6b2e3967-a5da-41e8-bee2-bc301f3dbc3d"
                  },
                  {
                    "reference": "urn:uuid:685cd6c9-f991-4b15-bf31-211485db0790"
                  },
                  {
                    "reference": "urn:uuid:360a7c20-9972-4f09-a4a3-64562d368449"
                  },
                  {
                    "reference": "urn:uuid:bdb8d001-6c9e-4a7f-985a-b1570ae80804"
                  },
                  {
                    "reference": "urn:uuid:f30543b2-2f5e-442a-b887-3abc7443b93d"
                  },
                  {
                    "reference": "urn:uuid:d5aff003-8f33-429e-8103-64e113d677bb"
                  },
                  {
                    "reference": "urn:uuid:bb14c877-7b5e-4632-b2d3-f19b1d00b61a"
                  },
                  {
                    "reference": "urn:uuid:91179a90-b1d9-43b1-a782-cc22b2f8c026"
                  },
                  {
                    "reference": "urn:uuid:bf33b5ff-83df-471a-a5a9-96ac8dbf5686"
                  },
                  {
                    "reference": "urn:uuid:e25a0a99-ef24-4a23-be9d-164550125c74"
                  },
                  {
                    "reference": "urn:uuid:130c39c4-ce5d-42dd-9f9c-1ecd0d77119e"
                  },
                  {
                    "reference": "urn:uuid:d7f91d75-0bee-42f3-9823-a541807171d6"
                  },
                  {
                    "reference": "urn:uuid:b992918c-9ab3-44ec-8e95-b15682ba3439"
                  },
                  {
                    "reference": "urn:uuid:275880e8-2da3-43b3-85ae-4bcf54f71201"
                  },
                  {
                    "reference": "urn:uuid:8432738a-986a-4502-9627-1f7010d04b0f"
                  }
                ],
                "text": {
                  "status": "generated",
                  "div": "<div xmlns=\"http://www.w3.org/1999/xhtml\"><h3>Chemistry</h3><table class=\"hl7__eu__lab__report\"><thead><tr><th>Test</th><th>22-MAR-2022</th><th>Reference&#xA0;Range</th><th>Unit</th></tr></thead><tbody><tr><td>Hemoglobin A1c/Hemoglobin.total in Blood</td><td>5.4</td><td>4.5 - 6.4</td><td>%</td></tr><tr><td>Cholesterol [Mass/volume] in Serum or Plasma</td><td><strong>232.9 H</strong></td><td>100 - 200</td><td>mg/dL</td></tr><tr><td>Triglyceride [Mass/volume] in Serum or Plasma</td><td><strong>315.4 H</strong></td><td>45 - 175</td><td>mg/dL</td></tr><tr><td>Cholesterol in LDL [Mass/volume] in Serum or Plasma by Direct assay</td><td>160.2</td><td>0 - 190</td><td>mg/dL</td></tr><tr><td>Cholesterol in HDL [Mass/volume] in Serum or Plasma</td><td>48.5</td><td>40 - 100</td><td>mg/dL</td></tr><tr><td>Glucose [Mass/volume] in Blood</td><td>93.2</td><td>70 - 140</td><td>mg/dL</td></tr><tr><td>Urea nitrogen [Mass/volume] in Blood</td><td>11.2</td><td>7 - 25</td><td>mg/dL</td></tr><tr><td>Creatinine [Mass/volume] in Blood</td><td><strong>2.8 H</strong></td><td>0.9 - 1.3</td><td>mg/dL</td></tr><tr><td>Calcium [Mass/volume] in Blood</td><td>9.9</td><td>8.5 - 10.5</td><td>mg/dL</td></tr><tr><td>Sodium [Moles/volume] in Blood</td><td>141.2</td><td>135 - 145</td><td>mmol/L</td></tr><tr><td>Potassium [Moles/volume] in Blood</td><td>4.2</td><td>3.5 - 5.1</td><td>mmol/L</td></tr><tr><td>Chloride [Moles/volume] in Blood</td><td>101.2</td><td>98 - 110</td><td>mmol/L</td></tr><tr><td>Carbon dioxide, total [Moles/volume] in Blood</td><td><strong>21.1 L</strong></td><td>22 - 29</td><td>mmol/L</td></tr><tr><td>Protein [Mass/volume] in Serum or Plasma</td><td>6.4</td><td>6 - 8.3</td><td>g/dL</td></tr><tr><td>Albumin [Mass/volume] in Serum or Plasma</td><td>4.5</td><td>3.2 - 5.5</td><td>g/dL</td></tr><tr><td>Globulin [Mass/volume] in Serum by calculation</td><td>2.9</td><td>1.5 - 3.5</td><td>g/L</td></tr><tr><td>Bilirubin.total [Mass/volume] in Serum or Plasma</td><td>0.6</td><td>0.3 - 1.2</td><td>mg/dL</td></tr><tr><td>Alkaline phosphatase [Enzymatic activity/volume] in Serum or Plasma</td><td>127.8</td><td>39 - 147</td><td>U/L</td></tr><tr><td>Alanine aminotransferase [Enzymatic activity/volume] in Serum or Plasma</td><td>43.8</td><td>7 - 60</td><td>U/L</td></tr><tr><td>Aspartate aminotransferase [Enzymatic activity/volume] in Serum or Plasma</td><td>35.5</td><td>10 - 40</td><td>U/L</td></tr><tr><td>Glucose [Mass/volume] in Blood</td><td>93.2</td><td>70 - 140</td><td>mg/dL</td></tr><tr><td>Urea nitrogen [Mass/volume] in Blood</td><td>11.2</td><td>7 - 25</td><td>mg/dL</td></tr><tr><td>Creatinine [Mass/volume] in Blood</td><td><strong>0.6 L</strong></td><td>0.9 - 1.3</td><td>mg/dL</td></tr><tr><td>Calcium [Mass/volume] in Blood</td><td>9.9</td><td>8.5 - 10.5</td><td>mg/dL</td></tr><tr><td>Sodium [Moles/volume] in Blood</td><td>141.2</td><td>135 - 145</td><td>mmol/L</td></tr><tr><td>Potassium [Moles/volume] in Blood</td><td>4.2</td><td>3.5 - 5.1</td><td>mmol/L</td></tr><tr><td>Chloride [Moles/volume] in Blood</td><td>101.2</td><td>98 - 110</td><td>mmol/L</td></tr><tr><td>Carbon dioxide, total [Moles/volume] in Blood</td><td><strong>21.1 L</strong></td><td>22 - 29</td><td>mmol/L</td></tr><tr><td>Cholesterol [Mass/volume] in Serum or Plasma</td><td><strong>254.8 H</strong></td><td>100 - 200</td><td>mg/dL</td></tr><tr><td>Triglyceride [Mass/volume] in Serum or Plasma</td><td>130.3</td><td>45 - 175</td><td>mg/dL</td></tr><tr><td>Cholesterol in LDL [Mass/volume] in Serum or Plasma by Direct assay</td><td>182.5</td><td>0 - 190</td><td>mg/dL</td></tr><tr><td>Cholesterol in HDL [Mass/volume] in Serum or Plasma</td><td>46.3</td><td>40 - 100</td><td>mg/dL</td></tr><tr><td>Microalbumin/Creatinine [Mass Ratio] in Urine</td><td>10.3</td><td>0 - 30</td><td>mg/g</td></tr></tbody></table></div>"
                },
                "title": "Chemistry"
              }
            ],
            "title": "Laboratory Report"
          },
          {
            "text": {
              "status": "generated",
              "div": "<div xmlns=\"http://www.w3.org/1999/xhtml\"><h3>Annotation</h3><table class=\"hl7__eu__lab__report\"><tr><th>Conclusion and Recommendations based on this report and previous findings known to us</th></tr><tr><td>The patient shows elevated total cholesterol and triglycerides, indicating dyslipidemia, and mildly increased LDL. Creatinine results are inconsistent (one high, one low), but if elevated, may suggest impaired renal function. Total CO₂ is slightly low, possibly reflecting mild metabolic acidosis. Glucose and HbA1c are within normal limits. Liver function, electrolytes, and protein levels are unremarkable. Recommend clinical correlation for renal function and cardiovascular risk assessment, and consider repeat creatinine testing to clarify renal status.</td></tr></table></div>"
            },
            "code": {
              "coding": [
                {
                  "system": "http://loinc.org",
                  "code": "48767-8",
                  "display": "Annotation comment"
                }
              ]
            },
            "title": "Annotation comment"
          }
        ],
        "status": "final",
        "subject": {
          "reference": "urn:uuid:0f56ae0a-94b8-4d3d-9846-02dc7f39c23f",
          "display": "Urbano Cantón"
        },
        "date": "2022-03-22T18:07:13Z",
        "title": "Laboratory Report",
        "confidentiality": "N"
      }
    },
    {
      "fullUrl": "urn:uuid:4de71d2a-045b-4b29-b185-ecdcef0e2fef",
      "resource": {
        "resourceType": "DiagnosticReport",
        "id": "4de71d2a-045b-4b29-b185-ecdcef0e2fef",
        "meta": {
          "profile": [
            "http://hl7.eu/fhir/laboratory/StructureDefinition/DiagnosticReport-eu-lab"
          ]
        },
        "identifier": [
          {
            "assigner": {
              "display": "HL7 Europe"
            },
            "system": "urn:oid:2.16.840.1.113883.2.51.999",
            "value": "ddce4654-9ab4-4b63-8684-5e29936936dd"
          }
        ],
        "extension": [
          {
            "url": "http://hl7.org/fhir/5.0/StructureDefinition/extension-DiagnosticReport.composition",
            "valueReference": {
              "reference": "urn:uuid:bbde27a7-533e-47c7-a2b7-4da1c80301ae"
            }
          }
        ],
        "category": [
          {
            "coding": [
              {
                "code": "26436-6",
                "system": "http://loinc.org",
                "display": "Laboratory studies (set)"
              }
            ]
          }
        ],
        "specimen": [
          {
            "reference": "urn:uuid:fab6ad9b-4fbd-441a-9141-cb4c65c251be"
          },
          {
            "reference": "urn:uuid:8554023f-2c7f-421d-a765-0ef0d7f02cca"
          },
          {
            "reference": "urn:uuid:6e35abc1-8089-41e5-afcd-53bf91a454b8"
          },
          {
            "reference": "urn:uuid:132e9607-cde0-4e2d-93d0-1a8c425f4506"
          }
        ],
        "result": [
          {
            "reference": "urn:uuid:18bbd6e4-728e-447c-8d5f-4b9657f1a841"
          },
          {
            "reference": "urn:uuid:26336233-03f2-45d3-a8e2-482a6a32c5fd"
          },
          {
            "reference": "urn:uuid:f1c9b73a-b525-4c1f-8b5b-3b43e45eca1d"
          },
          {
            "reference": "urn:uuid:32e5e515-708f-4c75-ab5f-8de00f9b73ce"
          },
          {
            "reference": "urn:uuid:b75a1eba-1aa1-49c9-baa9-ba6d9c8e60e0"
          },
          {
            "reference": "urn:uuid:5d8af116-7d97-4401-8c35-bbb3955aba0e"
          },
          {
            "reference": "urn:uuid:eb9621d5-2892-4d29-aac5-da078f5b0b09"
          },
          {
            "reference": "urn:uuid:1dd96db8-099c-452b-9a03-609c0807518b"
          },
          {
            "reference": "urn:uuid:3595de07-5105-4ae6-a72b-9ebb66b295c7"
          },
          {
            "reference": "urn:uuid:10a2a158-c224-4401-958c-27c3549b9bca"
          },
          {
            "reference": "urn:uuid:4d1c6bc5-5479-4553-987c-91c7e095a9dd"
          },
          {
            "reference": "urn:uuid:0541ca75-e673-44f5-a530-e3315737ff53"
          },
          {
            "reference": "urn:uuid:0d9ccd55-78c1-4d35-851f-fdbaf3b9b389"
          },
          {
            "reference": "urn:uuid:cc875fbc-9158-4082-ba0b-e47251f1ac0d"
          },
          {
            "reference": "urn:uuid:10336d80-f377-43f9-8a24-8630edcfc420"
          },
          {
            "reference": "urn:uuid:bb284561-71c8-40c2-b3f8-a144bfc4fca4"
          },
          {
            "reference": "urn:uuid:b8351465-2e85-418e-a3b5-84b6eccb9f4c"
          },
          {
            "reference": "urn:uuid:2525b17f-da68-42a7-8e7d-1dc9ad4bbd40"
          },
          {
            "reference": "urn:uuid:6b2e3967-a5da-41e8-bee2-bc301f3dbc3d"
          },
          {
            "reference": "urn:uuid:685cd6c9-f991-4b15-bf31-211485db0790"
          },
          {
            "reference": "urn:uuid:360a7c20-9972-4f09-a4a3-64562d368449"
          },
          {
            "reference": "urn:uuid:bdb8d001-6c9e-4a7f-985a-b1570ae80804"
          },
          {
            "reference": "urn:uuid:f30543b2-2f5e-442a-b887-3abc7443b93d"
          },
          {
            "reference": "urn:uuid:d5aff003-8f33-429e-8103-64e113d677bb"
          },
          {
            "reference": "urn:uuid:bb14c877-7b5e-4632-b2d3-f19b1d00b61a"
          },
          {
            "reference": "urn:uuid:91179a90-b1d9-43b1-a782-cc22b2f8c026"
          },
          {
            "reference": "urn:uuid:bf33b5ff-83df-471a-a5a9-96ac8dbf5686"
          },
          {
            "reference": "urn:uuid:e25a0a99-ef24-4a23-be9d-164550125c74"
          },
          {
            "reference": "urn:uuid:130c39c4-ce5d-42dd-9f9c-1ecd0d77119e"
          },
          {
            "reference": "urn:uuid:d7f91d75-0bee-42f3-9823-a541807171d6"
          },
          {
            "reference": "urn:uuid:b992918c-9ab3-44ec-8e95-b15682ba3439"
          },
          {
            "reference": "urn:uuid:275880e8-2da3-43b3-85ae-4bcf54f71201"
          },
          {
            "reference": "urn:uuid:8432738a-986a-4502-9627-1f7010d04b0f"
          }
        ],
        "status": "registered",
        "code": {
          "coding": [
            {
              "code": "11502-2",
              "system": "http://loinc.org",
              "display": "Laboratory report"
            }
          ]
        },
        "subject": {
          "reference": "urn:uuid:0f56ae0a-94b8-4d3d-9846-02dc7f39c23f",
          "display": "Urbano Cantón"
        }
      }
    },
    {
      "fullUrl": "urn:uuid:0f56ae0a-94b8-4d3d-9846-02dc7f39c23f",
      "resource": {
        "resourceType": "Patient",
        "id": "0f56ae0a-94b8-4d3d-9846-02dc7f39c23f",
        "meta": {
          "security": [
            {
              "system": "http://terminology.hl7.org/CodeSystem/v3-ActReason",
              "code": "HTEST"
            },
            {
              "system": "http://terminology.hl7.org/CodeSystem/v3-ActReason",
              "code": "TRAIN"
            }
          ],
          "tag": [
            {
              "system": "https://synderai.net/fhir/CodeSystem/tags",
              "code": "synthetic",
              "display": "SYNDERAI Synthetic data"
            }
          ],
          "profile": [
            "http://hl7.eu/fhir/base/StructureDefinition/patient-eu-core"
          ]
        },
        "identifier": [
          {
            "type": {
              "coding": [
                {
                  "code": "PT",
                  "system": "http://terminology.hl7.org/CodeSystem/v2-0203"
                }
              ]
            },
            "system": "http://ec.europa.eu/identifier/eci",
            "value": "8854-480268-4"
          },
          {
            "type": {
              "coding": [
                {
                  "code": "MR",
                  "system": "http://terminology.hl7.org/CodeSystem/v2-0203"
                }
              ]
            },
            "system": "http://local.setting.eu/identifier",
            "value": "91128f5c-658f-cfab-4640-b680ec2e24a1"
          }
        ],
        "name": [
          {
            "family": "Cantón"
          },
          {
            "given": [
              "Urbano"
            ]
          },
          {
            "text": "Urbano Cantón"
          }
        ],
        "address": [
          {
            "line": [
              "Vial Vito Trujillo 29 Piso 2 "
            ],
            "use": "home",
            "type": "physical",
            "postalCode": "38001",
            "city": "Santa Cruz de Tenerife",
            "country": "Spain"
          }
        ],
        "telecom": [
          {
            "system": "phone",
            "value": "+34 740 588 857"
          }
        ],
        "extension": [
          {
            "url": "http://hl7.org/fhir/StructureDefinition/patient-nationality",
            "valueCodeableConcept": {
              "coding": [
                {
                  "code": "ES",
                  "system": "http://hl7.org/fhir/ValueSet/country"
                }
              ]
            }
          }
        ],
        "text": {
          "status": "generated",
          "div": "<div xmlns=\"http://www.w3.org/1999/xhtml\"><table class=\"hl7__ips\"><tr><td>Urbano Cantón</td><td>male</td><td>01-Apr-1945</td></tr></table></div>"
        },
        "gender": "male",
        "birthDate": "1945-04-01"
      }
    },
    {
      "fullUrl": "urn:uuid:83a012de-8d0d-4649-b72c-9f86f83cca09",
      "resource": {
        "resourceType": "ServiceRequest",
        "id": "83a012de-8d0d-4649-b72c-9f86f83cca09",
        "meta": {
          "profile": [
            "http://hl7.eu/fhir/laboratory/StructureDefinition/ServiceRequest-eu-lab"
          ]
        },
        "identifier": [
          {
            "system": "http://example.org",
            "value": "e7c92afb-e594-487a-91e6-bf1795d14dac"
          }
        ],
        "specimen": [
          {
            "reference": "urn:uuid:fab6ad9b-4fbd-441a-9141-cb4c65c251be"
          },
          {
            "reference": "urn:uuid:8554023f-2c7f-421d-a765-0ef0d7f02cca"
          },
          {
            "reference": "urn:uuid:6e35abc1-8089-41e5-afcd-53bf91a454b8"
          },
          {
            "reference": "urn:uuid:132e9607-cde0-4e2d-93d0-1a8c425f4506"
          }
        ],
        "reasonCode": [
          {
            "coding": [
              {
                "code": "55822004",
                "system": "http://snomed.info/sct",
                "display": "Hyperlipidemia"
              }
            ]
          },
          {
            "coding": [
              {
                "code": "401314000",
                "system": "http://snomed.info/sct",
                "display": "Acute non-ST segment elevation myocardial infarction"
              }
            ]
          },
          {
            "coding": [
              {
                "code": "6525002",
                "system": "http://snomed.info/sct",
                "display": "Dependent drug abuse"
              }
            ]
          },
          {
            "coding": [
              {
                "code": "124171000119105",
                "system": "http://snomed.info/sct",
                "display": "Chronic intractable migraine without aura"
              }
            ]
          },
          {
            "coding": [
              {
                "code": "414545008",
                "system": "http://snomed.info/sct",
                "display": "Ischemic heart disease"
              }
            ]
          },
          {
            "coding": [
              {
                "code": "368581000119106",
                "system": "http://snomed.info/sct",
                "display": "Neuropathy due to type 2 diabetes mellitus"
              }
            ]
          },
          {
            "coding": [
              {
                "code": "80394007",
                "system": "http://snomed.info/sct",
                "display": "Hyperglycemia"
              }
            ]
          },
          {
            "coding": [
              {
                "code": "237602007",
                "system": "http://snomed.info/sct",
                "display": "Metabolic syndrome X"
              }
            ]
          },
          {
            "coding": [
              {
                "code": "302870006",
                "system": "http://snomed.info/sct",
                "display": "Hypertriglyceridemia"
              }
            ]
          },
          {
            "coding": [
              {
                "code": "44054006",
                "system": "http://snomed.info/sct",
                "display": "Type 2 diabetes mellitus"
              }
            ]
          },
          {
            "coding": [
              {
                "code": "59621000",
                "system": "http://snomed.info/sct",
                "display": "Essential hypertension"
              }
            ]
          },
          {
            "coding": [
              {
                "code": "271737000",
                "system": "http://snomed.info/sct",
                "display": "Anemia"
              }
            ]
          },
          {
            "coding": [
              {
                "code": "40055000",
                "system": "http://snomed.info/sct",
                "display": "Chronic sinusitis"
              }
            ]
          }
        ],
        "status": "active",
        "intent": "order",
        "code": {
          "coding": [
            {
              "code": "108252007",
              "system": "http://snomed.info/sct",
              "display": "Laboratory procedure"
            }
          ]
        },
        "subject": {
          "reference": "urn:uuid:0f56ae0a-94b8-4d3d-9846-02dc7f39c23f",
          "display": "Urbano Cantón"
        },
        "requester": {
          "reference": "urn:uuid:4591d2f3-30c5-4473-ae98-20aff3ac54dd"
        }
      }
    },
    {
      "fullUrl": "urn:uuid:4591d2f3-30c5-4473-ae98-20aff3ac54dd",
      "resource": {
        "resourceType": "PractitionerRole",
        "id": "4591d2f3-30c5-4473-ae98-20aff3ac54dd",
        "meta": {
          "profile": [
            "http://hl7.eu/fhir/base/StructureDefinition/practitionerRole-eu"
          ]
        },
        "text": {
          "status": "generated",
          "div": "<div xmlns=\"http://www.w3.org/1999/xhtml\">Provider Role Id: 4591d2f3-30c5-4473-ae98-20aff3ac54dd</div>"
        },
        "organization": {
          "reference": "urn:uuid:f3ff2d25-7f1b-4ad6-af23-fb3ea18f5f26"
        }
      }
    },
    {
      "fullUrl": "urn:uuid:f3ff2d25-7f1b-4ad6-af23-fb3ea18f5f26",
      "resource": {
        "resourceType": "Organization",
        "id": "f3ff2d25-7f1b-4ad6-af23-fb3ea18f5f26",
        "meta": {
          "profile": [
            "http://hl7.eu/fhir/base/StructureDefinition/organization-eu"
          ]
        },
        "identifier": [
          {
            "assigner": {
              "display": "HL7 Europe"
            },
            "system": "urn:oid:2.16.840.1.113883.2.51.999",
            "value": "e6c97879-5d68-44a3-a1d3-9a21ccb41986"
          }
        ],
        "address": [
          {
            "country": "Spain"
          }
        ],
        "text": {
          "status": "generated",
          "div": "<div xmlns=\"http://www.w3.org/1999/xhtml\">Provider Organization: Centro de Salud Ruiz de Padrón</div>"
        },
        "name": "Centro de Salud Ruiz de Padrón"
      }
    },
    {
      "fullUrl": "urn:uuid:fab6ad9b-4fbd-441a-9141-cb4c65c251be",
      "resource": {
        "resourceType": "Specimen",
        "id": "fab6ad9b-4fbd-441a-9141-cb4c65c251be",
        "meta": {
          "profile": [
            "http://hl7.eu/fhir/laboratory/StructureDefinition/Specimen-eu-lab"
          ]
        },
        "collection": {
          "collectedDateTime": "2022-03-22"
        },
        "text": {
          "status": "generated",
          "div": "<div xmlns=\"http://www.w3.org/1999/xhtml\"><table class=\"hl7__eu__lab__report\"><tr><th>Specimen</th><th>Collection Date</th></tr><tr><td>Whole blood specimen (specimen)</td><td><span class=\"nb\">22-Mar-2022</span></td></tr></table></div>"
        },
        "type": {
          "coding": [
            {
              "code": "258580003",
              "system": "http://snomed.info/sct",
              "display": "Whole blood specimen (specimen)"
            }
          ]
        }
      }
    },
    {
      "fullUrl": "urn:uuid:8554023f-2c7f-421d-a765-0ef0d7f02cca",
      "resource": {
        "resourceType": "Specimen",
        "id": "8554023f-2c7f-421d-a765-0ef0d7f02cca",
        "meta": {
          "profile": [
            "http://hl7.eu/fhir/laboratory/StructureDefinition/Specimen-eu-lab"
          ]
        },
        "collection": {
          "collectedDateTime": "2022-03-22"
        },
        "text": {
          "status": "generated",
          "div": "<div xmlns=\"http://www.w3.org/1999/xhtml\"><table class=\"hl7__eu__lab__report\"><tr><th>Specimen</th><th>Collection Date</th></tr><tr><td>Acellular blood (serum or plasma) specimen</td><td><span class=\"nb\">22-Mar-2022</span></td></tr></table></div>"
        },
        "type": {
          "coding": [
            {
              "code": "122592007",
              "system": "http://snomed.info/sct",
              "display": "Acellular blood (serum or plasma) specimen"
            }
          ]
        }
      }
    },
    {
      "fullUrl": "urn:uuid:6e35abc1-8089-41e5-afcd-53bf91a454b8",
      "resource": {
        "resourceType": "Specimen",
        "id": "6e35abc1-8089-41e5-afcd-53bf91a454b8",
        "meta": {
          "profile": [
            "http://hl7.eu/fhir/laboratory/StructureDefinition/Specimen-eu-lab"
          ]
        },
        "collection": {
          "collectedDateTime": "2022-03-22"
        },
        "text": {
          "status": "generated",
          "div": "<div xmlns=\"http://www.w3.org/1999/xhtml\"><table class=\"hl7__eu__lab__report\"><tr><th>Specimen</th><th>Collection Date</th></tr><tr><td>Serum specimen</td><td><span class=\"nb\">22-Mar-2022</span></td></tr></table></div>"
        },
        "type": {
          "coding": [
            {
              "code": "119364003",
              "system": "http://snomed.info/sct",
              "display": "Serum specimen"
            }
          ]
        }
      }
    },
    {
      "fullUrl": "urn:uuid:132e9607-cde0-4e2d-93d0-1a8c425f4506",
      "resource": {
        "resourceType": "Specimen",
        "id": "132e9607-cde0-4e2d-93d0-1a8c425f4506",
        "meta": {
          "profile": [
            "http://hl7.eu/fhir/laboratory/StructureDefinition/Specimen-eu-lab"
          ]
        },
        "collection": {
          "collectedDateTime": "2022-03-22"
        },
        "text": {
          "status": "generated",
          "div": "<div xmlns=\"http://www.w3.org/1999/xhtml\"><table class=\"hl7__eu__lab__report\"><tr><th>Specimen</th><th>Collection Date</th></tr><tr><td>Urine specimen</td><td><span class=\"nb\">22-Mar-2022</span></td></tr></table></div>"
        },
        "type": {
          "coding": [
            {
              "code": "122575003",
              "system": "http://snomed.info/sct",
              "display": "Urine specimen"
            }
          ]
        }
      }
    },
    {
      "fullUrl": "urn:uuid:18bbd6e4-728e-447c-8d5f-4b9657f1a841",
      "resource": {
        "resourceType": "Observation",
        "id": "18bbd6e4-728e-447c-8d5f-4b9657f1a841",
        "meta": {
          "profile": [
            "http://hl7.eu/fhir/laboratory/StructureDefinition/Observation-resultslab-eu-lab"
          ]
        },
        "performer": [
          {
            "display": "The Central European Lab"
          }
        ],
        "category": [
          {
            "coding": [
              {
                "system": "http://terminology.hl7.org/CodeSystem/observation-category",
                "code": "laboratory"
              }
            ]
          }
        ],
        "code": {
          "coding": [
            {
              "code": "4548-4",
              "system": "http://loinc.org",
              "display": "Hemoglobin A1c/Hemoglobin.total in Blood"
            }
          ],
          "text": "Hemoglobin A1c/Hemoglobin.total in Blood"
        },
        "valueQuantity": {
          "system": "http://unitsofmeasure.org",
          "value": 5.4,
          "unit": "%",
          "code": "%"
        },
        "referenceRange": [
          {
            "low": {
              "value": 4.5,
              "code": "%",
              "system": "http://unitsofmeasure.org"
            }
          },
          {
            "high": {
              "value": 6.4,
              "code": "%",
              "system": "http://unitsofmeasure.org"
            }
          }
        ],
        "text": {
          "status": "generated",
          "div": "<div xmlns=\"http://www.w3.org/1999/xhtml\"><table class=\"hl7__eu__lab__report\"><tr><th>Test</th><th>22-Mar-2022</th><th>Reference&#xA0;Range</th><th>Unit</th></tr><tr><td>Hemoglobin A1c/Hemoglobin.total in Blood</td><td>5.4</td><td>4.5 - 6.4</td><td></td><td>%</td></tr></table></div>"
        },
        "status": "final",
        "subject": {
          "reference": "urn:uuid:0f56ae0a-94b8-4d3d-9846-02dc7f39c23f",
          "display": "Urbano Cantón"
        },
        "effectiveDateTime": "2022-03-22T17:07:13Z",
        "specimen": {
          "reference": "urn:uuid:fab6ad9b-4fbd-441a-9141-cb4c65c251be"
        }
      }
    },
    {
      "fullUrl": "urn:uuid:26336233-03f2-45d3-a8e2-482a6a32c5fd",
      "resource": {
        "resourceType": "Observation",
        "id": "26336233-03f2-45d3-a8e2-482a6a32c5fd",
        "meta": {
          "profile": [
            "http://hl7.eu/fhir/laboratory/StructureDefinition/Observation-resultslab-eu-lab"
          ]
        },
        "performer": [
          {
            "display": "The Central European Lab"
          }
        ],
        "category": [
          {
            "coding": [
              {
                "system": "http://terminology.hl7.org/CodeSystem/observation-category",
                "code": "laboratory"
              }
            ]
          }
        ],
        "code": {
          "coding": [
            {
              "code": "2093-3",
              "system": "http://loinc.org",
              "display": "Cholesterol [Mass/volume] in Serum or Plasma"
            }
          ],
          "text": "Cholesterol [Mass/volume] in Serum or Plasma"
        },
        "valueQuantity": {
          "system": "http://unitsofmeasure.org",
          "value": 232.9,
          "unit": "mg/dL",
          "code": "mg/dL"
        },
        "referenceRange": [
          {
            "low": {
              "value": 100,
              "code": "mg/dL",
              "system": "http://unitsofmeasure.org"
            }
          },
          {
            "high": {
              "value": 200,
              "code": "mg/dL",
              "system": "http://unitsofmeasure.org"
            }
          }
        ],
        "interpretation": [
          {
            "coding": [
              {
                "code": "H",
                "system": "http://terminology.hl7.org/CodeSystem/v3-ObservationInterpretation",
                "display": "High"
              }
            ]
          }
        ],
        "text": {
          "status": "generated",
          "div": "<div xmlns=\"http://www.w3.org/1999/xhtml\"><table class=\"hl7__eu__lab__report\"><tr><th>Test</th><th>22-Mar-2022</th><th>Reference&#xA0;Range</th><th>Unit</th></tr><tr><td>Cholesterol [Mass/volume] in Serum or Plasma</td><td>232.9</td><td>100 - 200</td><td>H</td><td>mg/dL</td></tr></table></div>"
        },
        "status": "final",
        "subject": {
          "reference": "urn:uuid:0f56ae0a-94b8-4d3d-9846-02dc7f39c23f",
          "display": "Urbano Cantón"
        },
        "effectiveDateTime": "2022-03-22T17:07:13Z",
        "specimen": {
          "reference": "urn:uuid:8554023f-2c7f-421d-a765-0ef0d7f02cca"
        }
      }
    },
    {
      "fullUrl": "urn:uuid:f1c9b73a-b525-4c1f-8b5b-3b43e45eca1d",
      "resource": {
        "resourceType": "Observation",
        "id": "f1c9b73a-b525-4c1f-8b5b-3b43e45eca1d",
        "meta": {
          "profile": [
            "http://hl7.eu/fhir/laboratory/StructureDefinition/Observation-resultslab-eu-lab"
          ]
        },
        "performer": [
          {
            "display": "The Central European Lab"
          }
        ],
        "category": [
          {
            "coding": [
              {
                "system": "http://terminology.hl7.org/CodeSystem/observation-category",
                "code": "laboratory"
              }
            ]
          }
        ],
        "code": {
          "coding": [
            {
              "code": "2571-8",
              "system": "http://loinc.org",
              "display": "Triglyceride [Mass/volume] in Serum or Plasma"
            }
          ],
          "text": "Triglyceride [Mass/volume] in Serum or Plasma"
        },
        "valueQuantity": {
          "system": "http://unitsofmeasure.org",
          "value": 315.4,
          "unit": "mg/dL",
          "code": "mg/dL"
        },
        "referenceRange": [
          {
            "low": {
              "value": 45,
              "code": "mg/dL",
              "system": "http://unitsofmeasure.org"
            }
          },
          {
            "high": {
              "value": 175,
              "code": "mg/dL",
              "system": "http://unitsofmeasure.org"
            }
          }
        ],
        "interpretation": [
          {
            "coding": [
              {
                "code": "H",
                "system": "http://terminology.hl7.org/CodeSystem/v3-ObservationInterpretation",
                "display": "High"
              }
            ]
          }
        ],
        "text": {
          "status": "generated",
          "div": "<div xmlns=\"http://www.w3.org/1999/xhtml\"><table class=\"hl7__eu__lab__report\"><tr><th>Test</th><th>22-Mar-2022</th><th>Reference&#xA0;Range</th><th>Unit</th></tr><tr><td>Triglyceride [Mass/volume] in Serum or Plasma</td><td>315.4</td><td>45 - 175</td><td>H</td><td>mg/dL</td></tr></table></div>"
        },
        "status": "final",
        "subject": {
          "reference": "urn:uuid:0f56ae0a-94b8-4d3d-9846-02dc7f39c23f",
          "display": "Urbano Cantón"
        },
        "effectiveDateTime": "2022-03-22T17:07:13Z",
        "specimen": {
          "reference": "urn:uuid:8554023f-2c7f-421d-a765-0ef0d7f02cca"
        }
      }
    },
    {
      "fullUrl": "urn:uuid:32e5e515-708f-4c75-ab5f-8de00f9b73ce",
      "resource": {
        "resourceType": "Observation",
        "id": "32e5e515-708f-4c75-ab5f-8de00f9b73ce",
        "meta": {
          "profile": [
            "http://hl7.eu/fhir/laboratory/StructureDefinition/Observation-resultslab-eu-lab"
          ]
        },
        "performer": [
          {
            "display": "The Central European Lab"
          }
        ],
        "category": [
          {
            "coding": [
              {
                "system": "http://terminology.hl7.org/CodeSystem/observation-category",
                "code": "laboratory"
              }
            ]
          }
        ],
        "code": {
          "coding": [
            {
              "code": "18262-6",
              "system": "http://loinc.org",
              "display": "Cholesterol in LDL [Mass/volume] in Serum or Plasma by Direct assay"
            }
          ],
          "text": "Cholesterol in LDL [Mass/volume] in Serum or Plasma by Direct assay"
        },
        "valueQuantity": {
          "system": "http://unitsofmeasure.org",
          "value": 160.2,
          "unit": "mg/dL",
          "code": "mg/dL"
        },
        "referenceRange": [
          {
            "low": {
              "value": 0,
              "code": "mg/dL",
              "system": "http://unitsofmeasure.org"
            }
          },
          {
            "high": {
              "value": 190,
              "code": "mg/dL",
              "system": "http://unitsofmeasure.org"
            }
          }
        ],
        "text": {
          "status": "generated",
          "div": "<div xmlns=\"http://www.w3.org/1999/xhtml\"><table class=\"hl7__eu__lab__report\"><tr><th>Test</th><th>22-Mar-2022</th><th>Reference&#xA0;Range</th><th>Unit</th></tr><tr><td>Cholesterol in LDL [Mass/volume] in Serum or Plasma by Direct assay</td><td>160.2</td><td>0 - 190</td><td></td><td>mg/dL</td></tr></table></div>"
        },
        "status": "final",
        "subject": {
          "reference": "urn:uuid:0f56ae0a-94b8-4d3d-9846-02dc7f39c23f",
          "display": "Urbano Cantón"
        },
        "effectiveDateTime": "2022-03-22T17:07:13Z",
        "specimen": {
          "reference": "urn:uuid:8554023f-2c7f-421d-a765-0ef0d7f02cca"
        }
      }
    },
    {
      "fullUrl": "urn:uuid:b75a1eba-1aa1-49c9-baa9-ba6d9c8e60e0",
      "resource": {
        "resourceType": "Observation",
        "id": "b75a1eba-1aa1-49c9-baa9-ba6d9c8e60e0",
        "meta": {
          "profile": [
            "http://hl7.eu/fhir/laboratory/StructureDefinition/Observation-resultslab-eu-lab"
          ]
        },
        "performer": [
          {
            "display": "The Central European Lab"
          }
        ],
        "category": [
          {
            "coding": [
              {
                "system": "http://terminology.hl7.org/CodeSystem/observation-category",
                "code": "laboratory"
              }
            ]
          }
        ],
        "code": {
          "coding": [
            {
              "code": "2085-9",
              "system": "http://loinc.org",
              "display": "Cholesterol in HDL [Mass/volume] in Serum or Plasma"
            }
          ],
          "text": "Cholesterol in HDL [Mass/volume] in Serum or Plasma"
        },
        "valueQuantity": {
          "system": "http://unitsofmeasure.org",
          "value": 48.5,
          "unit": "mg/dL",
          "code": "mg/dL"
        },
        "referenceRange": [
          {
            "low": {
              "value": 40,
              "code": "mg/dL",
              "system": "http://unitsofmeasure.org"
            }
          },
          {
            "high": {
              "value": 100,
              "code": "mg/dL",
              "system": "http://unitsofmeasure.org"
            }
          }
        ],
        "text": {
          "status": "generated",
          "div": "<div xmlns=\"http://www.w3.org/1999/xhtml\"><table class=\"hl7__eu__lab__report\"><tr><th>Test</th><th>22-Mar-2022</th><th>Reference&#xA0;Range</th><th>Unit</th></tr><tr><td>Cholesterol in HDL [Mass/volume] in Serum or Plasma</td><td>48.5</td><td>40 - 100</td><td></td><td>mg/dL</td></tr></table></div>"
        },
        "status": "final",
        "subject": {
          "reference": "urn:uuid:0f56ae0a-94b8-4d3d-9846-02dc7f39c23f",
          "display": "Urbano Cantón"
        },
        "effectiveDateTime": "2022-03-22T17:07:13Z",
        "specimen": {
          "reference": "urn:uuid:8554023f-2c7f-421d-a765-0ef0d7f02cca"
        }
      }
    },
    {
      "fullUrl": "urn:uuid:5d8af116-7d97-4401-8c35-bbb3955aba0e",
      "resource": {
        "resourceType": "Observation",
        "id": "5d8af116-7d97-4401-8c35-bbb3955aba0e",
        "meta": {
          "profile": [
            "http://hl7.eu/fhir/laboratory/StructureDefinition/Observation-resultslab-eu-lab"
          ]
        },
        "performer": [
          {
            "display": "The Central European Lab"
          }
        ],
        "category": [
          {
            "coding": [
              {
                "system": "http://terminology.hl7.org/CodeSystem/observation-category",
                "code": "laboratory"
              }
            ]
          }
        ],
        "code": {
          "coding": [
            {
              "code": "2339-0",
              "system": "http://loinc.org",
              "display": "Glucose [Mass/volume] in Blood"
            }
          ],
          "text": "Glucose [Mass/volume] in Blood"
        },
        "valueQuantity": {
          "system": "http://unitsofmeasure.org",
          "value": 93.2,
          "unit": "mg/dL",
          "code": "mg/dL"
        },
        "referenceRange": [
          {
            "low": {
              "value": 70,
              "code": "mg/dL",
              "system": "http://unitsofmeasure.org"
            }
          },
          {
            "high": {
              "value": 140,
              "code": "mg/dL",
              "system": "http://unitsofmeasure.org"
            }
          }
        ],
        "text": {
          "status": "generated",
          "div": "<div xmlns=\"http://www.w3.org/1999/xhtml\"><table class=\"hl7__eu__lab__report\"><tr><th>Test</th><th>22-Mar-2022</th><th>Reference&#xA0;Range</th><th>Unit</th></tr><tr><td>Glucose [Mass/volume] in Blood</td><td>93.2</td><td>70 - 140</td><td></td><td>mg/dL</td></tr></table></div>"
        },
        "status": "final",
        "subject": {
          "reference": "urn:uuid:0f56ae0a-94b8-4d3d-9846-02dc7f39c23f",
          "display": "Urbano Cantón"
        },
        "effectiveDateTime": "2022-03-22T17:07:13Z",
        "specimen": {
          "reference": "urn:uuid:fab6ad9b-4fbd-441a-9141-cb4c65c251be"
        }
      }
    },
    {
      "fullUrl": "urn:uuid:eb9621d5-2892-4d29-aac5-da078f5b0b09",
      "resource": {
        "resourceType": "Observation",
        "id": "eb9621d5-2892-4d29-aac5-da078f5b0b09",
        "meta": {
          "profile": [
            "http://hl7.eu/fhir/laboratory/StructureDefinition/Observation-resultslab-eu-lab"
          ]
        },
        "performer": [
          {
            "display": "The Central European Lab"
          }
        ],
        "category": [
          {
            "coding": [
              {
                "system": "http://terminology.hl7.org/CodeSystem/observation-category",
                "code": "laboratory"
              }
            ]
          }
        ],
        "code": {
          "coding": [
            {
              "code": "6299-2",
              "system": "http://loinc.org",
              "display": "Urea nitrogen [Mass/volume] in Blood"
            }
          ],
          "text": "Urea nitrogen [Mass/volume] in Blood"
        },
        "valueQuantity": {
          "system": "http://unitsofmeasure.org",
          "value": 11.2,
          "unit": "mg/dL",
          "code": "mg/dL"
        },
        "referenceRange": [
          {
            "low": {
              "value": 7,
              "code": "mg/dL",
              "system": "http://unitsofmeasure.org"
            }
          },
          {
            "high": {
              "value": 25,
              "code": "mg/dL",
              "system": "http://unitsofmeasure.org"
            }
          }
        ],
        "text": {
          "status": "generated",
          "div": "<div xmlns=\"http://www.w3.org/1999/xhtml\"><table class=\"hl7__eu__lab__report\"><tr><th>Test</th><th>22-Mar-2022</th><th>Reference&#xA0;Range</th><th>Unit</th></tr><tr><td>Urea nitrogen [Mass/volume] in Blood</td><td>11.2</td><td>7 - 25</td><td></td><td>mg/dL</td></tr></table></div>"
        },
        "status": "final",
        "subject": {
          "reference": "urn:uuid:0f56ae0a-94b8-4d3d-9846-02dc7f39c23f",
          "display": "Urbano Cantón"
        },
        "effectiveDateTime": "2022-03-22T17:07:13Z",
        "specimen": {
          "reference": "urn:uuid:fab6ad9b-4fbd-441a-9141-cb4c65c251be"
        }
      }
    },
    {
      "fullUrl": "urn:uuid:1dd96db8-099c-452b-9a03-609c0807518b",
      "resource": {
        "resourceType": "Observation",
        "id": "1dd96db8-099c-452b-9a03-609c0807518b",
        "meta": {
          "profile": [
            "http://hl7.eu/fhir/laboratory/StructureDefinition/Observation-resultslab-eu-lab"
          ]
        },
        "performer": [
          {
            "display": "The Central European Lab"
          }
        ],
        "category": [
          {
            "coding": [
              {
                "system": "http://terminology.hl7.org/CodeSystem/observation-category",
                "code": "laboratory"
              }
            ]
          }
        ],
        "code": {
          "coding": [
            {
              "code": "38483-4",
              "system": "http://loinc.org",
              "display": "Creatinine [Mass/volume] in Blood"
            }
          ],
          "text": "Creatinine [Mass/volume] in Blood"
        },
        "valueQuantity": {
          "system": "http://unitsofmeasure.org",
          "value": 2.8,
          "unit": "mg/dL",
          "code": "mg/dL"
        },
        "referenceRange": [
          {
            "low": {
              "value": 0.9,
              "code": "mg/dL",
              "system": "http://unitsofmeasure.org"
            }
          },
          {
            "high": {
              "value": 1.3,
              "code": "mg/dL",
              "system": "http://unitsofmeasure.org"
            }
          }
        ],
        "interpretation": [
          {
            "coding": [
              {
                "code": "H",
                "system": "http://terminology.hl7.org/CodeSystem/v3-ObservationInterpretation",
                "display": "High"
              }
            ]
          }
        ],
        "text": {
          "status": "generated",
          "div": "<div xmlns=\"http://www.w3.org/1999/xhtml\"><table class=\"hl7__eu__lab__report\"><tr><th>Test</th><th>22-Mar-2022</th><th>Reference&#xA0;Range</th><th>Unit</th></tr><tr><td>Creatinine [Mass/volume] in Blood</td><td>2.8</td><td>0.9 - 1.3</td><td>H</td><td>mg/dL</td></tr></table></div>"
        },
        "status": "final",
        "subject": {
          "reference": "urn:uuid:0f56ae0a-94b8-4d3d-9846-02dc7f39c23f",
          "display": "Urbano Cantón"
        },
        "effectiveDateTime": "2022-03-22T17:07:13Z",
        "specimen": {
          "reference": "urn:uuid:fab6ad9b-4fbd-441a-9141-cb4c65c251be"
        }
      }
    },
    {
      "fullUrl": "urn:uuid:3595de07-5105-4ae6-a72b-9ebb66b295c7",
      "resource": {
        "resourceType": "Observation",
        "id": "3595de07-5105-4ae6-a72b-9ebb66b295c7",
        "meta": {
          "profile": [
            "http://hl7.eu/fhir/laboratory/StructureDefinition/Observation-resultslab-eu-lab"
          ]
        },
        "performer": [
          {
            "display": "The Central European Lab"
          }
        ],
        "category": [
          {
            "coding": [
              {
                "system": "http://terminology.hl7.org/CodeSystem/observation-category",
                "code": "laboratory"
              }
            ]
          }
        ],
        "code": {
          "coding": [
            {
              "code": "49765-1",
              "system": "http://loinc.org",
              "display": "Calcium [Mass/volume] in Blood"
            }
          ],
          "text": "Calcium [Mass/volume] in Blood"
        },
        "valueQuantity": {
          "system": "http://unitsofmeasure.org",
          "value": 9.9,
          "unit": "mg/dL",
          "code": "mg/dL"
        },
        "referenceRange": [
          {
            "low": {
              "value": 8.5,
              "code": "mg/dL",
              "system": "http://unitsofmeasure.org"
            }
          },
          {
            "high": {
              "value": 10.5,
              "code": "mg/dL",
              "system": "http://unitsofmeasure.org"
            }
          }
        ],
        "text": {
          "status": "generated",
          "div": "<div xmlns=\"http://www.w3.org/1999/xhtml\"><table class=\"hl7__eu__lab__report\"><tr><th>Test</th><th>22-Mar-2022</th><th>Reference&#xA0;Range</th><th>Unit</th></tr><tr><td>Calcium [Mass/volume] in Blood</td><td>9.9</td><td>8.5 - 10.5</td><td></td><td>mg/dL</td></tr></table></div>"
        },
        "status": "final",
        "subject": {
          "reference": "urn:uuid:0f56ae0a-94b8-4d3d-9846-02dc7f39c23f",
          "display": "Urbano Cantón"
        },
        "effectiveDateTime": "2022-03-22T17:07:13Z",
        "specimen": {
          "reference": "urn:uuid:fab6ad9b-4fbd-441a-9141-cb4c65c251be"
        }
      }
    },
    {
      "fullUrl": "urn:uuid:10a2a158-c224-4401-958c-27c3549b9bca",
      "resource": {
        "resourceType": "Observation",
        "id": "10a2a158-c224-4401-958c-27c3549b9bca",
        "meta": {
          "profile": [
            "http://hl7.eu/fhir/laboratory/StructureDefinition/Observation-resultslab-eu-lab"
          ]
        },
        "performer": [
          {
            "display": "The Central European Lab"
          }
        ],
        "category": [
          {
            "coding": [
              {
                "system": "http://terminology.hl7.org/CodeSystem/observation-category",
                "code": "laboratory"
              }
            ]
          }
        ],
        "code": {
          "coding": [
            {
              "code": "2947-0",
              "system": "http://loinc.org",
              "display": "Sodium [Moles/volume] in Blood"
            }
          ],
          "text": "Sodium [Moles/volume] in Blood"
        },
        "valueQuantity": {
          "system": "http://unitsofmeasure.org",
          "value": 141.2,
          "unit": "mmol/L",
          "code": "mmol/L"
        },
        "referenceRange": [
          {
            "low": {
              "value": 135,
              "code": "mmol/L",
              "system": "http://unitsofmeasure.org"
            }
          },
          {
            "high": {
              "value": 145,
              "code": "mmol/L",
              "system": "http://unitsofmeasure.org"
            }
          }
        ],
        "text": {
          "status": "generated",
          "div": "<div xmlns=\"http://www.w3.org/1999/xhtml\"><table class=\"hl7__eu__lab__report\"><tr><th>Test</th><th>22-Mar-2022</th><th>Reference&#xA0;Range</th><th>Unit</th></tr><tr><td>Sodium [Moles/volume] in Blood</td><td>141.2</td><td>135 - 145</td><td></td><td>mmol/L</td></tr></table></div>"
        },
        "status": "final",
        "subject": {
          "reference": "urn:uuid:0f56ae0a-94b8-4d3d-9846-02dc7f39c23f",
          "display": "Urbano Cantón"
        },
        "effectiveDateTime": "2022-03-22T17:07:13Z",
        "specimen": {
          "reference": "urn:uuid:fab6ad9b-4fbd-441a-9141-cb4c65c251be"
        }
      }
    },
    {
      "fullUrl": "urn:uuid:4d1c6bc5-5479-4553-987c-91c7e095a9dd",
      "resource": {
        "resourceType": "Observation",
        "id": "4d1c6bc5-5479-4553-987c-91c7e095a9dd",
        "meta": {
          "profile": [
            "http://hl7.eu/fhir/laboratory/StructureDefinition/Observation-resultslab-eu-lab"
          ]
        },
        "performer": [
          {
            "display": "The Central European Lab"
          }
        ],
        "category": [
          {
            "coding": [
              {
                "system": "http://terminology.hl7.org/CodeSystem/observation-category",
                "code": "laboratory"
              }
            ]
          }
        ],
        "code": {
          "coding": [
            {
              "code": "6298-4",
              "system": "http://loinc.org",
              "display": "Potassium [Moles/volume] in Blood"
            }
          ],
          "text": "Potassium [Moles/volume] in Blood"
        },
        "valueQuantity": {
          "system": "http://unitsofmeasure.org",
          "value": 4.2,
          "unit": "mmol/L",
          "code": "mmol/L"
        },
        "referenceRange": [
          {
            "low": {
              "value": 3.5,
              "code": "mmol/L",
              "system": "http://unitsofmeasure.org"
            }
          },
          {
            "high": {
              "value": 5.1,
              "code": "mmol/L",
              "system": "http://unitsofmeasure.org"
            }
          }
        ],
        "text": {
          "status": "generated",
          "div": "<div xmlns=\"http://www.w3.org/1999/xhtml\"><table class=\"hl7__eu__lab__report\"><tr><th>Test</th><th>22-Mar-2022</th><th>Reference&#xA0;Range</th><th>Unit</th></tr><tr><td>Potassium [Moles/volume] in Blood</td><td>4.2</td><td>3.5 - 5.1</td><td></td><td>mmol/L</td></tr></table></div>"
        },
        "status": "final",
        "subject": {
          "reference": "urn:uuid:0f56ae0a-94b8-4d3d-9846-02dc7f39c23f",
          "display": "Urbano Cantón"
        },
        "effectiveDateTime": "2022-03-22T17:07:13Z",
        "specimen": {
          "reference": "urn:uuid:fab6ad9b-4fbd-441a-9141-cb4c65c251be"
        }
      }
    },
    {
      "fullUrl": "urn:uuid:0541ca75-e673-44f5-a530-e3315737ff53",
      "resource": {
        "resourceType": "Observation",
        "id": "0541ca75-e673-44f5-a530-e3315737ff53",
        "meta": {
          "profile": [
            "http://hl7.eu/fhir/laboratory/StructureDefinition/Observation-resultslab-eu-lab"
          ]
        },
        "performer": [
          {
            "display": "The Central European Lab"
          }
        ],
        "category": [
          {
            "coding": [
              {
                "system": "http://terminology.hl7.org/CodeSystem/observation-category",
                "code": "laboratory"
              }
            ]
          }
        ],
        "code": {
          "coding": [
            {
              "code": "2069-3",
              "system": "http://loinc.org",
              "display": "Chloride [Moles/volume] in Blood"
            }
          ],
          "text": "Chloride [Moles/volume] in Blood"
        },
        "valueQuantity": {
          "system": "http://unitsofmeasure.org",
          "value": 101.2,
          "unit": "mmol/L",
          "code": "mmol/L"
        },
        "referenceRange": [
          {
            "low": {
              "value": 98,
              "code": "mmol/L",
              "system": "http://unitsofmeasure.org"
            }
          },
          {
            "high": {
              "value": 110,
              "code": "mmol/L",
              "system": "http://unitsofmeasure.org"
            }
          }
        ],
        "text": {
          "status": "generated",
          "div": "<div xmlns=\"http://www.w3.org/1999/xhtml\"><table class=\"hl7__eu__lab__report\"><tr><th>Test</th><th>22-Mar-2022</th><th>Reference&#xA0;Range</th><th>Unit</th></tr><tr><td>Chloride [Moles/volume] in Blood</td><td>101.2</td><td>98 - 110</td><td></td><td>mmol/L</td></tr></table></div>"
        },
        "status": "final",
        "subject": {
          "reference": "urn:uuid:0f56ae0a-94b8-4d3d-9846-02dc7f39c23f",
          "display": "Urbano Cantón"
        },
        "effectiveDateTime": "2022-03-22T17:07:13Z",
        "specimen": {
          "reference": "urn:uuid:fab6ad9b-4fbd-441a-9141-cb4c65c251be"
        }
      }
    },
    {
      "fullUrl": "urn:uuid:0d9ccd55-78c1-4d35-851f-fdbaf3b9b389",
      "resource": {
        "resourceType": "Observation",
        "id": "0d9ccd55-78c1-4d35-851f-fdbaf3b9b389",
        "meta": {
          "profile": [
            "http://hl7.eu/fhir/laboratory/StructureDefinition/Observation-resultslab-eu-lab"
          ]
        },
        "performer": [
          {
            "display": "The Central European Lab"
          }
        ],
        "category": [
          {
            "coding": [
              {
                "system": "http://terminology.hl7.org/CodeSystem/observation-category",
                "code": "laboratory"
              }
            ]
          }
        ],
        "code": {
          "coding": [
            {
              "code": "20565-8",
              "system": "http://loinc.org",
              "display": "Carbon dioxide, total [Moles/volume] in Blood"
            }
          ],
          "text": "Carbon dioxide, total [Moles/volume] in Blood"
        },
        "valueQuantity": {
          "system": "http://unitsofmeasure.org",
          "value": 21.1,
          "unit": "mmol/L",
          "code": "mmol/L"
        },
        "referenceRange": [
          {
            "low": {
              "value": 22,
              "code": "mmol/L",
              "system": "http://unitsofmeasure.org"
            }
          },
          {
            "high": {
              "value": 29,
              "code": "mmol/L",
              "system": "http://unitsofmeasure.org"
            }
          }
        ],
        "interpretation": [
          {
            "coding": [
              {
                "code": "L",
                "system": "http://terminology.hl7.org/CodeSystem/v3-ObservationInterpretation",
                "display": "Low"
              }
            ]
          }
        ],
        "text": {
          "status": "generated",
          "div": "<div xmlns=\"http://www.w3.org/1999/xhtml\"><table class=\"hl7__eu__lab__report\"><tr><th>Test</th><th>22-Mar-2022</th><th>Reference&#xA0;Range</th><th>Unit</th></tr><tr><td>Carbon dioxide, total [Moles/volume] in Blood</td><td>21.1</td><td>22 - 29</td><td>L</td><td>mmol/L</td></tr></table></div>"
        },
        "status": "final",
        "subject": {
          "reference": "urn:uuid:0f56ae0a-94b8-4d3d-9846-02dc7f39c23f",
          "display": "Urbano Cantón"
        },
        "effectiveDateTime": "2022-03-22T17:07:13Z",
        "specimen": {
          "reference": "urn:uuid:fab6ad9b-4fbd-441a-9141-cb4c65c251be"
        }
      }
    },
    {
      "fullUrl": "urn:uuid:cc875fbc-9158-4082-ba0b-e47251f1ac0d",
      "resource": {
        "resourceType": "Observation",
        "id": "cc875fbc-9158-4082-ba0b-e47251f1ac0d",
        "meta": {
          "profile": [
            "http://hl7.eu/fhir/laboratory/StructureDefinition/Observation-resultslab-eu-lab"
          ]
        },
        "performer": [
          {
            "display": "The Central European Lab"
          }
        ],
        "category": [
          {
            "coding": [
              {
                "system": "http://terminology.hl7.org/CodeSystem/observation-category",
                "code": "laboratory"
              }
            ]
          }
        ],
        "code": {
          "coding": [
            {
              "code": "2885-2",
              "system": "http://loinc.org",
              "display": "Protein [Mass/volume] in Serum or Plasma"
            }
          ],
          "text": "Protein [Mass/volume] in Serum or Plasma"
        },
        "valueQuantity": {
          "system": "http://unitsofmeasure.org",
          "value": 6.4,
          "unit": "g/dL",
          "code": "g/dL"
        },
        "referenceRange": [
          {
            "low": {
              "value": 6,
              "code": "g/dL",
              "system": "http://unitsofmeasure.org"
            }
          },
          {
            "high": {
              "value": 8.3,
              "code": "g/dL",
              "system": "http://unitsofmeasure.org"
            }
          }
        ],
        "text": {
          "status": "generated",
          "div": "<div xmlns=\"http://www.w3.org/1999/xhtml\"><table class=\"hl7__eu__lab__report\"><tr><th>Test</th><th>22-Mar-2022</th><th>Reference&#xA0;Range</th><th>Unit</th></tr><tr><td>Protein [Mass/volume] in Serum or Plasma</td><td>6.4</td><td>6 - 8.3</td><td></td><td>g/dL</td></tr></table></div>"
        },
        "status": "final",
        "subject": {
          "reference": "urn:uuid:0f56ae0a-94b8-4d3d-9846-02dc7f39c23f",
          "display": "Urbano Cantón"
        },
        "effectiveDateTime": "2022-03-22T17:07:13Z",
        "specimen": {
          "reference": "urn:uuid:8554023f-2c7f-421d-a765-0ef0d7f02cca"
        }
      }
    },
    {
      "fullUrl": "urn:uuid:10336d80-f377-43f9-8a24-8630edcfc420",
      "resource": {
        "resourceType": "Observation",
        "id": "10336d80-f377-43f9-8a24-8630edcfc420",
        "meta": {
          "profile": [
            "http://hl7.eu/fhir/laboratory/StructureDefinition/Observation-resultslab-eu-lab"
          ]
        },
        "performer": [
          {
            "display": "The Central European Lab"
          }
        ],
        "category": [
          {
            "coding": [
              {
                "system": "http://terminology.hl7.org/CodeSystem/observation-category",
                "code": "laboratory"
              }
            ]
          }
        ],
        "code": {
          "coding": [
            {
              "code": "1751-7",
              "system": "http://loinc.org",
              "display": "Albumin [Mass/volume] in Serum or Plasma"
            }
          ],
          "text": "Albumin [Mass/volume] in Serum or Plasma"
        },
        "valueQuantity": {
          "system": "http://unitsofmeasure.org",
          "value": 4.5,
          "unit": "g/dL",
          "code": "g/dL"
        },
        "referenceRange": [
          {
            "low": {
              "value": 3.2,
              "code": "g/dL",
              "system": "http://unitsofmeasure.org"
            }
          },
          {
            "high": {
              "value": 5.5,
              "code": "g/dL",
              "system": "http://unitsofmeasure.org"
            }
          }
        ],
        "text": {
          "status": "generated",
          "div": "<div xmlns=\"http://www.w3.org/1999/xhtml\"><table class=\"hl7__eu__lab__report\"><tr><th>Test</th><th>22-Mar-2022</th><th>Reference&#xA0;Range</th><th>Unit</th></tr><tr><td>Albumin [Mass/volume] in Serum or Plasma</td><td>4.5</td><td>3.2 - 5.5</td><td></td><td>g/dL</td></tr></table></div>"
        },
        "status": "final",
        "subject": {
          "reference": "urn:uuid:0f56ae0a-94b8-4d3d-9846-02dc7f39c23f",
          "display": "Urbano Cantón"
        },
        "effectiveDateTime": "2022-03-22T17:07:13Z",
        "specimen": {
          "reference": "urn:uuid:8554023f-2c7f-421d-a765-0ef0d7f02cca"
        }
      }
    },
    {
      "fullUrl": "urn:uuid:bb284561-71c8-40c2-b3f8-a144bfc4fca4",
      "resource": {
        "resourceType": "Observation",
        "id": "bb284561-71c8-40c2-b3f8-a144bfc4fca4",
        "meta": {
          "profile": [
            "http://hl7.eu/fhir/laboratory/StructureDefinition/Observation-resultslab-eu-lab"
          ]
        },
        "performer": [
          {
            "display": "The Central European Lab"
          }
        ],
        "category": [
          {
            "coding": [
              {
                "system": "http://terminology.hl7.org/CodeSystem/observation-category",
                "code": "laboratory"
              }
            ]
          }
        ],
        "code": {
          "coding": [
            {
              "code": "10834-0",
              "system": "http://loinc.org",
              "display": "Globulin [Mass/volume] in Serum by calculation"
            }
          ],
          "text": "Globulin [Mass/volume] in Serum by calculation"
        },
        "valueQuantity": {
          "system": "http://unitsofmeasure.org",
          "value": 2.9,
          "unit": "g/L",
          "code": "g/L"
        },
        "referenceRange": [
          {
            "low": {
              "value": 1.5,
              "code": "g/L",
              "system": "http://unitsofmeasure.org"
            }
          },
          {
            "high": {
              "value": 3.5,
              "code": "g/L",
              "system": "http://unitsofmeasure.org"
            }
          }
        ],
        "text": {
          "status": "generated",
          "div": "<div xmlns=\"http://www.w3.org/1999/xhtml\"><table class=\"hl7__eu__lab__report\"><tr><th>Test</th><th>22-Mar-2022</th><th>Reference&#xA0;Range</th><th>Unit</th></tr><tr><td>Globulin [Mass/volume] in Serum by calculation</td><td>2.9</td><td>1.5 - 3.5</td><td></td><td>g/L</td></tr></table></div>"
        },
        "status": "final",
        "subject": {
          "reference": "urn:uuid:0f56ae0a-94b8-4d3d-9846-02dc7f39c23f",
          "display": "Urbano Cantón"
        },
        "effectiveDateTime": "2022-03-22T17:07:13Z",
        "specimen": {
          "reference": "urn:uuid:6e35abc1-8089-41e5-afcd-53bf91a454b8"
        }
      }
    },
    {
      "fullUrl": "urn:uuid:b8351465-2e85-418e-a3b5-84b6eccb9f4c",
      "resource": {
        "resourceType": "Observation",
        "id": "b8351465-2e85-418e-a3b5-84b6eccb9f4c",
        "meta": {
          "profile": [
            "http://hl7.eu/fhir/laboratory/StructureDefinition/Observation-resultslab-eu-lab"
          ]
        },
        "performer": [
          {
            "display": "The Central European Lab"
          }
        ],
        "category": [
          {
            "coding": [
              {
                "system": "http://terminology.hl7.org/CodeSystem/observation-category",
                "code": "laboratory"
              }
            ]
          }
        ],
        "code": {
          "coding": [
            {
              "code": "1975-2",
              "system": "http://loinc.org",
              "display": "Bilirubin.total [Mass/volume] in Serum or Plasma"
            }
          ],
          "text": "Bilirubin.total [Mass/volume] in Serum or Plasma"
        },
        "valueQuantity": {
          "system": "http://unitsofmeasure.org",
          "value": 0.6,
          "unit": "mg/dL",
          "code": "mg/dL"
        },
        "referenceRange": [
          {
            "low": {
              "value": 0.3,
              "code": "mg/dL",
              "system": "http://unitsofmeasure.org"
            }
          },
          {
            "high": {
              "value": 1.2,
              "code": "mg/dL",
              "system": "http://unitsofmeasure.org"
            }
          }
        ],
        "text": {
          "status": "generated",
          "div": "<div xmlns=\"http://www.w3.org/1999/xhtml\"><table class=\"hl7__eu__lab__report\"><tr><th>Test</th><th>22-Mar-2022</th><th>Reference&#xA0;Range</th><th>Unit</th></tr><tr><td>Bilirubin.total [Mass/volume] in Serum or Plasma</td><td>0.6</td><td>0.3 - 1.2</td><td></td><td>mg/dL</td></tr></table></div>"
        },
        "status": "final",
        "subject": {
          "reference": "urn:uuid:0f56ae0a-94b8-4d3d-9846-02dc7f39c23f",
          "display": "Urbano Cantón"
        },
        "effectiveDateTime": "2022-03-22T17:07:13Z",
        "specimen": {
          "reference": "urn:uuid:8554023f-2c7f-421d-a765-0ef0d7f02cca"
        }
      }
    },
    {
      "fullUrl": "urn:uuid:2525b17f-da68-42a7-8e7d-1dc9ad4bbd40",
      "resource": {
        "resourceType": "Observation",
        "id": "2525b17f-da68-42a7-8e7d-1dc9ad4bbd40",
        "meta": {
          "profile": [
            "http://hl7.eu/fhir/laboratory/StructureDefinition/Observation-resultslab-eu-lab"
          ]
        },
        "performer": [
          {
            "display": "The Central European Lab"
          }
        ],
        "category": [
          {
            "coding": [
              {
                "system": "http://terminology.hl7.org/CodeSystem/observation-category",
                "code": "laboratory"
              }
            ]
          }
        ],
        "code": {
          "coding": [
            {
              "code": "6768-6",
              "system": "http://loinc.org",
              "display": "Alkaline phosphatase [Enzymatic activity/volume] in Serum or Plasma"
            }
          ],
          "text": "Alkaline phosphatase [Enzymatic activity/volume] in Serum or Plasma"
        },
        "valueQuantity": {
          "system": "http://unitsofmeasure.org",
          "value": 127.8,
          "unit": "U/L",
          "code": "U/L"
        },
        "referenceRange": [
          {
            "low": {
              "value": 39,
              "code": "U/L",
              "system": "http://unitsofmeasure.org"
            }
          },
          {
            "high": {
              "value": 147,
              "code": "U/L",
              "system": "http://unitsofmeasure.org"
            }
          }
        ],
        "text": {
          "status": "generated",
          "div": "<div xmlns=\"http://www.w3.org/1999/xhtml\"><table class=\"hl7__eu__lab__report\"><tr><th>Test</th><th>22-Mar-2022</th><th>Reference&#xA0;Range</th><th>Unit</th></tr><tr><td>Alkaline phosphatase [Enzymatic activity/volume] in Serum or Plasma</td><td>127.8</td><td>39 - 147</td><td></td><td>U/L</td></tr></table></div>"
        },
        "status": "final",
        "subject": {
          "reference": "urn:uuid:0f56ae0a-94b8-4d3d-9846-02dc7f39c23f",
          "display": "Urbano Cantón"
        },
        "effectiveDateTime": "2022-03-22T17:07:13Z",
        "specimen": {
          "reference": "urn:uuid:8554023f-2c7f-421d-a765-0ef0d7f02cca"
        }
      }
    },
    {
      "fullUrl": "urn:uuid:6b2e3967-a5da-41e8-bee2-bc301f3dbc3d",
      "resource": {
        "resourceType": "Observation",
        "id": "6b2e3967-a5da-41e8-bee2-bc301f3dbc3d",
        "meta": {
          "profile": [
            "http://hl7.eu/fhir/laboratory/StructureDefinition/Observation-resultslab-eu-lab"
          ]
        },
        "performer": [
          {
            "display": "The Central European Lab"
          }
        ],
        "category": [
          {
            "coding": [
              {
                "system": "http://terminology.hl7.org/CodeSystem/observation-category",
                "code": "laboratory"
              }
            ]
          }
        ],
        "code": {
          "coding": [
            {
              "code": "1742-6",
              "system": "http://loinc.org",
              "display": "Alanine aminotransferase [Enzymatic activity/volume] in Serum or Plasma"
            }
          ],
          "text": "Alanine aminotransferase [Enzymatic activity/volume] in Serum or Plasma"
        },
        "valueQuantity": {
          "system": "http://unitsofmeasure.org",
          "value": 43.8,
          "unit": "U/L",
          "code": "U/L"
        },
        "referenceRange": [
          {
            "low": {
              "value": 7,
              "code": "U/L",
              "system": "http://unitsofmeasure.org"
            }
          },
          {
            "high": {
              "value": 60,
              "code": "U/L",
              "system": "http://unitsofmeasure.org"
            }
          }
        ],
        "text": {
          "status": "generated",
          "div": "<div xmlns=\"http://www.w3.org/1999/xhtml\"><table class=\"hl7__eu__lab__report\"><tr><th>Test</th><th>22-Mar-2022</th><th>Reference&#xA0;Range</th><th>Unit</th></tr><tr><td>Alanine aminotransferase [Enzymatic activity/volume] in Serum or Plasma</td><td>43.8</td><td>7 - 60</td><td></td><td>U/L</td></tr></table></div>"
        },
        "status": "final",
        "subject": {
          "reference": "urn:uuid:0f56ae0a-94b8-4d3d-9846-02dc7f39c23f",
          "display": "Urbano Cantón"
        },
        "effectiveDateTime": "2022-03-22T17:07:13Z",
        "specimen": {
          "reference": "urn:uuid:8554023f-2c7f-421d-a765-0ef0d7f02cca"
        }
      }
    },
    {
      "fullUrl": "urn:uuid:685cd6c9-f991-4b15-bf31-211485db0790",
      "resource": {
        "resourceType": "Observation",
        "id": "685cd6c9-f991-4b15-bf31-211485db0790",
        "meta": {
          "profile": [
            "http://hl7.eu/fhir/laboratory/StructureDefinition/Observation-resultslab-eu-lab"
          ]
        },
        "performer": [
          {
            "display": "The Central European Lab"
          }
        ],
        "category": [
          {
            "coding": [
              {
                "system": "http://terminology.hl7.org/CodeSystem/observation-category",
                "code": "laboratory"
              }
            ]
          }
        ],
        "code": {
          "coding": [
            {
              "code": "1920-8",
              "system": "http://loinc.org",
              "display": "Aspartate aminotransferase [Enzymatic activity/volume] in Serum or Plasma"
            }
          ],
          "text": "Aspartate aminotransferase [Enzymatic activity/volume] in Serum or Plasma"
        },
        "valueQuantity": {
          "system": "http://unitsofmeasure.org",
          "value": 35.5,
          "unit": "U/L",
          "code": "U/L"
        },
        "referenceRange": [
          {
            "low": {
              "value": 10,
              "code": "U/L",
              "system": "http://unitsofmeasure.org"
            }
          },
          {
            "high": {
              "value": 40,
              "code": "U/L",
              "system": "http://unitsofmeasure.org"
            }
          }
        ],
        "text": {
          "status": "generated",
          "div": "<div xmlns=\"http://www.w3.org/1999/xhtml\"><table class=\"hl7__eu__lab__report\"><tr><th>Test</th><th>22-Mar-2022</th><th>Reference&#xA0;Range</th><th>Unit</th></tr><tr><td>Aspartate aminotransferase [Enzymatic activity/volume] in Serum or Plasma</td><td>35.5</td><td>10 - 40</td><td></td><td>U/L</td></tr></table></div>"
        },
        "status": "final",
        "subject": {
          "reference": "urn:uuid:0f56ae0a-94b8-4d3d-9846-02dc7f39c23f",
          "display": "Urbano Cantón"
        },
        "effectiveDateTime": "2022-03-22T17:07:13Z",
        "specimen": {
          "reference": "urn:uuid:8554023f-2c7f-421d-a765-0ef0d7f02cca"
        }
      }
    },
    {
      "fullUrl": "urn:uuid:360a7c20-9972-4f09-a4a3-64562d368449",
      "resource": {
        "resourceType": "Observation",
        "id": "360a7c20-9972-4f09-a4a3-64562d368449",
        "meta": {
          "profile": [
            "http://hl7.eu/fhir/laboratory/StructureDefinition/Observation-resultslab-eu-lab"
          ]
        },
        "performer": [
          {
            "display": "The Central European Lab"
          }
        ],
        "category": [
          {
            "coding": [
              {
                "system": "http://terminology.hl7.org/CodeSystem/observation-category",
                "code": "laboratory"
              }
            ]
          }
        ],
        "code": {
          "coding": [
            {
              "code": "2339-0",
              "system": "http://loinc.org",
              "display": "Glucose [Mass/volume] in Blood"
            }
          ],
          "text": "Glucose [Mass/volume] in Blood"
        },
        "valueQuantity": {
          "system": "http://unitsofmeasure.org",
          "value": 93.2,
          "unit": "mg/dL",
          "code": "mg/dL"
        },
        "referenceRange": [
          {
            "low": {
              "value": 70,
              "code": "mg/dL",
              "system": "http://unitsofmeasure.org"
            }
          },
          {
            "high": {
              "value": 140,
              "code": "mg/dL",
              "system": "http://unitsofmeasure.org"
            }
          }
        ],
        "text": {
          "status": "generated",
          "div": "<div xmlns=\"http://www.w3.org/1999/xhtml\"><table class=\"hl7__eu__lab__report\"><tr><th>Test</th><th>22-Mar-2022</th><th>Reference&#xA0;Range</th><th>Unit</th></tr><tr><td>Glucose [Mass/volume] in Blood</td><td>93.2</td><td>70 - 140</td><td></td><td>mg/dL</td></tr></table></div>"
        },
        "status": "final",
        "subject": {
          "reference": "urn:uuid:0f56ae0a-94b8-4d3d-9846-02dc7f39c23f",
          "display": "Urbano Cantón"
        },
        "effectiveDateTime": "2022-03-22T17:07:13Z",
        "specimen": {
          "reference": "urn:uuid:fab6ad9b-4fbd-441a-9141-cb4c65c251be"
        }
      }
    },
    {
      "fullUrl": "urn:uuid:bdb8d001-6c9e-4a7f-985a-b1570ae80804",
      "resource": {
        "resourceType": "Observation",
        "id": "bdb8d001-6c9e-4a7f-985a-b1570ae80804",
        "meta": {
          "profile": [
            "http://hl7.eu/fhir/laboratory/StructureDefinition/Observation-resultslab-eu-lab"
          ]
        },
        "performer": [
          {
            "display": "The Central European Lab"
          }
        ],
        "category": [
          {
            "coding": [
              {
                "system": "http://terminology.hl7.org/CodeSystem/observation-category",
                "code": "laboratory"
              }
            ]
          }
        ],
        "code": {
          "coding": [
            {
              "code": "6299-2",
              "system": "http://loinc.org",
              "display": "Urea nitrogen [Mass/volume] in Blood"
            }
          ],
          "text": "Urea nitrogen [Mass/volume] in Blood"
        },
        "valueQuantity": {
          "system": "http://unitsofmeasure.org",
          "value": 11.2,
          "unit": "mg/dL",
          "code": "mg/dL"
        },
        "referenceRange": [
          {
            "low": {
              "value": 7,
              "code": "mg/dL",
              "system": "http://unitsofmeasure.org"
            }
          },
          {
            "high": {
              "value": 25,
              "code": "mg/dL",
              "system": "http://unitsofmeasure.org"
            }
          }
        ],
        "text": {
          "status": "generated",
          "div": "<div xmlns=\"http://www.w3.org/1999/xhtml\"><table class=\"hl7__eu__lab__report\"><tr><th>Test</th><th>22-Mar-2022</th><th>Reference&#xA0;Range</th><th>Unit</th></tr><tr><td>Urea nitrogen [Mass/volume] in Blood</td><td>11.2</td><td>7 - 25</td><td></td><td>mg/dL</td></tr></table></div>"
        },
        "status": "final",
        "subject": {
          "reference": "urn:uuid:0f56ae0a-94b8-4d3d-9846-02dc7f39c23f",
          "display": "Urbano Cantón"
        },
        "effectiveDateTime": "2022-03-22T17:07:13Z",
        "specimen": {
          "reference": "urn:uuid:fab6ad9b-4fbd-441a-9141-cb4c65c251be"
        }
      }
    },
    {
      "fullUrl": "urn:uuid:f30543b2-2f5e-442a-b887-3abc7443b93d",
      "resource": {
        "resourceType": "Observation",
        "id": "f30543b2-2f5e-442a-b887-3abc7443b93d",
        "meta": {
          "profile": [
            "http://hl7.eu/fhir/laboratory/StructureDefinition/Observation-resultslab-eu-lab"
          ]
        },
        "performer": [
          {
            "display": "The Central European Lab"
          }
        ],
        "category": [
          {
            "coding": [
              {
                "system": "http://terminology.hl7.org/CodeSystem/observation-category",
                "code": "laboratory"
              }
            ]
          }
        ],
        "code": {
          "coding": [
            {
              "code": "38483-4",
              "system": "http://loinc.org",
              "display": "Creatinine [Mass/volume] in Blood"
            }
          ],
          "text": "Creatinine [Mass/volume] in Blood"
        },
        "valueQuantity": {
          "system": "http://unitsofmeasure.org",
          "value": 0.6,
          "unit": "mg/dL",
          "code": "mg/dL"
        },
        "referenceRange": [
          {
            "low": {
              "value": 0.9,
              "code": "mg/dL",
              "system": "http://unitsofmeasure.org"
            }
          },
          {
            "high": {
              "value": 1.3,
              "code": "mg/dL",
              "system": "http://unitsofmeasure.org"
            }
          }
        ],
        "interpretation": [
          {
            "coding": [
              {
                "code": "L",
                "system": "http://terminology.hl7.org/CodeSystem/v3-ObservationInterpretation",
                "display": "Low"
              }
            ]
          }
        ],
        "text": {
          "status": "generated",
          "div": "<div xmlns=\"http://www.w3.org/1999/xhtml\"><table class=\"hl7__eu__lab__report\"><tr><th>Test</th><th>22-Mar-2022</th><th>Reference&#xA0;Range</th><th>Unit</th></tr><tr><td>Creatinine [Mass/volume] in Blood</td><td>0.6</td><td>0.9 - 1.3</td><td>L</td><td>mg/dL</td></tr></table></div>"
        },
        "status": "final",
        "subject": {
          "reference": "urn:uuid:0f56ae0a-94b8-4d3d-9846-02dc7f39c23f",
          "display": "Urbano Cantón"
        },
        "effectiveDateTime": "2022-03-22T17:07:13Z",
        "specimen": {
          "reference": "urn:uuid:fab6ad9b-4fbd-441a-9141-cb4c65c251be"
        }
      }
    },
    {
      "fullUrl": "urn:uuid:d5aff003-8f33-429e-8103-64e113d677bb",
      "resource": {
        "resourceType": "Observation",
        "id": "d5aff003-8f33-429e-8103-64e113d677bb",
        "meta": {
          "profile": [
            "http://hl7.eu/fhir/laboratory/StructureDefinition/Observation-resultslab-eu-lab"
          ]
        },
        "performer": [
          {
            "display": "The Central European Lab"
          }
        ],
        "category": [
          {
            "coding": [
              {
                "system": "http://terminology.hl7.org/CodeSystem/observation-category",
                "code": "laboratory"
              }
            ]
          }
        ],
        "code": {
          "coding": [
            {
              "code": "49765-1",
              "system": "http://loinc.org",
              "display": "Calcium [Mass/volume] in Blood"
            }
          ],
          "text": "Calcium [Mass/volume] in Blood"
        },
        "valueQuantity": {
          "system": "http://unitsofmeasure.org",
          "value": 9.9,
          "unit": "mg/dL",
          "code": "mg/dL"
        },
        "referenceRange": [
          {
            "low": {
              "value": 8.5,
              "code": "mg/dL",
              "system": "http://unitsofmeasure.org"
            }
          },
          {
            "high": {
              "value": 10.5,
              "code": "mg/dL",
              "system": "http://unitsofmeasure.org"
            }
          }
        ],
        "text": {
          "status": "generated",
          "div": "<div xmlns=\"http://www.w3.org/1999/xhtml\"><table class=\"hl7__eu__lab__report\"><tr><th>Test</th><th>22-Mar-2022</th><th>Reference&#xA0;Range</th><th>Unit</th></tr><tr><td>Calcium [Mass/volume] in Blood</td><td>9.9</td><td>8.5 - 10.5</td><td></td><td>mg/dL</td></tr></table></div>"
        },
        "status": "final",
        "subject": {
          "reference": "urn:uuid:0f56ae0a-94b8-4d3d-9846-02dc7f39c23f",
          "display": "Urbano Cantón"
        },
        "effectiveDateTime": "2022-03-22T17:07:13Z",
        "specimen": {
          "reference": "urn:uuid:fab6ad9b-4fbd-441a-9141-cb4c65c251be"
        }
      }
    },
    {
      "fullUrl": "urn:uuid:bb14c877-7b5e-4632-b2d3-f19b1d00b61a",
      "resource": {
        "resourceType": "Observation",
        "id": "bb14c877-7b5e-4632-b2d3-f19b1d00b61a",
        "meta": {
          "profile": [
            "http://hl7.eu/fhir/laboratory/StructureDefinition/Observation-resultslab-eu-lab"
          ]
        },
        "performer": [
          {
            "display": "The Central European Lab"
          }
        ],
        "category": [
          {
            "coding": [
              {
                "system": "http://terminology.hl7.org/CodeSystem/observation-category",
                "code": "laboratory"
              }
            ]
          }
        ],
        "code": {
          "coding": [
            {
              "code": "2947-0",
              "system": "http://loinc.org",
              "display": "Sodium [Moles/volume] in Blood"
            }
          ],
          "text": "Sodium [Moles/volume] in Blood"
        },
        "valueQuantity": {
          "system": "http://unitsofmeasure.org",
          "value": 141.2,
          "unit": "mmol/L",
          "code": "mmol/L"
        },
        "referenceRange": [
          {
            "low": {
              "value": 135,
              "code": "mmol/L",
              "system": "http://unitsofmeasure.org"
            }
          },
          {
            "high": {
              "value": 145,
              "code": "mmol/L",
              "system": "http://unitsofmeasure.org"
            }
          }
        ],
        "text": {
          "status": "generated",
          "div": "<div xmlns=\"http://www.w3.org/1999/xhtml\"><table class=\"hl7__eu__lab__report\"><tr><th>Test</th><th>22-Mar-2022</th><th>Reference&#xA0;Range</th><th>Unit</th></tr><tr><td>Sodium [Moles/volume] in Blood</td><td>141.2</td><td>135 - 145</td><td></td><td>mmol/L</td></tr></table></div>"
        },
        "status": "final",
        "subject": {
          "reference": "urn:uuid:0f56ae0a-94b8-4d3d-9846-02dc7f39c23f",
          "display": "Urbano Cantón"
        },
        "effectiveDateTime": "2022-03-22T17:07:13Z",
        "specimen": {
          "reference": "urn:uuid:fab6ad9b-4fbd-441a-9141-cb4c65c251be"
        }
      }
    },
    {
      "fullUrl": "urn:uuid:91179a90-b1d9-43b1-a782-cc22b2f8c026",
      "resource": {
        "resourceType": "Observation",
        "id": "91179a90-b1d9-43b1-a782-cc22b2f8c026",
        "meta": {
          "profile": [
            "http://hl7.eu/fhir/laboratory/StructureDefinition/Observation-resultslab-eu-lab"
          ]
        },
        "performer": [
          {
            "display": "The Central European Lab"
          }
        ],
        "category": [
          {
            "coding": [
              {
                "system": "http://terminology.hl7.org/CodeSystem/observation-category",
                "code": "laboratory"
              }
            ]
          }
        ],
        "code": {
          "coding": [
            {
              "code": "6298-4",
              "system": "http://loinc.org",
              "display": "Potassium [Moles/volume] in Blood"
            }
          ],
          "text": "Potassium [Moles/volume] in Blood"
        },
        "valueQuantity": {
          "system": "http://unitsofmeasure.org",
          "value": 4.2,
          "unit": "mmol/L",
          "code": "mmol/L"
        },
        "referenceRange": [
          {
            "low": {
              "value": 3.5,
              "code": "mmol/L",
              "system": "http://unitsofmeasure.org"
            }
          },
          {
            "high": {
              "value": 5.1,
              "code": "mmol/L",
              "system": "http://unitsofmeasure.org"
            }
          }
        ],
        "text": {
          "status": "generated",
          "div": "<div xmlns=\"http://www.w3.org/1999/xhtml\"><table class=\"hl7__eu__lab__report\"><tr><th>Test</th><th>22-Mar-2022</th><th>Reference&#xA0;Range</th><th>Unit</th></tr><tr><td>Potassium [Moles/volume] in Blood</td><td>4.2</td><td>3.5 - 5.1</td><td></td><td>mmol/L</td></tr></table></div>"
        },
        "status": "final",
        "subject": {
          "reference": "urn:uuid:0f56ae0a-94b8-4d3d-9846-02dc7f39c23f",
          "display": "Urbano Cantón"
        },
        "effectiveDateTime": "2022-03-22T17:07:13Z",
        "specimen": {
          "reference": "urn:uuid:fab6ad9b-4fbd-441a-9141-cb4c65c251be"
        }
      }
    },
    {
      "fullUrl": "urn:uuid:bf33b5ff-83df-471a-a5a9-96ac8dbf5686",
      "resource": {
        "resourceType": "Observation",
        "id": "bf33b5ff-83df-471a-a5a9-96ac8dbf5686",
        "meta": {
          "profile": [
            "http://hl7.eu/fhir/laboratory/StructureDefinition/Observation-resultslab-eu-lab"
          ]
        },
        "performer": [
          {
            "display": "The Central European Lab"
          }
        ],
        "category": [
          {
            "coding": [
              {
                "system": "http://terminology.hl7.org/CodeSystem/observation-category",
                "code": "laboratory"
              }
            ]
          }
        ],
        "code": {
          "coding": [
            {
              "code": "2069-3",
              "system": "http://loinc.org",
              "display": "Chloride [Moles/volume] in Blood"
            }
          ],
          "text": "Chloride [Moles/volume] in Blood"
        },
        "valueQuantity": {
          "system": "http://unitsofmeasure.org",
          "value": 101.2,
          "unit": "mmol/L",
          "code": "mmol/L"
        },
        "referenceRange": [
          {
            "low": {
              "value": 98,
              "code": "mmol/L",
              "system": "http://unitsofmeasure.org"
            }
          },
          {
            "high": {
              "value": 110,
              "code": "mmol/L",
              "system": "http://unitsofmeasure.org"
            }
          }
        ],
        "text": {
          "status": "generated",
          "div": "<div xmlns=\"http://www.w3.org/1999/xhtml\"><table class=\"hl7__eu__lab__report\"><tr><th>Test</th><th>22-Mar-2022</th><th>Reference&#xA0;Range</th><th>Unit</th></tr><tr><td>Chloride [Moles/volume] in Blood</td><td>101.2</td><td>98 - 110</td><td></td><td>mmol/L</td></tr></table></div>"
        },
        "status": "final",
        "subject": {
          "reference": "urn:uuid:0f56ae0a-94b8-4d3d-9846-02dc7f39c23f",
          "display": "Urbano Cantón"
        },
        "effectiveDateTime": "2022-03-22T17:07:13Z",
        "specimen": {
          "reference": "urn:uuid:fab6ad9b-4fbd-441a-9141-cb4c65c251be"
        }
      }
    },
    {
      "fullUrl": "urn:uuid:e25a0a99-ef24-4a23-be9d-164550125c74",
      "resource": {
        "resourceType": "Observation",
        "id": "e25a0a99-ef24-4a23-be9d-164550125c74",
        "meta": {
          "profile": [
            "http://hl7.eu/fhir/laboratory/StructureDefinition/Observation-resultslab-eu-lab"
          ]
        },
        "performer": [
          {
            "display": "The Central European Lab"
          }
        ],
        "category": [
          {
            "coding": [
              {
                "system": "http://terminology.hl7.org/CodeSystem/observation-category",
                "code": "laboratory"
              }
            ]
          }
        ],
        "code": {
          "coding": [
            {
              "code": "20565-8",
              "system": "http://loinc.org",
              "display": "Carbon dioxide, total [Moles/volume] in Blood"
            }
          ],
          "text": "Carbon dioxide, total [Moles/volume] in Blood"
        },
        "valueQuantity": {
          "system": "http://unitsofmeasure.org",
          "value": 21.1,
          "unit": "mmol/L",
          "code": "mmol/L"
        },
        "referenceRange": [
          {
            "low": {
              "value": 22,
              "code": "mmol/L",
              "system": "http://unitsofmeasure.org"
            }
          },
          {
            "high": {
              "value": 29,
              "code": "mmol/L",
              "system": "http://unitsofmeasure.org"
            }
          }
        ],
        "interpretation": [
          {
            "coding": [
              {
                "code": "L",
                "system": "http://terminology.hl7.org/CodeSystem/v3-ObservationInterpretation",
                "display": "Low"
              }
            ]
          }
        ],
        "text": {
          "status": "generated",
          "div": "<div xmlns=\"http://www.w3.org/1999/xhtml\"><table class=\"hl7__eu__lab__report\"><tr><th>Test</th><th>22-Mar-2022</th><th>Reference&#xA0;Range</th><th>Unit</th></tr><tr><td>Carbon dioxide, total [Moles/volume] in Blood</td><td>21.1</td><td>22 - 29</td><td>L</td><td>mmol/L</td></tr></table></div>"
        },
        "status": "final",
        "subject": {
          "reference": "urn:uuid:0f56ae0a-94b8-4d3d-9846-02dc7f39c23f",
          "display": "Urbano Cantón"
        },
        "effectiveDateTime": "2022-03-22T17:07:13Z",
        "specimen": {
          "reference": "urn:uuid:fab6ad9b-4fbd-441a-9141-cb4c65c251be"
        }
      }
    },
    {
      "fullUrl": "urn:uuid:130c39c4-ce5d-42dd-9f9c-1ecd0d77119e",
      "resource": {
        "resourceType": "Observation",
        "id": "130c39c4-ce5d-42dd-9f9c-1ecd0d77119e",
        "meta": {
          "profile": [
            "http://hl7.eu/fhir/laboratory/StructureDefinition/Observation-resultslab-eu-lab"
          ]
        },
        "performer": [
          {
            "display": "The Central European Lab"
          }
        ],
        "category": [
          {
            "coding": [
              {
                "system": "http://terminology.hl7.org/CodeSystem/observation-category",
                "code": "laboratory"
              }
            ]
          }
        ],
        "code": {
          "coding": [
            {
              "code": "2093-3",
              "system": "http://loinc.org",
              "display": "Cholesterol [Mass/volume] in Serum or Plasma"
            }
          ],
          "text": "Cholesterol [Mass/volume] in Serum or Plasma"
        },
        "valueQuantity": {
          "system": "http://unitsofmeasure.org",
          "value": 254.8,
          "unit": "mg/dL",
          "code": "mg/dL"
        },
        "referenceRange": [
          {
            "low": {
              "value": 100,
              "code": "mg/dL",
              "system": "http://unitsofmeasure.org"
            }
          },
          {
            "high": {
              "value": 200,
              "code": "mg/dL",
              "system": "http://unitsofmeasure.org"
            }
          }
        ],
        "interpretation": [
          {
            "coding": [
              {
                "code": "H",
                "system": "http://terminology.hl7.org/CodeSystem/v3-ObservationInterpretation",
                "display": "High"
              }
            ]
          }
        ],
        "text": {
          "status": "generated",
          "div": "<div xmlns=\"http://www.w3.org/1999/xhtml\"><table class=\"hl7__eu__lab__report\"><tr><th>Test</th><th>22-Mar-2022</th><th>Reference&#xA0;Range</th><th>Unit</th></tr><tr><td>Cholesterol [Mass/volume] in Serum or Plasma</td><td>254.8</td><td>100 - 200</td><td>H</td><td>mg/dL</td></tr></table></div>"
        },
        "status": "final",
        "subject": {
          "reference": "urn:uuid:0f56ae0a-94b8-4d3d-9846-02dc7f39c23f",
          "display": "Urbano Cantón"
        },
        "effectiveDateTime": "2022-03-22T17:07:13Z",
        "specimen": {
          "reference": "urn:uuid:8554023f-2c7f-421d-a765-0ef0d7f02cca"
        }
      }
    },
    {
      "fullUrl": "urn:uuid:d7f91d75-0bee-42f3-9823-a541807171d6",
      "resource": {
        "resourceType": "Observation",
        "id": "d7f91d75-0bee-42f3-9823-a541807171d6",
        "meta": {
          "profile": [
            "http://hl7.eu/fhir/laboratory/StructureDefinition/Observation-resultslab-eu-lab"
          ]
        },
        "performer": [
          {
            "display": "The Central European Lab"
          }
        ],
        "category": [
          {
            "coding": [
              {
                "system": "http://terminology.hl7.org/CodeSystem/observation-category",
                "code": "laboratory"
              }
            ]
          }
        ],
        "code": {
          "coding": [
            {
              "code": "2571-8",
              "system": "http://loinc.org",
              "display": "Triglyceride [Mass/volume] in Serum or Plasma"
            }
          ],
          "text": "Triglyceride [Mass/volume] in Serum or Plasma"
        },
        "valueQuantity": {
          "system": "http://unitsofmeasure.org",
          "value": 130.3,
          "unit": "mg/dL",
          "code": "mg/dL"
        },
        "referenceRange": [
          {
            "low": {
              "value": 45,
              "code": "mg/dL",
              "system": "http://unitsofmeasure.org"
            }
          },
          {
            "high": {
              "value": 175,
              "code": "mg/dL",
              "system": "http://unitsofmeasure.org"
            }
          }
        ],
        "text": {
          "status": "generated",
          "div": "<div xmlns=\"http://www.w3.org/1999/xhtml\"><table class=\"hl7__eu__lab__report\"><tr><th>Test</th><th>22-Mar-2022</th><th>Reference&#xA0;Range</th><th>Unit</th></tr><tr><td>Triglyceride [Mass/volume] in Serum or Plasma</td><td>130.3</td><td>45 - 175</td><td></td><td>mg/dL</td></tr></table></div>"
        },
        "status": "final",
        "subject": {
          "reference": "urn:uuid:0f56ae0a-94b8-4d3d-9846-02dc7f39c23f",
          "display": "Urbano Cantón"
        },
        "effectiveDateTime": "2022-03-22T17:07:13Z",
        "specimen": {
          "reference": "urn:uuid:8554023f-2c7f-421d-a765-0ef0d7f02cca"
        }
      }
    },
    {
      "fullUrl": "urn:uuid:b992918c-9ab3-44ec-8e95-b15682ba3439",
      "resource": {
        "resourceType": "Observation",
        "id": "b992918c-9ab3-44ec-8e95-b15682ba3439",
        "meta": {
          "profile": [
            "http://hl7.eu/fhir/laboratory/StructureDefinition/Observation-resultslab-eu-lab"
          ]
        },
        "performer": [
          {
            "display": "The Central European Lab"
          }
        ],
        "category": [
          {
            "coding": [
              {
                "system": "http://terminology.hl7.org/CodeSystem/observation-category",
                "code": "laboratory"
              }
            ]
          }
        ],
        "code": {
          "coding": [
            {
              "code": "18262-6",
              "system": "http://loinc.org",
              "display": "Cholesterol in LDL [Mass/volume] in Serum or Plasma by Direct assay"
            }
          ],
          "text": "Cholesterol in LDL [Mass/volume] in Serum or Plasma by Direct assay"
        },
        "valueQuantity": {
          "system": "http://unitsofmeasure.org",
          "value": 182.5,
          "unit": "mg/dL",
          "code": "mg/dL"
        },
        "referenceRange": [
          {
            "low": {
              "value": 0,
              "code": "mg/dL",
              "system": "http://unitsofmeasure.org"
            }
          },
          {
            "high": {
              "value": 190,
              "code": "mg/dL",
              "system": "http://unitsofmeasure.org"
            }
          }
        ],
        "text": {
          "status": "generated",
          "div": "<div xmlns=\"http://www.w3.org/1999/xhtml\"><table class=\"hl7__eu__lab__report\"><tr><th>Test</th><th>22-Mar-2022</th><th>Reference&#xA0;Range</th><th>Unit</th></tr><tr><td>Cholesterol in LDL [Mass/volume] in Serum or Plasma by Direct assay</td><td>182.5</td><td>0 - 190</td><td></td><td>mg/dL</td></tr></table></div>"
        },
        "status": "final",
        "subject": {
          "reference": "urn:uuid:0f56ae0a-94b8-4d3d-9846-02dc7f39c23f",
          "display": "Urbano Cantón"
        },
        "effectiveDateTime": "2022-03-22T17:07:13Z",
        "specimen": {
          "reference": "urn:uuid:8554023f-2c7f-421d-a765-0ef0d7f02cca"
        }
      }
    },
    {
      "fullUrl": "urn:uuid:275880e8-2da3-43b3-85ae-4bcf54f71201",
      "resource": {
        "resourceType": "Observation",
        "id": "275880e8-2da3-43b3-85ae-4bcf54f71201",
        "meta": {
          "profile": [
            "http://hl7.eu/fhir/laboratory/StructureDefinition/Observation-resultslab-eu-lab"
          ]
        },
        "performer": [
          {
            "display": "The Central European Lab"
          }
        ],
        "category": [
          {
            "coding": [
              {
                "system": "http://terminology.hl7.org/CodeSystem/observation-category",
                "code": "laboratory"
              }
            ]
          }
        ],
        "code": {
          "coding": [
            {
              "code": "2085-9",
              "system": "http://loinc.org",
              "display": "Cholesterol in HDL [Mass/volume] in Serum or Plasma"
            }
          ],
          "text": "Cholesterol in HDL [Mass/volume] in Serum or Plasma"
        },
        "valueQuantity": {
          "system": "http://unitsofmeasure.org",
          "value": 46.3,
          "unit": "mg/dL",
          "code": "mg/dL"
        },
        "referenceRange": [
          {
            "low": {
              "value": 40,
              "code": "mg/dL",
              "system": "http://unitsofmeasure.org"
            }
          },
          {
            "high": {
              "value": 100,
              "code": "mg/dL",
              "system": "http://unitsofmeasure.org"
            }
          }
        ],
        "text": {
          "status": "generated",
          "div": "<div xmlns=\"http://www.w3.org/1999/xhtml\"><table class=\"hl7__eu__lab__report\"><tr><th>Test</th><th>22-Mar-2022</th><th>Reference&#xA0;Range</th><th>Unit</th></tr><tr><td>Cholesterol in HDL [Mass/volume] in Serum or Plasma</td><td>46.3</td><td>40 - 100</td><td></td><td>mg/dL</td></tr></table></div>"
        },
        "status": "final",
        "subject": {
          "reference": "urn:uuid:0f56ae0a-94b8-4d3d-9846-02dc7f39c23f",
          "display": "Urbano Cantón"
        },
        "effectiveDateTime": "2022-03-22T17:07:13Z",
        "specimen": {
          "reference": "urn:uuid:8554023f-2c7f-421d-a765-0ef0d7f02cca"
        }
      }
    },
    {
      "fullUrl": "urn:uuid:8432738a-986a-4502-9627-1f7010d04b0f",
      "resource": {
        "resourceType": "Observation",
        "id": "8432738a-986a-4502-9627-1f7010d04b0f",
        "meta": {
          "profile": [
            "http://hl7.eu/fhir/laboratory/StructureDefinition/Observation-resultslab-eu-lab"
          ]
        },
        "performer": [
          {
            "display": "The Central European Lab"
          }
        ],
        "category": [
          {
            "coding": [
              {
                "system": "http://terminology.hl7.org/CodeSystem/observation-category",
                "code": "laboratory"
              }
            ]
          }
        ],
        "code": {
          "coding": [
            {
              "code": "14959-1",
              "system": "http://loinc.org",
              "display": "Microalbumin/Creatinine [Mass Ratio] in Urine"
            }
          ],
          "text": "Microalbumin/Creatinine [Mass Ratio] in Urine"
        },
        "valueQuantity": {
          "system": "http://unitsofmeasure.org",
          "value": 10.3,
          "unit": "mg/g",
          "code": "mg/g"
        },
        "referenceRange": [
          {
            "low": {
              "value": 0,
              "code": "mg/g",
              "system": "http://unitsofmeasure.org"
            }
          },
          {
            "high": {
              "value": 30,
              "code": "mg/g",
              "system": "http://unitsofmeasure.org"
            }
          }
        ],
        "text": {
          "status": "generated",
          "div": "<div xmlns=\"http://www.w3.org/1999/xhtml\"><table class=\"hl7__eu__lab__report\"><tr><th>Test</th><th>22-Mar-2022</th><th>Reference&#xA0;Range</th><th>Unit</th></tr><tr><td>Microalbumin/Creatinine [Mass Ratio] in Urine</td><td>10.3</td><td>0 - 30</td><td></td><td>mg/g</td></tr></table></div>"
        },
        "status": "final",
        "subject": {
          "reference": "urn:uuid:0f56ae0a-94b8-4d3d-9846-02dc7f39c23f",
          "display": "Urbano Cantón"
        },
        "effectiveDateTime": "2022-03-22T17:07:13Z",
        "specimen": {
          "reference": "urn:uuid:132e9607-cde0-4e2d-93d0-1a8c425f4506"
        }
      }
    },
    {
      "fullUrl": "urn:uuid:21eea311-a04f-49dd-8382-e9bd51d30e2c",
      "resource": {
        "resourceType": "Device",
        "id": "21eea311-a04f-49dd-8382-e9bd51d30e2c",
        "deviceName": [
          {
            "name": "SYNDERAI Synthetic Generator",
            "type": "manufacturer-name"
          }
        ],
        "version": [
          {
            "value": "5.0"
          }
        ],
        "text": {
          "status": "generated",
          "div": "<div xmlns=\"http://www.w3.org/1999/xhtml\">SYNDERAI Synthetic Generator v5.0</div>"
        },
        "status": "active\"",
        "distinctIdentifier": "synderai-generator-50",
        "manufacturer": "SYNDERAI Project"
      }
    },
    {
      "fullUrl": "urn:uuid:c2b3d4f0-7f47-409a-b371-11dae3879714",
      "resource": {
        "resourceType": "Provenance",
        "id": "c2b3d4f0-7f47-409a-b371-11dae3879714",
        "target": [
          {
            "reference": "Patient/0f56ae0a-94b8-4d3d-9846-02dc7f39c23f"
          },
          {
            "reference": "Bundle/6f3133fd-197a-405b-b02a-94528f1abfdd"
          },
          {
            "reference": "Composition/d6e1dac4-2c4e-4ac0-93d2-c92ea614a1ad"
          },
          {
            "reference": "PractitionerRole/8e24d412-eb43-4405-835e-f6d07b778a44"
          },
          {
            "reference": "Practitioner/99027ab9-eb86-497b-b882-9d017c885756"
          },
          {
            "reference": "PractitionerRole/4591d2f3-30c5-4473-ae98-20aff3ac54dd"
          },
          {
            "reference": "Organization/f3ff2d25-7f1b-4ad6-af23-fb3ea18f5f26"
          }
        ],
        "activity": {
          "text": "Synthetic Example Data Generation"
        },
        "policy": [
          "https://synderai.net/synderai-synthetic-data-policy"
        ],
        "agent": [
          {
            "type": {
              "text": "author"
            },
            "who": {
              "reference": "Device/21eea311-a04f-49dd-8382-e9bd51d30e2c"
            }
          }
        ],
        "reason": [
          {
            "text": "Interoperability Testing and Training (non-clinical use)"
          }
        ],
        "text": {
          "status": "generated",
          "div": "<div xmlns=\"http://www.w3.org/1999/xhtml\">Provenance for SYNDERAI Synthetic Example Data Resource</div>"
        },
        "recorded": "2022-03-22T18:07:13Z"
      }
    },
    {
      "fullUrl": "urn:uuid:8e24d412-eb43-4405-835e-f6d07b778a44",
      "resource": {
        "resourceType": "PractitionerRole",
        "id": "8e24d412-eb43-4405-835e-f6d07b778a44",
        "meta": {
          "profile": [
            "http://hl7.eu/fhir/base/StructureDefinition/practitionerRole-eu"
          ]
        },
        "text": {
          "status": "generated",
          "div": "<div xmlns=\"http://www.w3.org/1999/xhtml\">Laboratory Role Id: 8e24d412-eb43-4405-835e-f6d07b778a44</div>"
        },
        "practitioner": {
          "reference": "urn:uuid:99027ab9-eb86-497b-b882-9d017c885756"
        }
      }
    },
    {
      "fullUrl": "urn:uuid:99027ab9-eb86-497b-b882-9d017c885756",
      "resource": {
        "resourceType": "Practitioner",
        "id": "99027ab9-eb86-497b-b882-9d017c885756",
        "meta": {
          "profile": [
            "http://hl7.eu/fhir/base/StructureDefinition/practitioner-eu"
          ]
        },
        "identifier": [
          {
            "assigner": {
              "display": "HL7 Europe"
            },
            "system": "urn:oid:2.16.840.1.113883.2.51.999",
            "value": "ef3397b3-be33-425f-9432-ab6a2a081be4"
          }
        ],
        "name": [
          {
            "prefix": [
              "dr"
            ],
            "given": [
              "Ex"
            ],
            "family": "Ample"
          }
        ],
        "address": [
          {
            "line": [
              "Laboratoire Central Européenne",
              "Boulevard du Jardin Botanique 32"
            ],
            "postalCode": "1000",
            "city": "Brussels",
            "country": "Belgium"
          }
        ],
        "text": {
          "status": "generated",
          "div": "<div xmlns=\"http://www.w3.org/1999/xhtml\">Laboratory: Laboratoire Central Européenne, 1000 Brussels, Belgium</div>"
        }
      }
    }
  ],
  "type": "document",
  "timestamp": "2022-03-22T18:07:13Z"
}
