{
  "resourceType": "Bundle",
  "id": "a2ade076-5cbe-4237-a31c-a768ee882599",
  "meta": {
    "profile": [
      "http://hl7.eu/fhir/laboratory/StructureDefinition/Bundle-eu-lab"
    ]
  },
  "identifier": {
    "assigner": {
      "display": "HL7 Europe"
    },
    "system": "urn:oid:2.16.840.1.113883.2.51.999",
    "value": "d802cc4c-2dde-42fe-8ca9-3496d885fdf4"
  },
  "entry": [
    {
      "fullUrl": "urn:uuid:cc6b820d-ed24-4431-9c81-570847dc37f3",
      "resource": {
        "resourceType": "Composition",
        "id": "cc6b820d-ed24-4431-9c81-570847dc37f3",
        "meta": {
          "profile": [
            "http://hl7.eu/fhir/laboratory/StructureDefinition/Composition-eu-lab"
          ]
        },
        "identifier": {
          "assigner": {
            "display": "HL7 Europe"
          },
          "system": "urn:oid:2.16.840.1.113883.2.51.999",
          "value": "955eebf1-8769-4480-a4f0-8f9262f91761"
        },
        "author": [
          {
            "reference": "urn:uuid:cd2ead44-0af4-403d-8154-b97774edfede"
          }
        ],
        "category": [
          {
            "coding": [
              {
                "code": "26436-6",
                "system": "http://loinc.org",
                "display": "Laboratory studies (set)"
              }
            ]
          }
        ],
        "type": {
          "coding": [
            {
              "code": "11502-2",
              "system": "http://loinc.org",
              "display": "Laboratory report"
            }
          ],
          "text": "Laboratory Report"
        },
        "section": [
          {
            "code": {
              "coding": [
                {
                  "code": "26436-6",
                  "system": "http://loinc.org",
                  "display": "Laboratory studies (set)"
                }
              ],
              "text": "Laboratory studies"
            },
            "section": [
              {
                "code": {
                  "coding": [
                    {
                      "code": "$18719-5",
                      "system": "http://loinc.org",
                      "display": "Chemistry studies (set)"
                    }
                  ],
                  "text": "Chemistry"
                },
                "entry": [
                  {
                    "reference": "urn:uuid:9180bfa1-708d-4f1d-a416-949062d7d264"
                  },
                  {
                    "reference": "urn:uuid:51109821-9ef5-43ff-9edb-1134b943b00a"
                  },
                  {
                    "reference": "urn:uuid:73ac0fa9-4657-4adb-b296-cb15c4d3087b"
                  },
                  {
                    "reference": "urn:uuid:a2d3b2f8-98cf-45f5-bae5-45737ec813c4"
                  },
                  {
                    "reference": "urn:uuid:11acaf64-d2b0-4f30-84fc-e14a96e0a969"
                  },
                  {
                    "reference": "urn:uuid:cd012d73-cc8f-461e-9802-bdab7ac4052e"
                  },
                  {
                    "reference": "urn:uuid:0c110fa2-b537-4d14-8f99-ae9e92b3a7a8"
                  },
                  {
                    "reference": "urn:uuid:fd41a5e6-ccd6-4b3e-8f33-52813cd61f8e"
                  },
                  {
                    "reference": "urn:uuid:e5df909a-79b8-4be3-98b2-b7dc8788fb9d"
                  }
                ],
                "text": {
                  "status": "generated",
                  "div": "<div xmlns=\"http://www.w3.org/1999/xhtml\"><h3>Chemistry</h3><table class=\"hl7__eu__lab__report\"><thead><tr><th>Test</th><th>28-AUG-2018</th><th>Reference&#xA0;Range</th><th>Unit</th></tr></thead><tbody><tr><td>Hemoglobin A1c/Hemoglobin.total in Blood</td><td>6.4</td><td>4.5 - 6.4</td><td>%</td></tr><tr><td>Glucose [Mass/volume] in Blood</td><td><strong>68.4 L</strong></td><td>70 - 99</td><td>mg/dL</td></tr><tr><td>Urea nitrogen [Mass/volume] in Blood</td><td>12.5</td><td>7 - 20</td><td>mg/dL</td></tr><tr><td>Creatinine [Mass/volume] in Blood</td><td>0.9</td><td>0.9 - 1.3</td><td>mg/dL</td></tr><tr><td>Calcium [Mass/volume] in Blood</td><td>10.1</td><td>8.6 - 10.2</td><td>mg/dL</td></tr><tr><td>Sodium [Moles/volume] in Blood</td><td>137.4</td><td>135 - 145</td><td>mmol/L</td></tr><tr><td>Potassium [Moles/volume] in Blood</td><td>3.7</td><td>3.5 - 5.1</td><td>mmol/L</td></tr><tr><td>Chloride [Moles/volume] in Blood</td><td>104.9</td><td>98 - 108</td><td>mmol/L</td></tr><tr><td>Carbon dioxide, total [Moles/volume] in Blood</td><td>24.4</td><td>22 - 29</td><td>mmol/L</td></tr></tbody></table></div>"
                },
                "title": "Chemistry"
              }
            ],
            "title": "Laboratory Report"
          },
          {
            "text": {
              "status": "generated",
              "div": "<div xmlns=\"http://www.w3.org/1999/xhtml\"><h3>Annotation</h3><table class=\"hl7__eu__lab__report\"><tr><th>Conclusion and Recommendations based on this report and previous findings known to us</th></tr><tr><td>Laboratory results show borderline elevated HbA1c (6.4%), indicating prediabetes. Fasting glucose is slightly below normal, which may be due to fasting or medication. Renal function, electrolytes, and calcium are within normal limits. No acute abnormalities detected; recommend monitoring glycemic control and clinical correlation.</td></tr></table></div>"
            },
            "code": {
              "coding": [
                {
                  "system": "http://loinc.org",
                  "code": "48767-8",
                  "display": "Annotation comment"
                }
              ]
            },
            "title": "Annotation comment"
          }
        ],
        "status": "final",
        "subject": {
          "reference": "urn:uuid:1fc23915-fdd1-4a70-8f8f-f1fcfa1965d9",
          "display": "Khalid Nilsson"
        },
        "date": "2018-08-28T01:04:23Z",
        "title": "Laboratory Report",
        "confidentiality": "N"
      }
    },
    {
      "fullUrl": "urn:uuid:ccb20138-a900-4952-8922-747de6a742f5",
      "resource": {
        "resourceType": "DiagnosticReport",
        "id": "ccb20138-a900-4952-8922-747de6a742f5",
        "meta": {
          "profile": [
            "http://hl7.eu/fhir/laboratory/StructureDefinition/DiagnosticReport-eu-lab"
          ]
        },
        "identifier": [
          {
            "assigner": {
              "display": "HL7 Europe"
            },
            "system": "urn:oid:2.16.840.1.113883.2.51.999",
            "value": "35ac524f-c3e6-4224-8e7e-fcbe65208ee4"
          }
        ],
        "extension": [
          {
            "url": "http://hl7.org/fhir/5.0/StructureDefinition/extension-DiagnosticReport.composition",
            "valueReference": {
              "reference": "urn:uuid:955eebf1-8769-4480-a4f0-8f9262f91761"
            }
          }
        ],
        "category": [
          {
            "coding": [
              {
                "code": "26436-6",
                "system": "http://loinc.org",
                "display": "Laboratory studies (set)"
              }
            ]
          }
        ],
        "specimen": [
          {
            "reference": "urn:uuid:94d5504b-2341-4e81-a07d-c5a51c2118a1"
          }
        ],
        "result": [
          {
            "reference": "urn:uuid:9180bfa1-708d-4f1d-a416-949062d7d264"
          },
          {
            "reference": "urn:uuid:51109821-9ef5-43ff-9edb-1134b943b00a"
          },
          {
            "reference": "urn:uuid:73ac0fa9-4657-4adb-b296-cb15c4d3087b"
          },
          {
            "reference": "urn:uuid:a2d3b2f8-98cf-45f5-bae5-45737ec813c4"
          },
          {
            "reference": "urn:uuid:11acaf64-d2b0-4f30-84fc-e14a96e0a969"
          },
          {
            "reference": "urn:uuid:cd012d73-cc8f-461e-9802-bdab7ac4052e"
          },
          {
            "reference": "urn:uuid:0c110fa2-b537-4d14-8f99-ae9e92b3a7a8"
          },
          {
            "reference": "urn:uuid:fd41a5e6-ccd6-4b3e-8f33-52813cd61f8e"
          },
          {
            "reference": "urn:uuid:e5df909a-79b8-4be3-98b2-b7dc8788fb9d"
          }
        ],
        "status": "registered",
        "code": {
          "coding": [
            {
              "code": "11502-2",
              "system": "http://loinc.org",
              "display": "Laboratory report"
            }
          ]
        },
        "subject": {
          "reference": "urn:uuid:1fc23915-fdd1-4a70-8f8f-f1fcfa1965d9",
          "display": "Khalid Nilsson"
        }
      }
    },
    {
      "fullUrl": "urn:uuid:1fc23915-fdd1-4a70-8f8f-f1fcfa1965d9",
      "resource": {
        "resourceType": "Patient",
        "id": "1fc23915-fdd1-4a70-8f8f-f1fcfa1965d9",
        "meta": {
          "security": [
            {
              "system": "http://terminology.hl7.org/CodeSystem/v3-ActReason",
              "code": "HTEST"
            },
            {
              "system": "http://terminology.hl7.org/CodeSystem/v3-ActReason",
              "code": "TRAIN"
            }
          ],
          "tag": [
            {
              "system": "https://synderai.net/fhir/CodeSystem/tags",
              "code": "synthetic",
              "display": "SYNDERAI Synthetic data"
            }
          ],
          "profile": [
            "http://hl7.eu/fhir/base/StructureDefinition/patient-eu-core"
          ]
        },
        "identifier": [
          {
            "type": {
              "coding": [
                {
                  "code": "PT",
                  "system": "http://terminology.hl7.org/CodeSystem/v2-0203"
                }
              ]
            },
            "system": "http://ec.europa.eu/identifier/eci",
            "value": "8339-594203-6"
          },
          {
            "type": {
              "coding": [
                {
                  "code": "MR",
                  "system": "http://terminology.hl7.org/CodeSystem/v2-0203"
                }
              ]
            },
            "system": "http://local.setting.eu/identifier",
            "value": "db9680f4-3d2c-0551-cb1c-61573f88f405"
          }
        ],
        "name": [
          {
            "family": "Nilsson"
          },
          {
            "given": [
              "Khalid"
            ]
          },
          {
            "text": "Khalid Nilsson"
          }
        ],
        "address": [
          {
            "line": [
              "Gengränd 482"
            ],
            "use": "home",
            "type": "physical",
            "postalCode": "691 31",
            "city": "Karlskoga",
            "country": "Sweden"
          }
        ],
        "telecom": [
          {
            "system": "phone",
            "value": "+46 (0)8 888 657 95"
          }
        ],
        "extension": [
          {
            "url": "http://hl7.org/fhir/StructureDefinition/patient-nationality",
            "valueCodeableConcept": {
              "coding": [
                {
                  "code": "SE",
                  "system": "http://hl7.org/fhir/ValueSet/country"
                }
              ]
            }
          }
        ],
        "text": {
          "status": "generated",
          "div": "<div xmlns=\"http://www.w3.org/1999/xhtml\"><table class=\"hl7__ips\"><tr><td>Khalid Nilsson</td><td>male</td><td>10-Apr-1952</td></tr></table></div>"
        },
        "gender": "male",
        "birthDate": "1952-04-10"
      }
    },
    {
      "fullUrl": "urn:uuid:b093a8d2-f3f4-4a22-99f7-2d4791661db6",
      "resource": {
        "resourceType": "ServiceRequest",
        "id": "b093a8d2-f3f4-4a22-99f7-2d4791661db6",
        "meta": {
          "profile": [
            "http://hl7.eu/fhir/laboratory/StructureDefinition/ServiceRequest-eu-lab"
          ]
        },
        "identifier": [
          {
            "system": "http://example.org",
            "value": "16237e4c-9f74-4e55-b59a-558141d58f0a"
          }
        ],
        "specimen": [
          {
            "reference": "urn:uuid:94d5504b-2341-4e81-a07d-c5a51c2118a1"
          }
        ],
        "reasonCode": [
          {
            "coding": [
              {
                "code": "64859006",
                "system": "http://snomed.info/sct",
                "display": "Osteoporosis"
              }
            ]
          },
          {
            "coding": [
              {
                "code": "196416002",
                "system": "http://snomed.info/sct",
                "display": "Impacted molars"
              }
            ]
          },
          {
            "coding": [
              {
                "code": "414545008",
                "system": "http://snomed.info/sct",
                "display": "Ischemic heart disease"
              }
            ]
          },
          {
            "coding": [
              {
                "code": "40055000",
                "system": "http://snomed.info/sct",
                "display": "Chronic sinusitis"
              }
            ]
          },
          {
            "coding": [
              {
                "code": "197927001",
                "system": "http://snomed.info/sct",
                "display": "Recurrent urinary tract infection"
              }
            ]
          },
          {
            "coding": [
              {
                "code": "15777000",
                "system": "http://snomed.info/sct",
                "display": "Prediabetes"
              }
            ]
          },
          {
            "coding": [
              {
                "code": "271737000",
                "system": "http://snomed.info/sct",
                "display": "Anemia"
              }
            ]
          }
        ],
        "status": "active",
        "intent": "order",
        "code": {
          "coding": [
            {
              "code": "108252007",
              "system": "http://snomed.info/sct",
              "display": "Laboratory procedure"
            }
          ]
        },
        "subject": {
          "reference": "urn:uuid:1fc23915-fdd1-4a70-8f8f-f1fcfa1965d9",
          "display": "Khalid Nilsson"
        },
        "requester": {
          "reference": "urn:uuid:2bc3e69b-c8f9-4a5f-9648-2060a2efdc19"
        }
      }
    },
    {
      "fullUrl": "urn:uuid:2bc3e69b-c8f9-4a5f-9648-2060a2efdc19",
      "resource": {
        "resourceType": "PractitionerRole",
        "id": "2bc3e69b-c8f9-4a5f-9648-2060a2efdc19",
        "meta": {
          "profile": [
            "http://hl7.eu/fhir/base/StructureDefinition/practitionerRole-eu"
          ]
        },
        "text": {
          "status": "generated",
          "div": "<div xmlns=\"http://www.w3.org/1999/xhtml\">Provider Role Id: 2bc3e69b-c8f9-4a5f-9648-2060a2efdc19</div>"
        },
        "organization": {
          "reference": "urn:uuid:b3bf30c2-1ac2-480c-9d80-006e026c73cd"
        }
      }
    },
    {
      "fullUrl": "urn:uuid:b3bf30c2-1ac2-480c-9d80-006e026c73cd",
      "resource": {
        "resourceType": "Organization",
        "id": "b3bf30c2-1ac2-480c-9d80-006e026c73cd",
        "meta": {
          "profile": [
            "http://hl7.eu/fhir/base/StructureDefinition/organization-eu"
          ]
        },
        "identifier": [
          {
            "assigner": {
              "display": "HL7 Europe"
            },
            "system": "urn:oid:2.16.840.1.113883.2.51.999",
            "value": "31371aed-3427-41ff-b2cc-fc03b63918aa"
          }
        ],
        "address": [
          {
            "city": "Karlskoga",
            "postalCode": "691 31",
            "country": "Sweden"
          }
        ],
        "text": {
          "status": "generated",
          "div": "<div xmlns=\"http://www.w3.org/1999/xhtml\">Provider Organization: Karlskoga Lasarett</div>"
        },
        "name": "Karlskoga Lasarett"
      }
    },
    {
      "fullUrl": "urn:uuid:94d5504b-2341-4e81-a07d-c5a51c2118a1",
      "resource": {
        "resourceType": "Specimen",
        "id": "94d5504b-2341-4e81-a07d-c5a51c2118a1",
        "meta": {
          "profile": [
            "http://hl7.eu/fhir/laboratory/StructureDefinition/Specimen-eu-lab"
          ]
        },
        "collection": {
          "collectedDateTime": "2018-08-27"
        },
        "text": {
          "status": "generated",
          "div": "<div xmlns=\"http://www.w3.org/1999/xhtml\"><table class=\"hl7__eu__lab__report\"><tr><th>Specimen</th><th>Collection Date</th></tr><tr><td>Whole blood specimen (specimen)</td><td><span class=\"nb\">27-Aug-2018</span></td></tr></table></div>"
        },
        "type": {
          "coding": [
            {
              "code": "258580003",
              "system": "http://snomed.info/sct",
              "display": "Whole blood specimen (specimen)"
            }
          ]
        }
      }
    },
    {
      "fullUrl": "urn:uuid:9180bfa1-708d-4f1d-a416-949062d7d264",
      "resource": {
        "resourceType": "Observation",
        "id": "9180bfa1-708d-4f1d-a416-949062d7d264",
        "meta": {
          "profile": [
            "http://hl7.eu/fhir/laboratory/StructureDefinition/Observation-resultslab-eu-lab"
          ]
        },
        "performer": [
          {
            "display": "The Central European Lab"
          }
        ],
        "category": [
          {
            "coding": [
              {
                "system": "http://terminology.hl7.org/CodeSystem/observation-category",
                "code": "laboratory"
              }
            ]
          }
        ],
        "code": {
          "coding": [
            {
              "code": "4548-4",
              "system": "http://loinc.org",
              "display": "Hemoglobin A1c/Hemoglobin.total in Blood"
            }
          ],
          "text": "Hemoglobin A1c/Hemoglobin.total in Blood"
        },
        "valueQuantity": {
          "system": "http://unitsofmeasure.org",
          "value": 6.4,
          "unit": "%",
          "code": "%"
        },
        "referenceRange": [
          {
            "low": {
              "value": 4.5,
              "code": "%",
              "system": "http://unitsofmeasure.org"
            }
          },
          {
            "high": {
              "value": 6.4,
              "code": "%",
              "system": "http://unitsofmeasure.org"
            }
          }
        ],
        "text": {
          "status": "generated",
          "div": "<div xmlns=\"http://www.w3.org/1999/xhtml\"><table class=\"hl7__eu__lab__report\"><tr><th>Test</th><th>28-Aug-2018</th><th>Reference&#xA0;Range</th><th>Unit</th></tr><tr><td>Hemoglobin A1c/Hemoglobin.total in Blood</td><td>6.4</td><td>4.5 - 6.4</td><td></td><td>%</td></tr></table></div>"
        },
        "status": "final",
        "subject": {
          "reference": "urn:uuid:1fc23915-fdd1-4a70-8f8f-f1fcfa1965d9",
          "display": "Khalid Nilsson"
        },
        "effectiveDateTime": "2018-08-27T23:04:23Z",
        "specimen": {
          "reference": "urn:uuid:94d5504b-2341-4e81-a07d-c5a51c2118a1"
        }
      }
    },
    {
      "fullUrl": "urn:uuid:51109821-9ef5-43ff-9edb-1134b943b00a",
      "resource": {
        "resourceType": "Observation",
        "id": "51109821-9ef5-43ff-9edb-1134b943b00a",
        "meta": {
          "profile": [
            "http://hl7.eu/fhir/laboratory/StructureDefinition/Observation-resultslab-eu-lab"
          ]
        },
        "performer": [
          {
            "display": "The Central European Lab"
          }
        ],
        "category": [
          {
            "coding": [
              {
                "system": "http://terminology.hl7.org/CodeSystem/observation-category",
                "code": "laboratory"
              }
            ]
          }
        ],
        "code": {
          "coding": [
            {
              "code": "2339-0",
              "system": "http://loinc.org",
              "display": "Glucose [Mass/volume] in Blood"
            }
          ],
          "text": "Glucose [Mass/volume] in Blood"
        },
        "valueQuantity": {
          "system": "http://unitsofmeasure.org",
          "value": 68.4,
          "unit": "mg/dL",
          "code": "mg/dL"
        },
        "referenceRange": [
          {
            "low": {
              "value": 70,
              "code": "mg/dL",
              "system": "http://unitsofmeasure.org"
            }
          },
          {
            "high": {
              "value": 99,
              "code": "mg/dL",
              "system": "http://unitsofmeasure.org"
            }
          }
        ],
        "interpretation": [
          {
            "coding": [
              {
                "code": "L",
                "system": "http://terminology.hl7.org/CodeSystem/v3-ObservationInterpretation",
                "display": "Low"
              }
            ]
          }
        ],
        "text": {
          "status": "generated",
          "div": "<div xmlns=\"http://www.w3.org/1999/xhtml\"><table class=\"hl7__eu__lab__report\"><tr><th>Test</th><th>28-Aug-2018</th><th>Reference&#xA0;Range</th><th>Unit</th></tr><tr><td>Glucose [Mass/volume] in Blood</td><td>68.4</td><td>70 - 99</td><td>L</td><td>mg/dL</td></tr></table></div>"
        },
        "status": "final",
        "subject": {
          "reference": "urn:uuid:1fc23915-fdd1-4a70-8f8f-f1fcfa1965d9",
          "display": "Khalid Nilsson"
        },
        "effectiveDateTime": "2018-08-27T23:04:23Z",
        "specimen": {
          "reference": "urn:uuid:94d5504b-2341-4e81-a07d-c5a51c2118a1"
        }
      }
    },
    {
      "fullUrl": "urn:uuid:73ac0fa9-4657-4adb-b296-cb15c4d3087b",
      "resource": {
        "resourceType": "Observation",
        "id": "73ac0fa9-4657-4adb-b296-cb15c4d3087b",
        "meta": {
          "profile": [
            "http://hl7.eu/fhir/laboratory/StructureDefinition/Observation-resultslab-eu-lab"
          ]
        },
        "performer": [
          {
            "display": "The Central European Lab"
          }
        ],
        "category": [
          {
            "coding": [
              {
                "system": "http://terminology.hl7.org/CodeSystem/observation-category",
                "code": "laboratory"
              }
            ]
          }
        ],
        "code": {
          "coding": [
            {
              "code": "6299-2",
              "system": "http://loinc.org",
              "display": "Urea nitrogen [Mass/volume] in Blood"
            }
          ],
          "text": "Urea nitrogen [Mass/volume] in Blood"
        },
        "valueQuantity": {
          "system": "http://unitsofmeasure.org",
          "value": 12.5,
          "unit": "mg/dL",
          "code": "mg/dL"
        },
        "referenceRange": [
          {
            "low": {
              "value": 7,
              "code": "mg/dL",
              "system": "http://unitsofmeasure.org"
            }
          },
          {
            "high": {
              "value": 20,
              "code": "mg/dL",
              "system": "http://unitsofmeasure.org"
            }
          }
        ],
        "text": {
          "status": "generated",
          "div": "<div xmlns=\"http://www.w3.org/1999/xhtml\"><table class=\"hl7__eu__lab__report\"><tr><th>Test</th><th>28-Aug-2018</th><th>Reference&#xA0;Range</th><th>Unit</th></tr><tr><td>Urea nitrogen [Mass/volume] in Blood</td><td>12.5</td><td>7 - 20</td><td></td><td>mg/dL</td></tr></table></div>"
        },
        "status": "final",
        "subject": {
          "reference": "urn:uuid:1fc23915-fdd1-4a70-8f8f-f1fcfa1965d9",
          "display": "Khalid Nilsson"
        },
        "effectiveDateTime": "2018-08-27T23:04:23Z",
        "specimen": {
          "reference": "urn:uuid:94d5504b-2341-4e81-a07d-c5a51c2118a1"
        }
      }
    },
    {
      "fullUrl": "urn:uuid:a2d3b2f8-98cf-45f5-bae5-45737ec813c4",
      "resource": {
        "resourceType": "Observation",
        "id": "a2d3b2f8-98cf-45f5-bae5-45737ec813c4",
        "meta": {
          "profile": [
            "http://hl7.eu/fhir/laboratory/StructureDefinition/Observation-resultslab-eu-lab"
          ]
        },
        "performer": [
          {
            "display": "The Central European Lab"
          }
        ],
        "category": [
          {
            "coding": [
              {
                "system": "http://terminology.hl7.org/CodeSystem/observation-category",
                "code": "laboratory"
              }
            ]
          }
        ],
        "code": {
          "coding": [
            {
              "code": "38483-4",
              "system": "http://loinc.org",
              "display": "Creatinine [Mass/volume] in Blood"
            }
          ],
          "text": "Creatinine [Mass/volume] in Blood"
        },
        "valueQuantity": {
          "system": "http://unitsofmeasure.org",
          "value": 0.9,
          "unit": "mg/dL",
          "code": "mg/dL"
        },
        "referenceRange": [
          {
            "low": {
              "value": 0.9,
              "code": "mg/dL",
              "system": "http://unitsofmeasure.org"
            }
          },
          {
            "high": {
              "value": 1.3,
              "code": "mg/dL",
              "system": "http://unitsofmeasure.org"
            }
          }
        ],
        "text": {
          "status": "generated",
          "div": "<div xmlns=\"http://www.w3.org/1999/xhtml\"><table class=\"hl7__eu__lab__report\"><tr><th>Test</th><th>28-Aug-2018</th><th>Reference&#xA0;Range</th><th>Unit</th></tr><tr><td>Creatinine [Mass/volume] in Blood</td><td>0.9</td><td>0.9 - 1.3</td><td></td><td>mg/dL</td></tr></table></div>"
        },
        "status": "final",
        "subject": {
          "reference": "urn:uuid:1fc23915-fdd1-4a70-8f8f-f1fcfa1965d9",
          "display": "Khalid Nilsson"
        },
        "effectiveDateTime": "2018-08-27T23:04:23Z",
        "specimen": {
          "reference": "urn:uuid:94d5504b-2341-4e81-a07d-c5a51c2118a1"
        }
      }
    },
    {
      "fullUrl": "urn:uuid:11acaf64-d2b0-4f30-84fc-e14a96e0a969",
      "resource": {
        "resourceType": "Observation",
        "id": "11acaf64-d2b0-4f30-84fc-e14a96e0a969",
        "meta": {
          "profile": [
            "http://hl7.eu/fhir/laboratory/StructureDefinition/Observation-resultslab-eu-lab"
          ]
        },
        "performer": [
          {
            "display": "The Central European Lab"
          }
        ],
        "category": [
          {
            "coding": [
              {
                "system": "http://terminology.hl7.org/CodeSystem/observation-category",
                "code": "laboratory"
              }
            ]
          }
        ],
        "code": {
          "coding": [
            {
              "code": "49765-1",
              "system": "http://loinc.org",
              "display": "Calcium [Mass/volume] in Blood"
            }
          ],
          "text": "Calcium [Mass/volume] in Blood"
        },
        "valueQuantity": {
          "system": "http://unitsofmeasure.org",
          "value": 10.1,
          "unit": "mg/dL",
          "code": "mg/dL"
        },
        "referenceRange": [
          {
            "low": {
              "value": 8.6,
              "code": "mg/dL",
              "system": "http://unitsofmeasure.org"
            }
          },
          {
            "high": {
              "value": 10.2,
              "code": "mg/dL",
              "system": "http://unitsofmeasure.org"
            }
          }
        ],
        "text": {
          "status": "generated",
          "div": "<div xmlns=\"http://www.w3.org/1999/xhtml\"><table class=\"hl7__eu__lab__report\"><tr><th>Test</th><th>28-Aug-2018</th><th>Reference&#xA0;Range</th><th>Unit</th></tr><tr><td>Calcium [Mass/volume] in Blood</td><td>10.1</td><td>8.6 - 10.2</td><td></td><td>mg/dL</td></tr></table></div>"
        },
        "status": "final",
        "subject": {
          "reference": "urn:uuid:1fc23915-fdd1-4a70-8f8f-f1fcfa1965d9",
          "display": "Khalid Nilsson"
        },
        "effectiveDateTime": "2018-08-27T23:04:23Z",
        "specimen": {
          "reference": "urn:uuid:94d5504b-2341-4e81-a07d-c5a51c2118a1"
        }
      }
    },
    {
      "fullUrl": "urn:uuid:cd012d73-cc8f-461e-9802-bdab7ac4052e",
      "resource": {
        "resourceType": "Observation",
        "id": "cd012d73-cc8f-461e-9802-bdab7ac4052e",
        "meta": {
          "profile": [
            "http://hl7.eu/fhir/laboratory/StructureDefinition/Observation-resultslab-eu-lab"
          ]
        },
        "performer": [
          {
            "display": "The Central European Lab"
          }
        ],
        "category": [
          {
            "coding": [
              {
                "system": "http://terminology.hl7.org/CodeSystem/observation-category",
                "code": "laboratory"
              }
            ]
          }
        ],
        "code": {
          "coding": [
            {
              "code": "2947-0",
              "system": "http://loinc.org",
              "display": "Sodium [Moles/volume] in Blood"
            }
          ],
          "text": "Sodium [Moles/volume] in Blood"
        },
        "valueQuantity": {
          "system": "http://unitsofmeasure.org",
          "value": 137.4,
          "unit": "mmol/L",
          "code": "mmol/L"
        },
        "referenceRange": [
          {
            "low": {
              "value": 135,
              "code": "mmol/L",
              "system": "http://unitsofmeasure.org"
            }
          },
          {
            "high": {
              "value": 145,
              "code": "mmol/L",
              "system": "http://unitsofmeasure.org"
            }
          }
        ],
        "text": {
          "status": "generated",
          "div": "<div xmlns=\"http://www.w3.org/1999/xhtml\"><table class=\"hl7__eu__lab__report\"><tr><th>Test</th><th>28-Aug-2018</th><th>Reference&#xA0;Range</th><th>Unit</th></tr><tr><td>Sodium [Moles/volume] in Blood</td><td>137.4</td><td>135 - 145</td><td></td><td>mmol/L</td></tr></table></div>"
        },
        "status": "final",
        "subject": {
          "reference": "urn:uuid:1fc23915-fdd1-4a70-8f8f-f1fcfa1965d9",
          "display": "Khalid Nilsson"
        },
        "effectiveDateTime": "2018-08-27T23:04:23Z",
        "specimen": {
          "reference": "urn:uuid:94d5504b-2341-4e81-a07d-c5a51c2118a1"
        }
      }
    },
    {
      "fullUrl": "urn:uuid:0c110fa2-b537-4d14-8f99-ae9e92b3a7a8",
      "resource": {
        "resourceType": "Observation",
        "id": "0c110fa2-b537-4d14-8f99-ae9e92b3a7a8",
        "meta": {
          "profile": [
            "http://hl7.eu/fhir/laboratory/StructureDefinition/Observation-resultslab-eu-lab"
          ]
        },
        "performer": [
          {
            "display": "The Central European Lab"
          }
        ],
        "category": [
          {
            "coding": [
              {
                "system": "http://terminology.hl7.org/CodeSystem/observation-category",
                "code": "laboratory"
              }
            ]
          }
        ],
        "code": {
          "coding": [
            {
              "code": "6298-4",
              "system": "http://loinc.org",
              "display": "Potassium [Moles/volume] in Blood"
            }
          ],
          "text": "Potassium [Moles/volume] in Blood"
        },
        "valueQuantity": {
          "system": "http://unitsofmeasure.org",
          "value": 3.7,
          "unit": "mmol/L",
          "code": "mmol/L"
        },
        "referenceRange": [
          {
            "low": {
              "value": 3.5,
              "code": "mmol/L",
              "system": "http://unitsofmeasure.org"
            }
          },
          {
            "high": {
              "value": 5.1,
              "code": "mmol/L",
              "system": "http://unitsofmeasure.org"
            }
          }
        ],
        "text": {
          "status": "generated",
          "div": "<div xmlns=\"http://www.w3.org/1999/xhtml\"><table class=\"hl7__eu__lab__report\"><tr><th>Test</th><th>28-Aug-2018</th><th>Reference&#xA0;Range</th><th>Unit</th></tr><tr><td>Potassium [Moles/volume] in Blood</td><td>3.7</td><td>3.5 - 5.1</td><td></td><td>mmol/L</td></tr></table></div>"
        },
        "status": "final",
        "subject": {
          "reference": "urn:uuid:1fc23915-fdd1-4a70-8f8f-f1fcfa1965d9",
          "display": "Khalid Nilsson"
        },
        "effectiveDateTime": "2018-08-27T23:04:23Z",
        "specimen": {
          "reference": "urn:uuid:94d5504b-2341-4e81-a07d-c5a51c2118a1"
        }
      }
    },
    {
      "fullUrl": "urn:uuid:fd41a5e6-ccd6-4b3e-8f33-52813cd61f8e",
      "resource": {
        "resourceType": "Observation",
        "id": "fd41a5e6-ccd6-4b3e-8f33-52813cd61f8e",
        "meta": {
          "profile": [
            "http://hl7.eu/fhir/laboratory/StructureDefinition/Observation-resultslab-eu-lab"
          ]
        },
        "performer": [
          {
            "display": "The Central European Lab"
          }
        ],
        "category": [
          {
            "coding": [
              {
                "system": "http://terminology.hl7.org/CodeSystem/observation-category",
                "code": "laboratory"
              }
            ]
          }
        ],
        "code": {
          "coding": [
            {
              "code": "2069-3",
              "system": "http://loinc.org",
              "display": "Chloride [Moles/volume] in Blood"
            }
          ],
          "text": "Chloride [Moles/volume] in Blood"
        },
        "valueQuantity": {
          "system": "http://unitsofmeasure.org",
          "value": 104.9,
          "unit": "mmol/L",
          "code": "mmol/L"
        },
        "referenceRange": [
          {
            "low": {
              "value": 98,
              "code": "mmol/L",
              "system": "http://unitsofmeasure.org"
            }
          },
          {
            "high": {
              "value": 108,
              "code": "mmol/L",
              "system": "http://unitsofmeasure.org"
            }
          }
        ],
        "text": {
          "status": "generated",
          "div": "<div xmlns=\"http://www.w3.org/1999/xhtml\"><table class=\"hl7__eu__lab__report\"><tr><th>Test</th><th>28-Aug-2018</th><th>Reference&#xA0;Range</th><th>Unit</th></tr><tr><td>Chloride [Moles/volume] in Blood</td><td>104.9</td><td>98 - 108</td><td></td><td>mmol/L</td></tr></table></div>"
        },
        "status": "final",
        "subject": {
          "reference": "urn:uuid:1fc23915-fdd1-4a70-8f8f-f1fcfa1965d9",
          "display": "Khalid Nilsson"
        },
        "effectiveDateTime": "2018-08-27T23:04:23Z",
        "specimen": {
          "reference": "urn:uuid:94d5504b-2341-4e81-a07d-c5a51c2118a1"
        }
      }
    },
    {
      "fullUrl": "urn:uuid:e5df909a-79b8-4be3-98b2-b7dc8788fb9d",
      "resource": {
        "resourceType": "Observation",
        "id": "e5df909a-79b8-4be3-98b2-b7dc8788fb9d",
        "meta": {
          "profile": [
            "http://hl7.eu/fhir/laboratory/StructureDefinition/Observation-resultslab-eu-lab"
          ]
        },
        "performer": [
          {
            "display": "The Central European Lab"
          }
        ],
        "category": [
          {
            "coding": [
              {
                "system": "http://terminology.hl7.org/CodeSystem/observation-category",
                "code": "laboratory"
              }
            ]
          }
        ],
        "code": {
          "coding": [
            {
              "code": "20565-8",
              "system": "http://loinc.org",
              "display": "Carbon dioxide, total [Moles/volume] in Blood"
            }
          ],
          "text": "Carbon dioxide, total [Moles/volume] in Blood"
        },
        "valueQuantity": {
          "system": "http://unitsofmeasure.org",
          "value": 24.4,
          "unit": "mmol/L",
          "code": "mmol/L"
        },
        "referenceRange": [
          {
            "low": {
              "value": 22,
              "code": "mmol/L",
              "system": "http://unitsofmeasure.org"
            }
          },
          {
            "high": {
              "value": 29,
              "code": "mmol/L",
              "system": "http://unitsofmeasure.org"
            }
          }
        ],
        "text": {
          "status": "generated",
          "div": "<div xmlns=\"http://www.w3.org/1999/xhtml\"><table class=\"hl7__eu__lab__report\"><tr><th>Test</th><th>28-Aug-2018</th><th>Reference&#xA0;Range</th><th>Unit</th></tr><tr><td>Carbon dioxide, total [Moles/volume] in Blood</td><td>24.4</td><td>22 - 29</td><td></td><td>mmol/L</td></tr></table></div>"
        },
        "status": "final",
        "subject": {
          "reference": "urn:uuid:1fc23915-fdd1-4a70-8f8f-f1fcfa1965d9",
          "display": "Khalid Nilsson"
        },
        "effectiveDateTime": "2018-08-27T23:04:23Z",
        "specimen": {
          "reference": "urn:uuid:94d5504b-2341-4e81-a07d-c5a51c2118a1"
        }
      }
    },
    {
      "fullUrl": "urn:uuid:86b62172-493b-4a0b-b6d2-073b6333dc11",
      "resource": {
        "resourceType": "Device",
        "id": "86b62172-493b-4a0b-b6d2-073b6333dc11",
        "deviceName": [
          {
            "name": "SYNDERAI Synthetic Generator",
            "type": "manufacturer-name"
          }
        ],
        "version": [
          {
            "value": "5.0"
          }
        ],
        "text": {
          "status": "generated",
          "div": "<div xmlns=\"http://www.w3.org/1999/xhtml\">SYNDERAI Synthetic Generator v5.0</div>"
        },
        "status": "active\"",
        "distinctIdentifier": "synderai-generator-50",
        "manufacturer": "SYNDERAI Project"
      }
    },
    {
      "fullUrl": "urn:uuid:3f9ec556-feb4-4436-8b18-2412386cf248",
      "resource": {
        "resourceType": "Provenance",
        "id": "3f9ec556-feb4-4436-8b18-2412386cf248",
        "target": [
          {
            "reference": "Patient/1fc23915-fdd1-4a70-8f8f-f1fcfa1965d9"
          },
          {
            "reference": "Bundle/a2ade076-5cbe-4237-a31c-a768ee882599"
          },
          {
            "reference": "Composition/cc6b820d-ed24-4431-9c81-570847dc37f3"
          },
          {
            "reference": "PractitionerRole/cd2ead44-0af4-403d-8154-b97774edfede"
          },
          {
            "reference": "Practitioner/7633b990-eaa9-41a2-ba64-bec6ff767ec3"
          },
          {
            "reference": "PractitionerRole/2bc3e69b-c8f9-4a5f-9648-2060a2efdc19"
          },
          {
            "reference": "Organization/b3bf30c2-1ac2-480c-9d80-006e026c73cd"
          }
        ],
        "activity": {
          "text": "Synthetic Example Data Generation"
        },
        "policy": [
          "https://synderai.net/synderai-synthetic-data-policy"
        ],
        "agent": [
          {
            "type": {
              "text": "author"
            },
            "who": {
              "reference": "Device/86b62172-493b-4a0b-b6d2-073b6333dc11"
            }
          }
        ],
        "reason": [
          {
            "text": "Interoperability Testing and Training (non-clinical use)"
          }
        ],
        "text": {
          "status": "generated",
          "div": "<div xmlns=\"http://www.w3.org/1999/xhtml\">Provenance for SYNDERAI Synthetic Example Data Resource</div>"
        },
        "recorded": "2018-08-28T01:04:23Z"
      }
    },
    {
      "fullUrl": "urn:uuid:cd2ead44-0af4-403d-8154-b97774edfede",
      "resource": {
        "resourceType": "PractitionerRole",
        "id": "cd2ead44-0af4-403d-8154-b97774edfede",
        "meta": {
          "profile": [
            "http://hl7.eu/fhir/base/StructureDefinition/practitionerRole-eu"
          ]
        },
        "text": {
          "status": "generated",
          "div": "<div xmlns=\"http://www.w3.org/1999/xhtml\">Laboratory Role Id: cd2ead44-0af4-403d-8154-b97774edfede</div>"
        },
        "practitioner": {
          "reference": "urn:uuid:7633b990-eaa9-41a2-ba64-bec6ff767ec3"
        }
      }
    },
    {
      "fullUrl": "urn:uuid:7633b990-eaa9-41a2-ba64-bec6ff767ec3",
      "resource": {
        "resourceType": "Practitioner",
        "id": "7633b990-eaa9-41a2-ba64-bec6ff767ec3",
        "meta": {
          "profile": [
            "http://hl7.eu/fhir/base/StructureDefinition/practitioner-eu"
          ]
        },
        "identifier": [
          {
            "assigner": {
              "display": "HL7 Europe"
            },
            "system": "urn:oid:2.16.840.1.113883.2.51.999",
            "value": "226329b9-b4e8-456f-b2b5-2cb29d2f0ec0"
          }
        ],
        "name": [
          {
            "prefix": [
              "dr"
            ],
            "given": [
              "Ex"
            ],
            "family": "Ample"
          }
        ],
        "address": [
          {
            "line": [
              "Laboratoire Central Européenne",
              "Boulevard du Jardin Botanique 32"
            ],
            "postalCode": "1000",
            "city": "Brussels",
            "country": "Belgium"
          }
        ],
        "text": {
          "status": "generated",
          "div": "<div xmlns=\"http://www.w3.org/1999/xhtml\">Laboratory: Laboratoire Central Européenne, 1000 Brussels, Belgium</div>"
        }
      }
    }
  ],
  "type": "document",
  "timestamp": "2018-08-28T01:04:23Z"
}
