{
  "resourceType": "Bundle",
  "id": "f8e5f529-b5e9-490a-80e4-5c26398f3acf",
  "meta": {
    "profile": [
      "http://hl7.eu/fhir/laboratory/StructureDefinition/Bundle-eu-lab"
    ]
  },
  "identifier": {
    "assigner": {
      "display": "HL7 Europe"
    },
    "system": "urn:oid:2.16.840.1.113883.2.51.999",
    "value": "2f6f35cd-6f55-4592-8e93-37b894c7e582"
  },
  "entry": [
    {
      "fullUrl": "urn:uuid:784cc07c-e682-4e59-84f3-20848b1f4e77",
      "resource": {
        "resourceType": "Composition",
        "id": "784cc07c-e682-4e59-84f3-20848b1f4e77",
        "meta": {
          "profile": [
            "http://hl7.eu/fhir/laboratory/StructureDefinition/Composition-eu-lab"
          ]
        },
        "identifier": {
          "assigner": {
            "display": "HL7 Europe"
          },
          "system": "urn:oid:2.16.840.1.113883.2.51.999",
          "value": "baf16cd0-d893-4ede-8312-07cd00a607e4"
        },
        "author": [
          {
            "reference": "urn:uuid:0fa03f27-d471-45eb-818d-e4b8e07dcc67"
          }
        ],
        "category": [
          {
            "coding": [
              {
                "code": "26436-6",
                "system": "http://loinc.org",
                "display": "Laboratory studies (set)"
              }
            ]
          }
        ],
        "type": {
          "coding": [
            {
              "code": "11502-2",
              "system": "http://loinc.org",
              "display": "Laboratory report"
            }
          ],
          "text": "Laboratory Report"
        },
        "section": [
          {
            "code": {
              "coding": [
                {
                  "code": "26436-6",
                  "system": "http://loinc.org",
                  "display": "Laboratory studies (set)"
                }
              ],
              "text": "Laboratory studies"
            },
            "section": [
              {
                "code": {
                  "coding": [
                    {
                      "code": "$18719-5",
                      "system": "http://loinc.org",
                      "display": "Chemistry studies (set)"
                    }
                  ],
                  "text": "Chemistry"
                },
                "entry": [
                  {
                    "reference": "urn:uuid:06681833-8b44-4693-801d-bc91c0db6afe"
                  },
                  {
                    "reference": "urn:uuid:08aa0da6-23d7-4ff9-b140-5c3e6da79d4c"
                  },
                  {
                    "reference": "urn:uuid:5aabf42f-541c-40f6-8009-339fa3a5857e"
                  },
                  {
                    "reference": "urn:uuid:69d6f8e1-957c-404b-a568-b572c18fe673"
                  },
                  {
                    "reference": "urn:uuid:c4d80fab-c7cb-44a2-8083-bec05e0d38e9"
                  },
                  {
                    "reference": "urn:uuid:cb7bce59-1577-4b23-ab2c-578109130321"
                  },
                  {
                    "reference": "urn:uuid:65dc885e-7b17-483c-b96f-4b5736bf9287"
                  },
                  {
                    "reference": "urn:uuid:2622a056-b1d1-4bc0-a356-1fa525387fb4"
                  },
                  {
                    "reference": "urn:uuid:865e4ff6-e1d5-4c22-8294-b2bcecc76a6f"
                  },
                  {
                    "reference": "urn:uuid:7988150d-3bb8-485c-b754-06d73cdcc175"
                  },
                  {
                    "reference": "urn:uuid:d7311d88-fee1-4ad3-8339-7affdf37da0f"
                  },
                  {
                    "reference": "urn:uuid:023f7022-17dc-4285-92bd-7d4f2ad0201b"
                  },
                  {
                    "reference": "urn:uuid:31e4e8d1-0e1f-491b-b3b3-d77e6c0d2f30"
                  },
                  {
                    "reference": "urn:uuid:fb3dd754-fe6a-4241-b7ca-bb3d696ea524"
                  },
                  {
                    "reference": "urn:uuid:7bcd263f-6194-48d3-a287-c379e937896d"
                  },
                  {
                    "reference": "urn:uuid:872339bb-2d37-403e-99cd-e41dedfcfb5f"
                  }
                ],
                "text": {
                  "status": "generated",
                  "div": "<div xmlns=\"http://www.w3.org/1999/xhtml\"><h3>Chemistry</h3><table class=\"hl7__eu__lab__report\"><thead><tr><th>Test</th><th>14-FEB-2016</th><th>Reference&#xA0;Range</th><th>Unit</th></tr></thead><tbody><tr><td>Glucose [Mass/volume] in Blood</td><td>75.8</td><td>70 - 140</td><td>mg/dL</td></tr><tr><td>Urea nitrogen [Mass/volume] in Blood</td><td>18.8</td><td>7 - 25</td><td>mg/dL</td></tr><tr><td>Creatinine [Mass/volume] in Blood</td><td><strong>3.0 H</strong></td><td>0.6 - 1.1</td><td>mg/dL</td></tr><tr><td>Calcium [Mass/volume] in Blood</td><td>8.7</td><td>8.6 - 10.4</td><td>mg/dL</td></tr><tr><td>Sodium [Moles/volume] in Blood</td><td>139.4</td><td>135 - 145</td><td>mmol/L</td></tr><tr><td>Potassium [Moles/volume] in Blood</td><td><strong>5.2 H</strong></td><td>3.5 - 5.1</td><td>mmol/L</td></tr><tr><td>Chloride [Moles/volume] in Blood</td><td>104.9</td><td>98 - 110</td><td>mmol/L</td></tr><tr><td>Carbon dioxide, total [Moles/volume] in Blood</td><td><strong>20.5 L</strong></td><td>22 - 29</td><td>mmol/L</td></tr><tr><td>Protein [Mass/volume] in Serum or Plasma</td><td><strong>6.4 L</strong></td><td>6.6 - 8.3</td><td>g/dL</td></tr><tr><td>Albumin [Mass/volume] in Serum or Plasma</td><td><strong>5.2 H</strong></td><td>3.5 - 5</td><td>g/dL</td></tr><tr><td>Globulin [Mass/volume] in Serum by calculation</td><td>2.9</td><td>2 - 3.5</td><td>g/L</td></tr><tr><td>Bilirubin.total [Mass/volume] in Serum or Plasma</td><td><strong>0.2 L</strong></td><td>0.3 - 1.2</td><td>mg/dL</td></tr><tr><td>Alkaline phosphatase [Enzymatic activity/volume] in Serum or Plasma</td><td>87.5</td><td>39 - 141</td><td>U/L</td></tr><tr><td>Alanine aminotransferase [Enzymatic activity/volume] in Serum or Plasma</td><td><strong>41.7 H</strong></td><td>7 - 40</td><td>U/L</td></tr><tr><td>Aspartate aminotransferase [Enzymatic activity/volume] in Serum or Plasma</td><td>23.3</td><td>10 - 32</td><td>U/L</td></tr><tr><td>Ketones [Presence] in Urine by Test strip</td><td>Urine ketone test = +++</td><td></td><td></td></tr></tbody></table></div>"
                },
                "title": "Chemistry"
              },
              {
                "code": {
                  "coding": [
                    {
                      "code": "$18729-4",
                      "system": "http://loinc.org",
                      "display": "Urinalysis studies (set)"
                    }
                  ],
                  "text": "Urinalysis"
                },
                "entry": [
                  {
                    "reference": "urn:uuid:50c7c64e-421b-4798-a0fa-6cfd878a464b"
                  },
                  {
                    "reference": "urn:uuid:cafd887b-b54f-45ff-952b-494ad6df176f"
                  },
                  {
                    "reference": "urn:uuid:4ca70518-d1d0-43dc-ac27-82729c295e5d"
                  },
                  {
                    "reference": "urn:uuid:df7c8fea-0e20-465e-bcae-6b1fc233df9c"
                  },
                  {
                    "reference": "urn:uuid:24c9344d-f5fe-47ad-99bb-f41eeffeb540"
                  },
                  {
                    "reference": "urn:uuid:9a0997f8-9846-479a-bfd3-da62c120c4d8"
                  },
                  {
                    "reference": "urn:uuid:49a369d7-73ff-456a-8423-edc2fc3e9388"
                  },
                  {
                    "reference": "urn:uuid:5d4a74c3-7fc2-4f4f-ae8e-f6eb7d28487e"
                  },
                  {
                    "reference": "urn:uuid:e88ee387-4011-4764-aee3-add8035a71b0"
                  },
                  {
                    "reference": "urn:uuid:b8d31480-812d-42fb-b5fd-07594d365683"
                  },
                  {
                    "reference": "urn:uuid:1adeafb0-9e38-45fe-8397-8ffa61ea1680"
                  },
                  {
                    "reference": "urn:uuid:d1d702c2-7697-4021-acaf-2f69c2993f6b"
                  }
                ],
                "text": {
                  "status": "generated",
                  "div": "<div xmlns=\"http://www.w3.org/1999/xhtml\"><h3>Urinalysis</h3><table class=\"hl7__eu__lab__report\"><thead><tr><th>Test</th><th>14-FEB-2016</th><th>Reference&#xA0;Range</th><th>Unit</th></tr></thead><tbody><tr><td>Glucose [Mass/volume] in Urine by Test strip</td><td><strong>1.8 H</strong></td><td>0 - 0.8</td><td>mg/dL</td></tr><tr><td>Glucose [Presence] in Urine by Test strip</td><td>++</td><td></td><td></td></tr><tr><td>Bilirubin.total [Mass/volume] in Urine by Test strip</td><td>1.0</td><td>0 - 1</td><td>mg/dL</td></tr><tr><td>Bilirubin.total [Presence] in Urine by Test strip</td><td>Finding of bilirubin in urine</td><td></td><td></td></tr><tr><td>Ketones [Mass/volume] in Urine by Test strip</td><td><strong>17.5 H</strong></td><td>0 - 4</td><td>mg/dL</td></tr><tr><td>Specific gravity of Urine by Test strip</td><td><strong>1.0 L</strong></td><td>1.005 - 1.03</td><td>{nominal}</td></tr><tr><td>pH of Urine by Test strip</td><td>6.0</td><td>4.5 - 7</td><td>pH</td></tr><tr><td>Protein [Mass/volume] in Urine by Test strip</td><td><strong>319.7 H</strong></td><td>0 - 145</td><td>mg/dL</td></tr><tr><td>Protein [Presence] in Urine by Test strip</td><td>Urine protein test = +++</td><td></td><td></td></tr><tr><td>Nitrite [Presence] in Urine by Test strip</td><td>Urine nitrite negative</td><td></td><td></td></tr><tr><td>Hemoglobin [Presence] in Urine by Test strip</td><td>Urine blood test = negative</td><td></td><td></td></tr><tr><td>Leukocyte esterase [Presence] in Urine by Test strip</td><td>Urine leukocyte test negative</td><td></td><td></td></tr></tbody></table></div>"
                },
                "title": "Urinalysis"
              },
              {
                "code": {
                  "coding": [
                    {
                      "code": "$LP7846-1",
                      "system": "http://loinc.org",
                      "display": "Specimen information"
                    }
                  ],
                  "text": "Specimen information"
                },
                "entry": [
                  {
                    "reference": "urn:uuid:9db1e0b0-5275-45d7-96b8-2d96a1c09a9b"
                  },
                  {
                    "reference": "urn:uuid:9c5c9682-b025-4807-a03b-01c66e5facb5"
                  },
                  {
                    "reference": "urn:uuid:9beae7fe-dc3b-4cb6-95ab-abd29a4fc22f"
                  },
                  {
                    "reference": "urn:uuid:370ecdfa-c764-4697-bf90-971b0106e7bd"
                  }
                ],
                "text": {
                  "status": "generated",
                  "div": "<div xmlns=\"http://www.w3.org/1999/xhtml\"><h3>Specimen information</h3><table class=\"hl7__eu__lab__report\"><thead><tr><th>Test</th><th>14-FEB-2016</th><th>Specimen</th><th></th></tr></thead><tbody><tr><td>Appearance of Urine</td><td>Cloudy urine</td><td>Urine</td><td></td></tr><tr><td>Odor of Urine</td><td>Urine smell ammoniacal</td><td>Urine</td><td></td></tr><tr><td>Clarity of Urine</td><td>Translucent</td><td>Urine</td><td></td></tr><tr><td>Color of Urine</td><td>Brown color</td><td>Urine</td><td></td></tr></tbody></table></div>"
                },
                "title": "Specimen information"
              }
            ],
            "title": "Laboratory Report"
          },
          {
            "text": {
              "status": "generated",
              "div": "<div xmlns=\"http://www.w3.org/1999/xhtml\"><h3>Annotation</h3><table class=\"hl7__eu__lab__report\"><tr><th>Conclusion and Recommendations based on this report and previous findings known to us</th></tr><tr><td>The patient shows markedly elevated creatinine, mild hyperkalemia, low total CO₂, and significant proteinuria with glycosuria and ketonuria, suggesting impaired renal function, possible acute or chronic kidney disease, and metabolic derangement (possibly diabetic ketoacidosis). Urine findings (cloudy, brown, low specific gravity) further support renal involvement. Mildly elevated ALT may indicate hepatic stress. Immediate clinical evaluation is recommended.</td></tr></table></div>"
            },
            "code": {
              "coding": [
                {
                  "system": "http://loinc.org",
                  "code": "48767-8",
                  "display": "Annotation comment"
                }
              ]
            },
            "title": "Annotation comment"
          }
        ],
        "status": "final",
        "subject": {
          "reference": "urn:uuid:8796cf04-4feb-45d0-adaf-70ded22b7d49",
          "display": "Iva Kratochvílová"
        },
        "date": "2016-02-14T01:30:29Z",
        "title": "Laboratory Report",
        "confidentiality": "N"
      }
    },
    {
      "fullUrl": "urn:uuid:09369dfd-4a52-4ba8-9359-3f6ee37b4fd1",
      "resource": {
        "resourceType": "DiagnosticReport",
        "id": "09369dfd-4a52-4ba8-9359-3f6ee37b4fd1",
        "meta": {
          "profile": [
            "http://hl7.eu/fhir/laboratory/StructureDefinition/DiagnosticReport-eu-lab"
          ]
        },
        "identifier": [
          {
            "assigner": {
              "display": "HL7 Europe"
            },
            "system": "urn:oid:2.16.840.1.113883.2.51.999",
            "value": "38bf3e46-fddc-47a1-8cd1-8ca6e0054bcc"
          }
        ],
        "extension": [
          {
            "url": "http://hl7.org/fhir/5.0/StructureDefinition/extension-DiagnosticReport.composition",
            "valueReference": {
              "reference": "urn:uuid:baf16cd0-d893-4ede-8312-07cd00a607e4"
            }
          }
        ],
        "category": [
          {
            "coding": [
              {
                "code": "26436-6",
                "system": "http://loinc.org",
                "display": "Laboratory studies (set)"
              }
            ]
          }
        ],
        "specimen": [
          {
            "reference": "urn:uuid:4fe4df5d-f6c9-4247-977f-59b4e3239c46"
          },
          {
            "reference": "urn:uuid:24018d3c-7752-48df-8e9e-707480751aa9"
          },
          {
            "reference": "urn:uuid:16d7a5c7-1d6b-4ab0-af0a-945b7939c9e8"
          },
          {
            "reference": "urn:uuid:40f788de-4d0e-4046-a97a-34c105c148f2"
          }
        ],
        "result": [
          {
            "reference": "urn:uuid:06681833-8b44-4693-801d-bc91c0db6afe"
          },
          {
            "reference": "urn:uuid:08aa0da6-23d7-4ff9-b140-5c3e6da79d4c"
          },
          {
            "reference": "urn:uuid:5aabf42f-541c-40f6-8009-339fa3a5857e"
          },
          {
            "reference": "urn:uuid:69d6f8e1-957c-404b-a568-b572c18fe673"
          },
          {
            "reference": "urn:uuid:c4d80fab-c7cb-44a2-8083-bec05e0d38e9"
          },
          {
            "reference": "urn:uuid:cb7bce59-1577-4b23-ab2c-578109130321"
          },
          {
            "reference": "urn:uuid:65dc885e-7b17-483c-b96f-4b5736bf9287"
          },
          {
            "reference": "urn:uuid:2622a056-b1d1-4bc0-a356-1fa525387fb4"
          },
          {
            "reference": "urn:uuid:865e4ff6-e1d5-4c22-8294-b2bcecc76a6f"
          },
          {
            "reference": "urn:uuid:7988150d-3bb8-485c-b754-06d73cdcc175"
          },
          {
            "reference": "urn:uuid:d7311d88-fee1-4ad3-8339-7affdf37da0f"
          },
          {
            "reference": "urn:uuid:023f7022-17dc-4285-92bd-7d4f2ad0201b"
          },
          {
            "reference": "urn:uuid:31e4e8d1-0e1f-491b-b3b3-d77e6c0d2f30"
          },
          {
            "reference": "urn:uuid:fb3dd754-fe6a-4241-b7ca-bb3d696ea524"
          },
          {
            "reference": "urn:uuid:7bcd263f-6194-48d3-a287-c379e937896d"
          },
          {
            "reference": "urn:uuid:9db1e0b0-5275-45d7-96b8-2d96a1c09a9b"
          },
          {
            "reference": "urn:uuid:9c5c9682-b025-4807-a03b-01c66e5facb5"
          },
          {
            "reference": "urn:uuid:9beae7fe-dc3b-4cb6-95ab-abd29a4fc22f"
          },
          {
            "reference": "urn:uuid:370ecdfa-c764-4697-bf90-971b0106e7bd"
          },
          {
            "reference": "urn:uuid:50c7c64e-421b-4798-a0fa-6cfd878a464b"
          },
          {
            "reference": "urn:uuid:cafd887b-b54f-45ff-952b-494ad6df176f"
          },
          {
            "reference": "urn:uuid:4ca70518-d1d0-43dc-ac27-82729c295e5d"
          },
          {
            "reference": "urn:uuid:df7c8fea-0e20-465e-bcae-6b1fc233df9c"
          },
          {
            "reference": "urn:uuid:24c9344d-f5fe-47ad-99bb-f41eeffeb540"
          },
          {
            "reference": "urn:uuid:872339bb-2d37-403e-99cd-e41dedfcfb5f"
          },
          {
            "reference": "urn:uuid:9a0997f8-9846-479a-bfd3-da62c120c4d8"
          },
          {
            "reference": "urn:uuid:49a369d7-73ff-456a-8423-edc2fc3e9388"
          },
          {
            "reference": "urn:uuid:5d4a74c3-7fc2-4f4f-ae8e-f6eb7d28487e"
          },
          {
            "reference": "urn:uuid:e88ee387-4011-4764-aee3-add8035a71b0"
          },
          {
            "reference": "urn:uuid:b8d31480-812d-42fb-b5fd-07594d365683"
          },
          {
            "reference": "urn:uuid:1adeafb0-9e38-45fe-8397-8ffa61ea1680"
          },
          {
            "reference": "urn:uuid:d1d702c2-7697-4021-acaf-2f69c2993f6b"
          }
        ],
        "status": "registered",
        "code": {
          "coding": [
            {
              "code": "11502-2",
              "system": "http://loinc.org",
              "display": "Laboratory report"
            }
          ]
        },
        "subject": {
          "reference": "urn:uuid:8796cf04-4feb-45d0-adaf-70ded22b7d49",
          "display": "Iva Kratochvílová"
        }
      }
    },
    {
      "fullUrl": "urn:uuid:8796cf04-4feb-45d0-adaf-70ded22b7d49",
      "resource": {
        "resourceType": "Patient",
        "id": "8796cf04-4feb-45d0-adaf-70ded22b7d49",
        "meta": {
          "security": [
            {
              "system": "http://terminology.hl7.org/CodeSystem/v3-ActReason",
              "code": "HTEST"
            },
            {
              "system": "http://terminology.hl7.org/CodeSystem/v3-ActReason",
              "code": "TRAIN"
            }
          ],
          "tag": [
            {
              "system": "https://synderai.net/fhir/CodeSystem/tags",
              "code": "synthetic",
              "display": "SYNDERAI Synthetic data"
            }
          ],
          "profile": [
            "http://hl7.eu/fhir/base/StructureDefinition/patient-eu-core"
          ]
        },
        "identifier": [
          {
            "type": {
              "coding": [
                {
                  "code": "PT",
                  "system": "http://terminology.hl7.org/CodeSystem/v2-0203"
                }
              ]
            },
            "system": "http://ec.europa.eu/identifier/eci",
            "value": "4380-389488-0"
          },
          {
            "type": {
              "coding": [
                {
                  "code": "MR",
                  "system": "http://terminology.hl7.org/CodeSystem/v2-0203"
                }
              ]
            },
            "system": "http://local.setting.eu/identifier",
            "value": "f8f9ebdc-03dd-2fc0-819c-affa4ffd7f67"
          }
        ],
        "name": [
          {
            "family": "Kratochvílová"
          },
          {
            "given": [
              "Iva"
            ]
          },
          {
            "text": "Iva Kratochvílová"
          }
        ],
        "address": [
          {
            "line": [
              "Žofie Podlipské 4"
            ],
            "use": "home",
            "type": "physical",
            "postalCode": "27324",
            "city": "Postoloprty",
            "country": "Czechia"
          }
        ],
        "telecom": [
          {
            "system": "phone",
            "value": "00420 607 985 072"
          }
        ],
        "extension": [
          {
            "url": "http://hl7.org/fhir/StructureDefinition/patient-nationality",
            "valueCodeableConcept": {
              "coding": [
                {
                  "code": "CZ",
                  "system": "http://hl7.org/fhir/ValueSet/country"
                }
              ]
            }
          }
        ],
        "text": {
          "status": "generated",
          "div": "<div xmlns=\"http://www.w3.org/1999/xhtml\"><table class=\"hl7__ips\"><tr><td>Iva Kratochvílová</td><td>female</td><td>17-Sep-1964</td></tr></table></div>"
        },
        "gender": "female",
        "birthDate": "1964-09-17"
      }
    },
    {
      "fullUrl": "urn:uuid:bca126b4-a19a-4313-b424-e85327d8a80c",
      "resource": {
        "resourceType": "ServiceRequest",
        "id": "bca126b4-a19a-4313-b424-e85327d8a80c",
        "meta": {
          "profile": [
            "http://hl7.eu/fhir/laboratory/StructureDefinition/ServiceRequest-eu-lab"
          ]
        },
        "identifier": [
          {
            "system": "http://example.org",
            "value": "bdd869c1-613b-4168-a418-072eaf978286"
          }
        ],
        "specimen": [
          {
            "reference": "urn:uuid:4fe4df5d-f6c9-4247-977f-59b4e3239c46"
          },
          {
            "reference": "urn:uuid:24018d3c-7752-48df-8e9e-707480751aa9"
          },
          {
            "reference": "urn:uuid:16d7a5c7-1d6b-4ab0-af0a-945b7939c9e8"
          },
          {
            "reference": "urn:uuid:40f788de-4d0e-4046-a97a-34c105c148f2"
          }
        ],
        "reasonCode": [
          {
            "coding": [
              {
                "code": "431856006",
                "system": "http://snomed.info/sct",
                "display": "Chronic kidney disease stage 2"
              }
            ]
          },
          {
            "coding": [
              {
                "code": "431855005",
                "system": "http://snomed.info/sct",
                "display": "Chronic kidney disease stage 1"
              }
            ]
          },
          {
            "coding": [
              {
                "code": "237602007",
                "system": "http://snomed.info/sct",
                "display": "Metabolic syndrome X"
              }
            ]
          },
          {
            "coding": [
              {
                "code": "91302008",
                "system": "http://snomed.info/sct",
                "display": "Sepsis"
              }
            ]
          },
          {
            "coding": [
              {
                "code": "271737000",
                "system": "http://snomed.info/sct",
                "display": "Anemia"
              }
            ]
          },
          {
            "coding": [
              {
                "code": "15777000",
                "system": "http://snomed.info/sct",
                "display": "Prediabetes"
              }
            ]
          },
          {
            "coding": [
              {
                "code": "157141000119108",
                "system": "http://snomed.info/sct",
                "display": "Proteinuria due to type 2 diabetes mellitus"
              }
            ]
          },
          {
            "coding": [
              {
                "code": "90781000119102",
                "system": "http://snomed.info/sct",
                "display": "Microalbuminuria due to type 2 diabetes mellitus"
              }
            ]
          },
          {
            "coding": [
              {
                "code": "239872002",
                "system": "http://snomed.info/sct",
                "display": "Osteoarthritis of hip"
              }
            ]
          },
          {
            "coding": [
              {
                "code": "40055000",
                "system": "http://snomed.info/sct",
                "display": "Chronic sinusitis"
              }
            ]
          },
          {
            "coding": [
              {
                "code": "127013003",
                "system": "http://snomed.info/sct",
                "display": "Disorder of kidney due to diabetes mellitus"
              }
            ]
          },
          {
            "coding": [
              {
                "code": "59621000",
                "system": "http://snomed.info/sct",
                "display": "Essential hypertension"
              }
            ]
          }
        ],
        "status": "active",
        "intent": "order",
        "code": {
          "coding": [
            {
              "code": "108252007",
              "system": "http://snomed.info/sct",
              "display": "Laboratory procedure"
            }
          ]
        },
        "subject": {
          "reference": "urn:uuid:8796cf04-4feb-45d0-adaf-70ded22b7d49",
          "display": "Iva Kratochvílová"
        },
        "requester": {
          "reference": "urn:uuid:c02340b9-877f-43e7-88b5-8ea8223159be"
        }
      }
    },
    {
      "fullUrl": "urn:uuid:c02340b9-877f-43e7-88b5-8ea8223159be",
      "resource": {
        "resourceType": "PractitionerRole",
        "id": "c02340b9-877f-43e7-88b5-8ea8223159be",
        "meta": {
          "profile": [
            "http://hl7.eu/fhir/base/StructureDefinition/practitionerRole-eu"
          ]
        },
        "text": {
          "status": "generated",
          "div": "<div xmlns=\"http://www.w3.org/1999/xhtml\">Provider Role Id: c02340b9-877f-43e7-88b5-8ea8223159be</div>"
        },
        "organization": {
          "reference": "urn:uuid:c74a3d3b-2432-4790-850b-c8ea28d5269d"
        }
      }
    },
    {
      "fullUrl": "urn:uuid:c74a3d3b-2432-4790-850b-c8ea28d5269d",
      "resource": {
        "resourceType": "Organization",
        "id": "c74a3d3b-2432-4790-850b-c8ea28d5269d",
        "meta": {
          "profile": [
            "http://hl7.eu/fhir/base/StructureDefinition/organization-eu"
          ]
        },
        "identifier": [
          {
            "assigner": {
              "display": "HL7 Europe"
            },
            "system": "urn:oid:2.16.840.1.113883.2.51.999",
            "value": "9b7bdf62-4287-424b-afcf-372d71daefee"
          }
        ],
        "address": [
          {
            "city": "Kadaň",
            "postalCode": "432 01",
            "country": "Czechia"
          }
        ],
        "text": {
          "status": "generated",
          "div": "<div xmlns=\"http://www.w3.org/1999/xhtml\">Provider Organization: Nemocnice s poliklinikou Kadaň</div>"
        },
        "name": "Nemocnice s poliklinikou Kadaň"
      }
    },
    {
      "fullUrl": "urn:uuid:4fe4df5d-f6c9-4247-977f-59b4e3239c46",
      "resource": {
        "resourceType": "Specimen",
        "id": "4fe4df5d-f6c9-4247-977f-59b4e3239c46",
        "meta": {
          "profile": [
            "http://hl7.eu/fhir/laboratory/StructureDefinition/Specimen-eu-lab"
          ]
        },
        "collection": {
          "collectedDateTime": "2016-02-14"
        },
        "text": {
          "status": "generated",
          "div": "<div xmlns=\"http://www.w3.org/1999/xhtml\"><table class=\"hl7__eu__lab__report\"><tr><th>Specimen</th><th>Collection Date</th></tr><tr><td>Whole blood specimen (specimen)</td><td><span class=\"nb\">14-Feb-2016</span></td></tr></table></div>"
        },
        "type": {
          "coding": [
            {
              "code": "258580003",
              "system": "http://snomed.info/sct",
              "display": "Whole blood specimen (specimen)"
            }
          ]
        }
      }
    },
    {
      "fullUrl": "urn:uuid:24018d3c-7752-48df-8e9e-707480751aa9",
      "resource": {
        "resourceType": "Specimen",
        "id": "24018d3c-7752-48df-8e9e-707480751aa9",
        "meta": {
          "profile": [
            "http://hl7.eu/fhir/laboratory/StructureDefinition/Specimen-eu-lab"
          ]
        },
        "collection": {
          "collectedDateTime": "2016-02-14"
        },
        "text": {
          "status": "generated",
          "div": "<div xmlns=\"http://www.w3.org/1999/xhtml\"><table class=\"hl7__eu__lab__report\"><tr><th>Specimen</th><th>Collection Date</th></tr><tr><td>Acellular blood (serum or plasma) specimen</td><td><span class=\"nb\">14-Feb-2016</span></td></tr></table></div>"
        },
        "type": {
          "coding": [
            {
              "code": "122592007",
              "system": "http://snomed.info/sct",
              "display": "Acellular blood (serum or plasma) specimen"
            }
          ]
        }
      }
    },
    {
      "fullUrl": "urn:uuid:16d7a5c7-1d6b-4ab0-af0a-945b7939c9e8",
      "resource": {
        "resourceType": "Specimen",
        "id": "16d7a5c7-1d6b-4ab0-af0a-945b7939c9e8",
        "meta": {
          "profile": [
            "http://hl7.eu/fhir/laboratory/StructureDefinition/Specimen-eu-lab"
          ]
        },
        "collection": {
          "collectedDateTime": "2016-02-14"
        },
        "text": {
          "status": "generated",
          "div": "<div xmlns=\"http://www.w3.org/1999/xhtml\"><table class=\"hl7__eu__lab__report\"><tr><th>Specimen</th><th>Collection Date</th></tr><tr><td>Serum specimen</td><td><span class=\"nb\">14-Feb-2016</span></td></tr></table></div>"
        },
        "type": {
          "coding": [
            {
              "code": "119364003",
              "system": "http://snomed.info/sct",
              "display": "Serum specimen"
            }
          ]
        }
      }
    },
    {
      "fullUrl": "urn:uuid:40f788de-4d0e-4046-a97a-34c105c148f2",
      "resource": {
        "resourceType": "Specimen",
        "id": "40f788de-4d0e-4046-a97a-34c105c148f2",
        "meta": {
          "profile": [
            "http://hl7.eu/fhir/laboratory/StructureDefinition/Specimen-eu-lab"
          ]
        },
        "collection": {
          "collectedDateTime": "2016-02-14"
        },
        "text": {
          "status": "generated",
          "div": "<div xmlns=\"http://www.w3.org/1999/xhtml\"><table class=\"hl7__eu__lab__report\"><tr><th>Specimen</th><th>Collection Date</th></tr><tr><td>Urine specimen</td><td><span class=\"nb\">14-Feb-2016</span></td></tr></table></div>"
        },
        "type": {
          "coding": [
            {
              "code": "122575003",
              "system": "http://snomed.info/sct",
              "display": "Urine specimen"
            }
          ]
        }
      }
    },
    {
      "fullUrl": "urn:uuid:06681833-8b44-4693-801d-bc91c0db6afe",
      "resource": {
        "resourceType": "Observation",
        "id": "06681833-8b44-4693-801d-bc91c0db6afe",
        "meta": {
          "profile": [
            "http://hl7.eu/fhir/laboratory/StructureDefinition/Observation-resultslab-eu-lab"
          ]
        },
        "performer": [
          {
            "display": "The Central European Lab"
          }
        ],
        "category": [
          {
            "coding": [
              {
                "system": "http://terminology.hl7.org/CodeSystem/observation-category",
                "code": "laboratory"
              }
            ]
          }
        ],
        "code": {
          "coding": [
            {
              "code": "2339-0",
              "system": "http://loinc.org",
              "display": "Glucose [Mass/volume] in Blood"
            }
          ],
          "text": "Glucose [Mass/volume] in Blood"
        },
        "valueQuantity": {
          "system": "http://unitsofmeasure.org",
          "value": 75.8,
          "unit": "mg/dL",
          "code": "mg/dL"
        },
        "referenceRange": [
          {
            "low": {
              "value": 70,
              "code": "mg/dL",
              "system": "http://unitsofmeasure.org"
            }
          },
          {
            "high": {
              "value": 140,
              "code": "mg/dL",
              "system": "http://unitsofmeasure.org"
            }
          }
        ],
        "text": {
          "status": "generated",
          "div": "<div xmlns=\"http://www.w3.org/1999/xhtml\"><table class=\"hl7__eu__lab__report\"><tr><th>Test</th><th>14-Feb-2016</th><th>Reference&#xA0;Range</th><th>Unit</th></tr><tr><td>Glucose [Mass/volume] in Blood</td><td>75.8</td><td>70 - 140</td><td></td><td>mg/dL</td></tr></table></div>"
        },
        "status": "final",
        "subject": {
          "reference": "urn:uuid:8796cf04-4feb-45d0-adaf-70ded22b7d49",
          "display": "Iva Kratochvílová"
        },
        "effectiveDateTime": "2016-02-14T00:30:29Z",
        "specimen": {
          "reference": "urn:uuid:4fe4df5d-f6c9-4247-977f-59b4e3239c46"
        }
      }
    },
    {
      "fullUrl": "urn:uuid:08aa0da6-23d7-4ff9-b140-5c3e6da79d4c",
      "resource": {
        "resourceType": "Observation",
        "id": "08aa0da6-23d7-4ff9-b140-5c3e6da79d4c",
        "meta": {
          "profile": [
            "http://hl7.eu/fhir/laboratory/StructureDefinition/Observation-resultslab-eu-lab"
          ]
        },
        "performer": [
          {
            "display": "The Central European Lab"
          }
        ],
        "category": [
          {
            "coding": [
              {
                "system": "http://terminology.hl7.org/CodeSystem/observation-category",
                "code": "laboratory"
              }
            ]
          }
        ],
        "code": {
          "coding": [
            {
              "code": "6299-2",
              "system": "http://loinc.org",
              "display": "Urea nitrogen [Mass/volume] in Blood"
            }
          ],
          "text": "Urea nitrogen [Mass/volume] in Blood"
        },
        "valueQuantity": {
          "system": "http://unitsofmeasure.org",
          "value": 18.8,
          "unit": "mg/dL",
          "code": "mg/dL"
        },
        "referenceRange": [
          {
            "low": {
              "value": 7,
              "code": "mg/dL",
              "system": "http://unitsofmeasure.org"
            }
          },
          {
            "high": {
              "value": 25,
              "code": "mg/dL",
              "system": "http://unitsofmeasure.org"
            }
          }
        ],
        "text": {
          "status": "generated",
          "div": "<div xmlns=\"http://www.w3.org/1999/xhtml\"><table class=\"hl7__eu__lab__report\"><tr><th>Test</th><th>14-Feb-2016</th><th>Reference&#xA0;Range</th><th>Unit</th></tr><tr><td>Urea nitrogen [Mass/volume] in Blood</td><td>18.8</td><td>7 - 25</td><td></td><td>mg/dL</td></tr></table></div>"
        },
        "status": "final",
        "subject": {
          "reference": "urn:uuid:8796cf04-4feb-45d0-adaf-70ded22b7d49",
          "display": "Iva Kratochvílová"
        },
        "effectiveDateTime": "2016-02-14T00:30:29Z",
        "specimen": {
          "reference": "urn:uuid:4fe4df5d-f6c9-4247-977f-59b4e3239c46"
        }
      }
    },
    {
      "fullUrl": "urn:uuid:5aabf42f-541c-40f6-8009-339fa3a5857e",
      "resource": {
        "resourceType": "Observation",
        "id": "5aabf42f-541c-40f6-8009-339fa3a5857e",
        "meta": {
          "profile": [
            "http://hl7.eu/fhir/laboratory/StructureDefinition/Observation-resultslab-eu-lab"
          ]
        },
        "performer": [
          {
            "display": "The Central European Lab"
          }
        ],
        "category": [
          {
            "coding": [
              {
                "system": "http://terminology.hl7.org/CodeSystem/observation-category",
                "code": "laboratory"
              }
            ]
          }
        ],
        "code": {
          "coding": [
            {
              "code": "38483-4",
              "system": "http://loinc.org",
              "display": "Creatinine [Mass/volume] in Blood"
            }
          ],
          "text": "Creatinine [Mass/volume] in Blood"
        },
        "valueQuantity": {
          "system": "http://unitsofmeasure.org",
          "value": 3,
          "unit": "mg/dL",
          "code": "mg/dL"
        },
        "referenceRange": [
          {
            "low": {
              "value": 0.6,
              "code": "mg/dL",
              "system": "http://unitsofmeasure.org"
            }
          },
          {
            "high": {
              "value": 1.1,
              "code": "mg/dL",
              "system": "http://unitsofmeasure.org"
            }
          }
        ],
        "interpretation": [
          {
            "coding": [
              {
                "code": "H",
                "system": "http://terminology.hl7.org/CodeSystem/v3-ObservationInterpretation",
                "display": "High"
              }
            ]
          }
        ],
        "text": {
          "status": "generated",
          "div": "<div xmlns=\"http://www.w3.org/1999/xhtml\"><table class=\"hl7__eu__lab__report\"><tr><th>Test</th><th>14-Feb-2016</th><th>Reference&#xA0;Range</th><th>Unit</th></tr><tr><td>Creatinine [Mass/volume] in Blood</td><td>3.0</td><td>0.6 - 1.1</td><td>H</td><td>mg/dL</td></tr></table></div>"
        },
        "status": "final",
        "subject": {
          "reference": "urn:uuid:8796cf04-4feb-45d0-adaf-70ded22b7d49",
          "display": "Iva Kratochvílová"
        },
        "effectiveDateTime": "2016-02-14T00:30:29Z",
        "specimen": {
          "reference": "urn:uuid:4fe4df5d-f6c9-4247-977f-59b4e3239c46"
        }
      }
    },
    {
      "fullUrl": "urn:uuid:69d6f8e1-957c-404b-a568-b572c18fe673",
      "resource": {
        "resourceType": "Observation",
        "id": "69d6f8e1-957c-404b-a568-b572c18fe673",
        "meta": {
          "profile": [
            "http://hl7.eu/fhir/laboratory/StructureDefinition/Observation-resultslab-eu-lab"
          ]
        },
        "performer": [
          {
            "display": "The Central European Lab"
          }
        ],
        "category": [
          {
            "coding": [
              {
                "system": "http://terminology.hl7.org/CodeSystem/observation-category",
                "code": "laboratory"
              }
            ]
          }
        ],
        "code": {
          "coding": [
            {
              "code": "49765-1",
              "system": "http://loinc.org",
              "display": "Calcium [Mass/volume] in Blood"
            }
          ],
          "text": "Calcium [Mass/volume] in Blood"
        },
        "valueQuantity": {
          "system": "http://unitsofmeasure.org",
          "value": 8.7,
          "unit": "mg/dL",
          "code": "mg/dL"
        },
        "referenceRange": [
          {
            "low": {
              "value": 8.6,
              "code": "mg/dL",
              "system": "http://unitsofmeasure.org"
            }
          },
          {
            "high": {
              "value": 10.4,
              "code": "mg/dL",
              "system": "http://unitsofmeasure.org"
            }
          }
        ],
        "text": {
          "status": "generated",
          "div": "<div xmlns=\"http://www.w3.org/1999/xhtml\"><table class=\"hl7__eu__lab__report\"><tr><th>Test</th><th>14-Feb-2016</th><th>Reference&#xA0;Range</th><th>Unit</th></tr><tr><td>Calcium [Mass/volume] in Blood</td><td>8.7</td><td>8.6 - 10.4</td><td></td><td>mg/dL</td></tr></table></div>"
        },
        "status": "final",
        "subject": {
          "reference": "urn:uuid:8796cf04-4feb-45d0-adaf-70ded22b7d49",
          "display": "Iva Kratochvílová"
        },
        "effectiveDateTime": "2016-02-14T00:30:29Z",
        "specimen": {
          "reference": "urn:uuid:4fe4df5d-f6c9-4247-977f-59b4e3239c46"
        }
      }
    },
    {
      "fullUrl": "urn:uuid:c4d80fab-c7cb-44a2-8083-bec05e0d38e9",
      "resource": {
        "resourceType": "Observation",
        "id": "c4d80fab-c7cb-44a2-8083-bec05e0d38e9",
        "meta": {
          "profile": [
            "http://hl7.eu/fhir/laboratory/StructureDefinition/Observation-resultslab-eu-lab"
          ]
        },
        "performer": [
          {
            "display": "The Central European Lab"
          }
        ],
        "category": [
          {
            "coding": [
              {
                "system": "http://terminology.hl7.org/CodeSystem/observation-category",
                "code": "laboratory"
              }
            ]
          }
        ],
        "code": {
          "coding": [
            {
              "code": "2947-0",
              "system": "http://loinc.org",
              "display": "Sodium [Moles/volume] in Blood"
            }
          ],
          "text": "Sodium [Moles/volume] in Blood"
        },
        "valueQuantity": {
          "system": "http://unitsofmeasure.org",
          "value": 139.4,
          "unit": "mmol/L",
          "code": "mmol/L"
        },
        "referenceRange": [
          {
            "low": {
              "value": 135,
              "code": "mmol/L",
              "system": "http://unitsofmeasure.org"
            }
          },
          {
            "high": {
              "value": 145,
              "code": "mmol/L",
              "system": "http://unitsofmeasure.org"
            }
          }
        ],
        "text": {
          "status": "generated",
          "div": "<div xmlns=\"http://www.w3.org/1999/xhtml\"><table class=\"hl7__eu__lab__report\"><tr><th>Test</th><th>14-Feb-2016</th><th>Reference&#xA0;Range</th><th>Unit</th></tr><tr><td>Sodium [Moles/volume] in Blood</td><td>139.4</td><td>135 - 145</td><td></td><td>mmol/L</td></tr></table></div>"
        },
        "status": "final",
        "subject": {
          "reference": "urn:uuid:8796cf04-4feb-45d0-adaf-70ded22b7d49",
          "display": "Iva Kratochvílová"
        },
        "effectiveDateTime": "2016-02-14T00:30:29Z",
        "specimen": {
          "reference": "urn:uuid:4fe4df5d-f6c9-4247-977f-59b4e3239c46"
        }
      }
    },
    {
      "fullUrl": "urn:uuid:cb7bce59-1577-4b23-ab2c-578109130321",
      "resource": {
        "resourceType": "Observation",
        "id": "cb7bce59-1577-4b23-ab2c-578109130321",
        "meta": {
          "profile": [
            "http://hl7.eu/fhir/laboratory/StructureDefinition/Observation-resultslab-eu-lab"
          ]
        },
        "performer": [
          {
            "display": "The Central European Lab"
          }
        ],
        "category": [
          {
            "coding": [
              {
                "system": "http://terminology.hl7.org/CodeSystem/observation-category",
                "code": "laboratory"
              }
            ]
          }
        ],
        "code": {
          "coding": [
            {
              "code": "6298-4",
              "system": "http://loinc.org",
              "display": "Potassium [Moles/volume] in Blood"
            }
          ],
          "text": "Potassium [Moles/volume] in Blood"
        },
        "valueQuantity": {
          "system": "http://unitsofmeasure.org",
          "value": 5.2,
          "unit": "mmol/L",
          "code": "mmol/L"
        },
        "referenceRange": [
          {
            "low": {
              "value": 3.5,
              "code": "mmol/L",
              "system": "http://unitsofmeasure.org"
            }
          },
          {
            "high": {
              "value": 5.1,
              "code": "mmol/L",
              "system": "http://unitsofmeasure.org"
            }
          }
        ],
        "interpretation": [
          {
            "coding": [
              {
                "code": "H",
                "system": "http://terminology.hl7.org/CodeSystem/v3-ObservationInterpretation",
                "display": "High"
              }
            ]
          }
        ],
        "text": {
          "status": "generated",
          "div": "<div xmlns=\"http://www.w3.org/1999/xhtml\"><table class=\"hl7__eu__lab__report\"><tr><th>Test</th><th>14-Feb-2016</th><th>Reference&#xA0;Range</th><th>Unit</th></tr><tr><td>Potassium [Moles/volume] in Blood</td><td>5.2</td><td>3.5 - 5.1</td><td>H</td><td>mmol/L</td></tr></table></div>"
        },
        "status": "final",
        "subject": {
          "reference": "urn:uuid:8796cf04-4feb-45d0-adaf-70ded22b7d49",
          "display": "Iva Kratochvílová"
        },
        "effectiveDateTime": "2016-02-14T00:30:29Z",
        "specimen": {
          "reference": "urn:uuid:4fe4df5d-f6c9-4247-977f-59b4e3239c46"
        }
      }
    },
    {
      "fullUrl": "urn:uuid:65dc885e-7b17-483c-b96f-4b5736bf9287",
      "resource": {
        "resourceType": "Observation",
        "id": "65dc885e-7b17-483c-b96f-4b5736bf9287",
        "meta": {
          "profile": [
            "http://hl7.eu/fhir/laboratory/StructureDefinition/Observation-resultslab-eu-lab"
          ]
        },
        "performer": [
          {
            "display": "The Central European Lab"
          }
        ],
        "category": [
          {
            "coding": [
              {
                "system": "http://terminology.hl7.org/CodeSystem/observation-category",
                "code": "laboratory"
              }
            ]
          }
        ],
        "code": {
          "coding": [
            {
              "code": "2069-3",
              "system": "http://loinc.org",
              "display": "Chloride [Moles/volume] in Blood"
            }
          ],
          "text": "Chloride [Moles/volume] in Blood"
        },
        "valueQuantity": {
          "system": "http://unitsofmeasure.org",
          "value": 104.9,
          "unit": "mmol/L",
          "code": "mmol/L"
        },
        "referenceRange": [
          {
            "low": {
              "value": 98,
              "code": "mmol/L",
              "system": "http://unitsofmeasure.org"
            }
          },
          {
            "high": {
              "value": 110,
              "code": "mmol/L",
              "system": "http://unitsofmeasure.org"
            }
          }
        ],
        "text": {
          "status": "generated",
          "div": "<div xmlns=\"http://www.w3.org/1999/xhtml\"><table class=\"hl7__eu__lab__report\"><tr><th>Test</th><th>14-Feb-2016</th><th>Reference&#xA0;Range</th><th>Unit</th></tr><tr><td>Chloride [Moles/volume] in Blood</td><td>104.9</td><td>98 - 110</td><td></td><td>mmol/L</td></tr></table></div>"
        },
        "status": "final",
        "subject": {
          "reference": "urn:uuid:8796cf04-4feb-45d0-adaf-70ded22b7d49",
          "display": "Iva Kratochvílová"
        },
        "effectiveDateTime": "2016-02-14T00:30:29Z",
        "specimen": {
          "reference": "urn:uuid:4fe4df5d-f6c9-4247-977f-59b4e3239c46"
        }
      }
    },
    {
      "fullUrl": "urn:uuid:2622a056-b1d1-4bc0-a356-1fa525387fb4",
      "resource": {
        "resourceType": "Observation",
        "id": "2622a056-b1d1-4bc0-a356-1fa525387fb4",
        "meta": {
          "profile": [
            "http://hl7.eu/fhir/laboratory/StructureDefinition/Observation-resultslab-eu-lab"
          ]
        },
        "performer": [
          {
            "display": "The Central European Lab"
          }
        ],
        "category": [
          {
            "coding": [
              {
                "system": "http://terminology.hl7.org/CodeSystem/observation-category",
                "code": "laboratory"
              }
            ]
          }
        ],
        "code": {
          "coding": [
            {
              "code": "20565-8",
              "system": "http://loinc.org",
              "display": "Carbon dioxide, total [Moles/volume] in Blood"
            }
          ],
          "text": "Carbon dioxide, total [Moles/volume] in Blood"
        },
        "valueQuantity": {
          "system": "http://unitsofmeasure.org",
          "value": 20.5,
          "unit": "mmol/L",
          "code": "mmol/L"
        },
        "referenceRange": [
          {
            "low": {
              "value": 22,
              "code": "mmol/L",
              "system": "http://unitsofmeasure.org"
            }
          },
          {
            "high": {
              "value": 29,
              "code": "mmol/L",
              "system": "http://unitsofmeasure.org"
            }
          }
        ],
        "interpretation": [
          {
            "coding": [
              {
                "code": "L",
                "system": "http://terminology.hl7.org/CodeSystem/v3-ObservationInterpretation",
                "display": "Low"
              }
            ]
          }
        ],
        "text": {
          "status": "generated",
          "div": "<div xmlns=\"http://www.w3.org/1999/xhtml\"><table class=\"hl7__eu__lab__report\"><tr><th>Test</th><th>14-Feb-2016</th><th>Reference&#xA0;Range</th><th>Unit</th></tr><tr><td>Carbon dioxide, total [Moles/volume] in Blood</td><td>20.5</td><td>22 - 29</td><td>L</td><td>mmol/L</td></tr></table></div>"
        },
        "status": "final",
        "subject": {
          "reference": "urn:uuid:8796cf04-4feb-45d0-adaf-70ded22b7d49",
          "display": "Iva Kratochvílová"
        },
        "effectiveDateTime": "2016-02-14T00:30:29Z",
        "specimen": {
          "reference": "urn:uuid:4fe4df5d-f6c9-4247-977f-59b4e3239c46"
        }
      }
    },
    {
      "fullUrl": "urn:uuid:865e4ff6-e1d5-4c22-8294-b2bcecc76a6f",
      "resource": {
        "resourceType": "Observation",
        "id": "865e4ff6-e1d5-4c22-8294-b2bcecc76a6f",
        "meta": {
          "profile": [
            "http://hl7.eu/fhir/laboratory/StructureDefinition/Observation-resultslab-eu-lab"
          ]
        },
        "performer": [
          {
            "display": "The Central European Lab"
          }
        ],
        "category": [
          {
            "coding": [
              {
                "system": "http://terminology.hl7.org/CodeSystem/observation-category",
                "code": "laboratory"
              }
            ]
          }
        ],
        "code": {
          "coding": [
            {
              "code": "2885-2",
              "system": "http://loinc.org",
              "display": "Protein [Mass/volume] in Serum or Plasma"
            }
          ],
          "text": "Protein [Mass/volume] in Serum or Plasma"
        },
        "valueQuantity": {
          "system": "http://unitsofmeasure.org",
          "value": 6.4,
          "unit": "g/dL",
          "code": "g/dL"
        },
        "referenceRange": [
          {
            "low": {
              "value": 6.6,
              "code": "g/dL",
              "system": "http://unitsofmeasure.org"
            }
          },
          {
            "high": {
              "value": 8.3,
              "code": "g/dL",
              "system": "http://unitsofmeasure.org"
            }
          }
        ],
        "interpretation": [
          {
            "coding": [
              {
                "code": "L",
                "system": "http://terminology.hl7.org/CodeSystem/v3-ObservationInterpretation",
                "display": "Low"
              }
            ]
          }
        ],
        "text": {
          "status": "generated",
          "div": "<div xmlns=\"http://www.w3.org/1999/xhtml\"><table class=\"hl7__eu__lab__report\"><tr><th>Test</th><th>14-Feb-2016</th><th>Reference&#xA0;Range</th><th>Unit</th></tr><tr><td>Protein [Mass/volume] in Serum or Plasma</td><td>6.4</td><td>6.6 - 8.3</td><td>L</td><td>g/dL</td></tr></table></div>"
        },
        "status": "final",
        "subject": {
          "reference": "urn:uuid:8796cf04-4feb-45d0-adaf-70ded22b7d49",
          "display": "Iva Kratochvílová"
        },
        "effectiveDateTime": "2016-02-14T00:30:29Z",
        "specimen": {
          "reference": "urn:uuid:24018d3c-7752-48df-8e9e-707480751aa9"
        }
      }
    },
    {
      "fullUrl": "urn:uuid:7988150d-3bb8-485c-b754-06d73cdcc175",
      "resource": {
        "resourceType": "Observation",
        "id": "7988150d-3bb8-485c-b754-06d73cdcc175",
        "meta": {
          "profile": [
            "http://hl7.eu/fhir/laboratory/StructureDefinition/Observation-resultslab-eu-lab"
          ]
        },
        "performer": [
          {
            "display": "The Central European Lab"
          }
        ],
        "category": [
          {
            "coding": [
              {
                "system": "http://terminology.hl7.org/CodeSystem/observation-category",
                "code": "laboratory"
              }
            ]
          }
        ],
        "code": {
          "coding": [
            {
              "code": "1751-7",
              "system": "http://loinc.org",
              "display": "Albumin [Mass/volume] in Serum or Plasma"
            }
          ],
          "text": "Albumin [Mass/volume] in Serum or Plasma"
        },
        "valueQuantity": {
          "system": "http://unitsofmeasure.org",
          "value": 5.2,
          "unit": "g/dL",
          "code": "g/dL"
        },
        "referenceRange": [
          {
            "low": {
              "value": 3.5,
              "code": "g/dL",
              "system": "http://unitsofmeasure.org"
            }
          },
          {
            "high": {
              "value": 5,
              "code": "g/dL",
              "system": "http://unitsofmeasure.org"
            }
          }
        ],
        "interpretation": [
          {
            "coding": [
              {
                "code": "H",
                "system": "http://terminology.hl7.org/CodeSystem/v3-ObservationInterpretation",
                "display": "High"
              }
            ]
          }
        ],
        "text": {
          "status": "generated",
          "div": "<div xmlns=\"http://www.w3.org/1999/xhtml\"><table class=\"hl7__eu__lab__report\"><tr><th>Test</th><th>14-Feb-2016</th><th>Reference&#xA0;Range</th><th>Unit</th></tr><tr><td>Albumin [Mass/volume] in Serum or Plasma</td><td>5.2</td><td>3.5 - 5</td><td>H</td><td>g/dL</td></tr></table></div>"
        },
        "status": "final",
        "subject": {
          "reference": "urn:uuid:8796cf04-4feb-45d0-adaf-70ded22b7d49",
          "display": "Iva Kratochvílová"
        },
        "effectiveDateTime": "2016-02-14T00:30:29Z",
        "specimen": {
          "reference": "urn:uuid:24018d3c-7752-48df-8e9e-707480751aa9"
        }
      }
    },
    {
      "fullUrl": "urn:uuid:d7311d88-fee1-4ad3-8339-7affdf37da0f",
      "resource": {
        "resourceType": "Observation",
        "id": "d7311d88-fee1-4ad3-8339-7affdf37da0f",
        "meta": {
          "profile": [
            "http://hl7.eu/fhir/laboratory/StructureDefinition/Observation-resultslab-eu-lab"
          ]
        },
        "performer": [
          {
            "display": "The Central European Lab"
          }
        ],
        "category": [
          {
            "coding": [
              {
                "system": "http://terminology.hl7.org/CodeSystem/observation-category",
                "code": "laboratory"
              }
            ]
          }
        ],
        "code": {
          "coding": [
            {
              "code": "10834-0",
              "system": "http://loinc.org",
              "display": "Globulin [Mass/volume] in Serum by calculation"
            }
          ],
          "text": "Globulin [Mass/volume] in Serum by calculation"
        },
        "valueQuantity": {
          "system": "http://unitsofmeasure.org",
          "value": 2.9,
          "unit": "g/L",
          "code": "g/L"
        },
        "referenceRange": [
          {
            "low": {
              "value": 2,
              "code": "g/L",
              "system": "http://unitsofmeasure.org"
            }
          },
          {
            "high": {
              "value": 3.5,
              "code": "g/L",
              "system": "http://unitsofmeasure.org"
            }
          }
        ],
        "text": {
          "status": "generated",
          "div": "<div xmlns=\"http://www.w3.org/1999/xhtml\"><table class=\"hl7__eu__lab__report\"><tr><th>Test</th><th>14-Feb-2016</th><th>Reference&#xA0;Range</th><th>Unit</th></tr><tr><td>Globulin [Mass/volume] in Serum by calculation</td><td>2.9</td><td>2 - 3.5</td><td></td><td>g/L</td></tr></table></div>"
        },
        "status": "final",
        "subject": {
          "reference": "urn:uuid:8796cf04-4feb-45d0-adaf-70ded22b7d49",
          "display": "Iva Kratochvílová"
        },
        "effectiveDateTime": "2016-02-14T00:30:29Z",
        "specimen": {
          "reference": "urn:uuid:16d7a5c7-1d6b-4ab0-af0a-945b7939c9e8"
        }
      }
    },
    {
      "fullUrl": "urn:uuid:023f7022-17dc-4285-92bd-7d4f2ad0201b",
      "resource": {
        "resourceType": "Observation",
        "id": "023f7022-17dc-4285-92bd-7d4f2ad0201b",
        "meta": {
          "profile": [
            "http://hl7.eu/fhir/laboratory/StructureDefinition/Observation-resultslab-eu-lab"
          ]
        },
        "performer": [
          {
            "display": "The Central European Lab"
          }
        ],
        "category": [
          {
            "coding": [
              {
                "system": "http://terminology.hl7.org/CodeSystem/observation-category",
                "code": "laboratory"
              }
            ]
          }
        ],
        "code": {
          "coding": [
            {
              "code": "1975-2",
              "system": "http://loinc.org",
              "display": "Bilirubin.total [Mass/volume] in Serum or Plasma"
            }
          ],
          "text": "Bilirubin.total [Mass/volume] in Serum or Plasma"
        },
        "valueQuantity": {
          "system": "http://unitsofmeasure.org",
          "value": 0.2,
          "unit": "mg/dL",
          "code": "mg/dL"
        },
        "referenceRange": [
          {
            "low": {
              "value": 0.3,
              "code": "mg/dL",
              "system": "http://unitsofmeasure.org"
            }
          },
          {
            "high": {
              "value": 1.2,
              "code": "mg/dL",
              "system": "http://unitsofmeasure.org"
            }
          }
        ],
        "interpretation": [
          {
            "coding": [
              {
                "code": "L",
                "system": "http://terminology.hl7.org/CodeSystem/v3-ObservationInterpretation",
                "display": "Low"
              }
            ]
          }
        ],
        "text": {
          "status": "generated",
          "div": "<div xmlns=\"http://www.w3.org/1999/xhtml\"><table class=\"hl7__eu__lab__report\"><tr><th>Test</th><th>14-Feb-2016</th><th>Reference&#xA0;Range</th><th>Unit</th></tr><tr><td>Bilirubin.total [Mass/volume] in Serum or Plasma</td><td>0.2</td><td>0.3 - 1.2</td><td>L</td><td>mg/dL</td></tr></table></div>"
        },
        "status": "final",
        "subject": {
          "reference": "urn:uuid:8796cf04-4feb-45d0-adaf-70ded22b7d49",
          "display": "Iva Kratochvílová"
        },
        "effectiveDateTime": "2016-02-14T00:30:29Z",
        "specimen": {
          "reference": "urn:uuid:24018d3c-7752-48df-8e9e-707480751aa9"
        }
      }
    },
    {
      "fullUrl": "urn:uuid:31e4e8d1-0e1f-491b-b3b3-d77e6c0d2f30",
      "resource": {
        "resourceType": "Observation",
        "id": "31e4e8d1-0e1f-491b-b3b3-d77e6c0d2f30",
        "meta": {
          "profile": [
            "http://hl7.eu/fhir/laboratory/StructureDefinition/Observation-resultslab-eu-lab"
          ]
        },
        "performer": [
          {
            "display": "The Central European Lab"
          }
        ],
        "category": [
          {
            "coding": [
              {
                "system": "http://terminology.hl7.org/CodeSystem/observation-category",
                "code": "laboratory"
              }
            ]
          }
        ],
        "code": {
          "coding": [
            {
              "code": "6768-6",
              "system": "http://loinc.org",
              "display": "Alkaline phosphatase [Enzymatic activity/volume] in Serum or Plasma"
            }
          ],
          "text": "Alkaline phosphatase [Enzymatic activity/volume] in Serum or Plasma"
        },
        "valueQuantity": {
          "system": "http://unitsofmeasure.org",
          "value": 87.5,
          "unit": "U/L",
          "code": "U/L"
        },
        "referenceRange": [
          {
            "low": {
              "value": 39,
              "code": "U/L",
              "system": "http://unitsofmeasure.org"
            }
          },
          {
            "high": {
              "value": 141,
              "code": "U/L",
              "system": "http://unitsofmeasure.org"
            }
          }
        ],
        "text": {
          "status": "generated",
          "div": "<div xmlns=\"http://www.w3.org/1999/xhtml\"><table class=\"hl7__eu__lab__report\"><tr><th>Test</th><th>14-Feb-2016</th><th>Reference&#xA0;Range</th><th>Unit</th></tr><tr><td>Alkaline phosphatase [Enzymatic activity/volume] in Serum or Plasma</td><td>87.5</td><td>39 - 141</td><td></td><td>U/L</td></tr></table></div>"
        },
        "status": "final",
        "subject": {
          "reference": "urn:uuid:8796cf04-4feb-45d0-adaf-70ded22b7d49",
          "display": "Iva Kratochvílová"
        },
        "effectiveDateTime": "2016-02-14T00:30:29Z",
        "specimen": {
          "reference": "urn:uuid:24018d3c-7752-48df-8e9e-707480751aa9"
        }
      }
    },
    {
      "fullUrl": "urn:uuid:fb3dd754-fe6a-4241-b7ca-bb3d696ea524",
      "resource": {
        "resourceType": "Observation",
        "id": "fb3dd754-fe6a-4241-b7ca-bb3d696ea524",
        "meta": {
          "profile": [
            "http://hl7.eu/fhir/laboratory/StructureDefinition/Observation-resultslab-eu-lab"
          ]
        },
        "performer": [
          {
            "display": "The Central European Lab"
          }
        ],
        "category": [
          {
            "coding": [
              {
                "system": "http://terminology.hl7.org/CodeSystem/observation-category",
                "code": "laboratory"
              }
            ]
          }
        ],
        "code": {
          "coding": [
            {
              "code": "1742-6",
              "system": "http://loinc.org",
              "display": "Alanine aminotransferase [Enzymatic activity/volume] in Serum or Plasma"
            }
          ],
          "text": "Alanine aminotransferase [Enzymatic activity/volume] in Serum or Plasma"
        },
        "valueQuantity": {
          "system": "http://unitsofmeasure.org",
          "value": 41.7,
          "unit": "U/L",
          "code": "U/L"
        },
        "referenceRange": [
          {
            "low": {
              "value": 7,
              "code": "U/L",
              "system": "http://unitsofmeasure.org"
            }
          },
          {
            "high": {
              "value": 40,
              "code": "U/L",
              "system": "http://unitsofmeasure.org"
            }
          }
        ],
        "interpretation": [
          {
            "coding": [
              {
                "code": "H",
                "system": "http://terminology.hl7.org/CodeSystem/v3-ObservationInterpretation",
                "display": "High"
              }
            ]
          }
        ],
        "text": {
          "status": "generated",
          "div": "<div xmlns=\"http://www.w3.org/1999/xhtml\"><table class=\"hl7__eu__lab__report\"><tr><th>Test</th><th>14-Feb-2016</th><th>Reference&#xA0;Range</th><th>Unit</th></tr><tr><td>Alanine aminotransferase [Enzymatic activity/volume] in Serum or Plasma</td><td>41.7</td><td>7 - 40</td><td>H</td><td>U/L</td></tr></table></div>"
        },
        "status": "final",
        "subject": {
          "reference": "urn:uuid:8796cf04-4feb-45d0-adaf-70ded22b7d49",
          "display": "Iva Kratochvílová"
        },
        "effectiveDateTime": "2016-02-14T00:30:29Z",
        "specimen": {
          "reference": "urn:uuid:24018d3c-7752-48df-8e9e-707480751aa9"
        }
      }
    },
    {
      "fullUrl": "urn:uuid:7bcd263f-6194-48d3-a287-c379e937896d",
      "resource": {
        "resourceType": "Observation",
        "id": "7bcd263f-6194-48d3-a287-c379e937896d",
        "meta": {
          "profile": [
            "http://hl7.eu/fhir/laboratory/StructureDefinition/Observation-resultslab-eu-lab"
          ]
        },
        "performer": [
          {
            "display": "The Central European Lab"
          }
        ],
        "category": [
          {
            "coding": [
              {
                "system": "http://terminology.hl7.org/CodeSystem/observation-category",
                "code": "laboratory"
              }
            ]
          }
        ],
        "code": {
          "coding": [
            {
              "code": "1920-8",
              "system": "http://loinc.org",
              "display": "Aspartate aminotransferase [Enzymatic activity/volume] in Serum or Plasma"
            }
          ],
          "text": "Aspartate aminotransferase [Enzymatic activity/volume] in Serum or Plasma"
        },
        "valueQuantity": {
          "system": "http://unitsofmeasure.org",
          "value": 23.3,
          "unit": "U/L",
          "code": "U/L"
        },
        "referenceRange": [
          {
            "low": {
              "value": 10,
              "code": "U/L",
              "system": "http://unitsofmeasure.org"
            }
          },
          {
            "high": {
              "value": 32,
              "code": "U/L",
              "system": "http://unitsofmeasure.org"
            }
          }
        ],
        "text": {
          "status": "generated",
          "div": "<div xmlns=\"http://www.w3.org/1999/xhtml\"><table class=\"hl7__eu__lab__report\"><tr><th>Test</th><th>14-Feb-2016</th><th>Reference&#xA0;Range</th><th>Unit</th></tr><tr><td>Aspartate aminotransferase [Enzymatic activity/volume] in Serum or Plasma</td><td>23.3</td><td>10 - 32</td><td></td><td>U/L</td></tr></table></div>"
        },
        "status": "final",
        "subject": {
          "reference": "urn:uuid:8796cf04-4feb-45d0-adaf-70ded22b7d49",
          "display": "Iva Kratochvílová"
        },
        "effectiveDateTime": "2016-02-14T00:30:29Z",
        "specimen": {
          "reference": "urn:uuid:24018d3c-7752-48df-8e9e-707480751aa9"
        }
      }
    },
    {
      "fullUrl": "urn:uuid:9db1e0b0-5275-45d7-96b8-2d96a1c09a9b",
      "resource": {
        "resourceType": "Observation",
        "id": "9db1e0b0-5275-45d7-96b8-2d96a1c09a9b",
        "meta": {
          "profile": [
            "http://hl7.eu/fhir/laboratory/StructureDefinition/Observation-resultslab-eu-lab"
          ]
        },
        "performer": [
          {
            "display": "The Central European Lab"
          }
        ],
        "category": [
          {
            "coding": [
              {
                "system": "http://terminology.hl7.org/CodeSystem/observation-category",
                "code": "laboratory"
              }
            ]
          }
        ],
        "code": {
          "coding": [
            {
              "code": "5767-9",
              "system": "http://loinc.org",
              "display": "Appearance of Urine"
            }
          ],
          "text": "Appearance of Urine"
        },
        "text": {
          "status": "generated",
          "div": "<div xmlns=\"http://www.w3.org/1999/xhtml\"><table class=\"hl7__eu__lab__report\"><tr><th>Test</th><th>14-Feb-2016</th><th>Reference&#xA0;Range</th><th>Unit</th></tr><tr><td>Appearance of Urine</td></tr></table></div>"
        },
        "status": "final",
        "subject": {
          "reference": "urn:uuid:8796cf04-4feb-45d0-adaf-70ded22b7d49",
          "display": "Iva Kratochvílová"
        },
        "effectiveDateTime": "2016-02-14T00:30:29Z",
        "specimen": {
          "reference": "urn:uuid:40f788de-4d0e-4046-a97a-34c105c148f2"
        }
      }
    },
    {
      "fullUrl": "urn:uuid:9c5c9682-b025-4807-a03b-01c66e5facb5",
      "resource": {
        "resourceType": "Observation",
        "id": "9c5c9682-b025-4807-a03b-01c66e5facb5",
        "meta": {
          "profile": [
            "http://hl7.eu/fhir/laboratory/StructureDefinition/Observation-resultslab-eu-lab"
          ]
        },
        "performer": [
          {
            "display": "The Central European Lab"
          }
        ],
        "category": [
          {
            "coding": [
              {
                "system": "http://terminology.hl7.org/CodeSystem/observation-category",
                "code": "laboratory"
              }
            ]
          }
        ],
        "code": {
          "coding": [
            {
              "code": "34533-0",
              "system": "http://loinc.org",
              "display": "Odor of Urine"
            }
          ],
          "text": "Odor of Urine"
        },
        "text": {
          "status": "generated",
          "div": "<div xmlns=\"http://www.w3.org/1999/xhtml\"><table class=\"hl7__eu__lab__report\"><tr><th>Test</th><th>14-Feb-2016</th><th>Reference&#xA0;Range</th><th>Unit</th></tr><tr><td>Odor of Urine</td></tr></table></div>"
        },
        "status": "final",
        "subject": {
          "reference": "urn:uuid:8796cf04-4feb-45d0-adaf-70ded22b7d49",
          "display": "Iva Kratochvílová"
        },
        "effectiveDateTime": "2016-02-14T00:30:29Z",
        "specimen": {
          "reference": "urn:uuid:40f788de-4d0e-4046-a97a-34c105c148f2"
        }
      }
    },
    {
      "fullUrl": "urn:uuid:9beae7fe-dc3b-4cb6-95ab-abd29a4fc22f",
      "resource": {
        "resourceType": "Observation",
        "id": "9beae7fe-dc3b-4cb6-95ab-abd29a4fc22f",
        "meta": {
          "profile": [
            "http://hl7.eu/fhir/laboratory/StructureDefinition/Observation-resultslab-eu-lab"
          ]
        },
        "performer": [
          {
            "display": "The Central European Lab"
          }
        ],
        "category": [
          {
            "coding": [
              {
                "system": "http://terminology.hl7.org/CodeSystem/observation-category",
                "code": "laboratory"
              }
            ]
          }
        ],
        "code": {
          "coding": [
            {
              "code": "32167-9",
              "system": "http://loinc.org",
              "display": "Clarity of Urine"
            }
          ],
          "text": "Clarity of Urine"
        },
        "text": {
          "status": "generated",
          "div": "<div xmlns=\"http://www.w3.org/1999/xhtml\"><table class=\"hl7__eu__lab__report\"><tr><th>Test</th><th>14-Feb-2016</th><th>Reference&#xA0;Range</th><th>Unit</th></tr><tr><td>Clarity of Urine</td></tr></table></div>"
        },
        "status": "final",
        "subject": {
          "reference": "urn:uuid:8796cf04-4feb-45d0-adaf-70ded22b7d49",
          "display": "Iva Kratochvílová"
        },
        "effectiveDateTime": "2016-02-14T00:30:29Z",
        "specimen": {
          "reference": "urn:uuid:40f788de-4d0e-4046-a97a-34c105c148f2"
        }
      }
    },
    {
      "fullUrl": "urn:uuid:370ecdfa-c764-4697-bf90-971b0106e7bd",
      "resource": {
        "resourceType": "Observation",
        "id": "370ecdfa-c764-4697-bf90-971b0106e7bd",
        "meta": {
          "profile": [
            "http://hl7.eu/fhir/laboratory/StructureDefinition/Observation-resultslab-eu-lab"
          ]
        },
        "performer": [
          {
            "display": "The Central European Lab"
          }
        ],
        "category": [
          {
            "coding": [
              {
                "system": "http://terminology.hl7.org/CodeSystem/observation-category",
                "code": "laboratory"
              }
            ]
          }
        ],
        "code": {
          "coding": [
            {
              "code": "5778-6",
              "system": "http://loinc.org",
              "display": "Color of Urine"
            }
          ],
          "text": "Color of Urine"
        },
        "text": {
          "status": "generated",
          "div": "<div xmlns=\"http://www.w3.org/1999/xhtml\"><table class=\"hl7__eu__lab__report\"><tr><th>Test</th><th>14-Feb-2016</th><th>Reference&#xA0;Range</th><th>Unit</th></tr><tr><td>Color of Urine</td></tr></table></div>"
        },
        "status": "final",
        "subject": {
          "reference": "urn:uuid:8796cf04-4feb-45d0-adaf-70ded22b7d49",
          "display": "Iva Kratochvílová"
        },
        "effectiveDateTime": "2016-02-14T00:30:29Z",
        "specimen": {
          "reference": "urn:uuid:40f788de-4d0e-4046-a97a-34c105c148f2"
        }
      }
    },
    {
      "fullUrl": "urn:uuid:50c7c64e-421b-4798-a0fa-6cfd878a464b",
      "resource": {
        "resourceType": "Observation",
        "id": "50c7c64e-421b-4798-a0fa-6cfd878a464b",
        "meta": {
          "profile": [
            "http://hl7.eu/fhir/laboratory/StructureDefinition/Observation-resultslab-eu-lab"
          ]
        },
        "performer": [
          {
            "display": "The Central European Lab"
          }
        ],
        "category": [
          {
            "coding": [
              {
                "system": "http://terminology.hl7.org/CodeSystem/observation-category",
                "code": "laboratory"
              }
            ]
          }
        ],
        "code": {
          "coding": [
            {
              "code": "5792-7",
              "system": "http://loinc.org",
              "display": "Glucose [Mass/volume] in Urine by Test strip"
            }
          ],
          "text": "Glucose [Mass/volume] in Urine by Test strip"
        },
        "valueQuantity": {
          "system": "http://unitsofmeasure.org",
          "value": 1.8,
          "unit": "mg/dL",
          "code": "mg/dL"
        },
        "referenceRange": [
          {
            "low": {
              "value": 0,
              "code": "mg/dL",
              "system": "http://unitsofmeasure.org"
            }
          },
          {
            "high": {
              "value": 0.8,
              "code": "mg/dL",
              "system": "http://unitsofmeasure.org"
            }
          }
        ],
        "interpretation": [
          {
            "coding": [
              {
                "code": "H",
                "system": "http://terminology.hl7.org/CodeSystem/v3-ObservationInterpretation",
                "display": "High"
              }
            ]
          }
        ],
        "text": {
          "status": "generated",
          "div": "<div xmlns=\"http://www.w3.org/1999/xhtml\"><table class=\"hl7__eu__lab__report\"><tr><th>Test</th><th>14-Feb-2016</th><th>Reference&#xA0;Range</th><th>Unit</th></tr><tr><td>Glucose [Mass/volume] in Urine by Test strip</td><td>1.8</td><td>0 - 0.8</td><td>H</td><td>mg/dL</td></tr></table></div>"
        },
        "status": "final",
        "subject": {
          "reference": "urn:uuid:8796cf04-4feb-45d0-adaf-70ded22b7d49",
          "display": "Iva Kratochvílová"
        },
        "effectiveDateTime": "2016-02-14T00:30:29Z",
        "specimen": {
          "reference": "urn:uuid:40f788de-4d0e-4046-a97a-34c105c148f2"
        }
      }
    },
    {
      "fullUrl": "urn:uuid:cafd887b-b54f-45ff-952b-494ad6df176f",
      "resource": {
        "resourceType": "Observation",
        "id": "cafd887b-b54f-45ff-952b-494ad6df176f",
        "meta": {
          "profile": [
            "http://hl7.eu/fhir/laboratory/StructureDefinition/Observation-resultslab-eu-lab"
          ]
        },
        "performer": [
          {
            "display": "The Central European Lab"
          }
        ],
        "category": [
          {
            "coding": [
              {
                "system": "http://terminology.hl7.org/CodeSystem/observation-category",
                "code": "laboratory"
              }
            ]
          }
        ],
        "code": {
          "coding": [
            {
              "code": "25428-4",
              "system": "http://loinc.org",
              "display": "Glucose [Presence] in Urine by Test strip"
            }
          ],
          "text": "Glucose [Presence] in Urine by Test strip"
        },
        "text": {
          "status": "generated",
          "div": "<div xmlns=\"http://www.w3.org/1999/xhtml\"><table class=\"hl7__eu__lab__report\"><tr><th>Test</th><th>14-Feb-2016</th><th>Reference&#xA0;Range</th><th>Unit</th></tr><tr><td>Glucose [Presence] in Urine by Test strip</td></tr></table></div>"
        },
        "status": "final",
        "subject": {
          "reference": "urn:uuid:8796cf04-4feb-45d0-adaf-70ded22b7d49",
          "display": "Iva Kratochvílová"
        },
        "effectiveDateTime": "2016-02-14T00:30:29Z",
        "specimen": {
          "reference": "urn:uuid:40f788de-4d0e-4046-a97a-34c105c148f2"
        }
      }
    },
    {
      "fullUrl": "urn:uuid:4ca70518-d1d0-43dc-ac27-82729c295e5d",
      "resource": {
        "resourceType": "Observation",
        "id": "4ca70518-d1d0-43dc-ac27-82729c295e5d",
        "meta": {
          "profile": [
            "http://hl7.eu/fhir/laboratory/StructureDefinition/Observation-resultslab-eu-lab"
          ]
        },
        "performer": [
          {
            "display": "The Central European Lab"
          }
        ],
        "category": [
          {
            "coding": [
              {
                "system": "http://terminology.hl7.org/CodeSystem/observation-category",
                "code": "laboratory"
              }
            ]
          }
        ],
        "code": {
          "coding": [
            {
              "code": "20505-4",
              "system": "http://loinc.org",
              "display": "Bilirubin.total [Mass/volume] in Urine by Test strip"
            }
          ],
          "text": "Bilirubin.total [Mass/volume] in Urine by Test strip"
        },
        "valueQuantity": {
          "system": "http://unitsofmeasure.org",
          "value": 1,
          "unit": "mg/dL",
          "code": "mg/dL"
        },
        "referenceRange": [
          {
            "low": {
              "value": 0,
              "code": "mg/dL",
              "system": "http://unitsofmeasure.org"
            }
          },
          {
            "high": {
              "value": 1,
              "code": "mg/dL",
              "system": "http://unitsofmeasure.org"
            }
          }
        ],
        "text": {
          "status": "generated",
          "div": "<div xmlns=\"http://www.w3.org/1999/xhtml\"><table class=\"hl7__eu__lab__report\"><tr><th>Test</th><th>14-Feb-2016</th><th>Reference&#xA0;Range</th><th>Unit</th></tr><tr><td>Bilirubin.total [Mass/volume] in Urine by Test strip</td><td>1.0</td><td>0 - 1</td><td></td><td>mg/dL</td></tr></table></div>"
        },
        "status": "final",
        "subject": {
          "reference": "urn:uuid:8796cf04-4feb-45d0-adaf-70ded22b7d49",
          "display": "Iva Kratochvílová"
        },
        "effectiveDateTime": "2016-02-14T00:30:29Z",
        "specimen": {
          "reference": "urn:uuid:40f788de-4d0e-4046-a97a-34c105c148f2"
        }
      }
    },
    {
      "fullUrl": "urn:uuid:df7c8fea-0e20-465e-bcae-6b1fc233df9c",
      "resource": {
        "resourceType": "Observation",
        "id": "df7c8fea-0e20-465e-bcae-6b1fc233df9c",
        "meta": {
          "profile": [
            "http://hl7.eu/fhir/laboratory/StructureDefinition/Observation-resultslab-eu-lab"
          ]
        },
        "performer": [
          {
            "display": "The Central European Lab"
          }
        ],
        "category": [
          {
            "coding": [
              {
                "system": "http://terminology.hl7.org/CodeSystem/observation-category",
                "code": "laboratory"
              }
            ]
          }
        ],
        "code": {
          "coding": [
            {
              "code": "5770-3",
              "system": "http://loinc.org",
              "display": "Bilirubin.total [Presence] in Urine by Test strip"
            }
          ],
          "text": "Bilirubin.total [Presence] in Urine by Test strip"
        },
        "text": {
          "status": "generated",
          "div": "<div xmlns=\"http://www.w3.org/1999/xhtml\"><table class=\"hl7__eu__lab__report\"><tr><th>Test</th><th>14-Feb-2016</th><th>Reference&#xA0;Range</th><th>Unit</th></tr><tr><td>Bilirubin.total [Presence] in Urine by Test strip</td></tr></table></div>"
        },
        "status": "final",
        "subject": {
          "reference": "urn:uuid:8796cf04-4feb-45d0-adaf-70ded22b7d49",
          "display": "Iva Kratochvílová"
        },
        "effectiveDateTime": "2016-02-14T00:30:29Z",
        "specimen": {
          "reference": "urn:uuid:40f788de-4d0e-4046-a97a-34c105c148f2"
        }
      }
    },
    {
      "fullUrl": "urn:uuid:24c9344d-f5fe-47ad-99bb-f41eeffeb540",
      "resource": {
        "resourceType": "Observation",
        "id": "24c9344d-f5fe-47ad-99bb-f41eeffeb540",
        "meta": {
          "profile": [
            "http://hl7.eu/fhir/laboratory/StructureDefinition/Observation-resultslab-eu-lab"
          ]
        },
        "performer": [
          {
            "display": "The Central European Lab"
          }
        ],
        "category": [
          {
            "coding": [
              {
                "system": "http://terminology.hl7.org/CodeSystem/observation-category",
                "code": "laboratory"
              }
            ]
          }
        ],
        "code": {
          "coding": [
            {
              "code": "5797-6",
              "system": "http://loinc.org",
              "display": "Ketones [Mass/volume] in Urine by Test strip"
            }
          ],
          "text": "Ketones [Mass/volume] in Urine by Test strip"
        },
        "valueQuantity": {
          "system": "http://unitsofmeasure.org",
          "value": 17.5,
          "unit": "mg/dL",
          "code": "mg/dL"
        },
        "referenceRange": [
          {
            "low": {
              "value": 0,
              "code": "mg/dL",
              "system": "http://unitsofmeasure.org"
            }
          },
          {
            "high": {
              "value": 4,
              "code": "mg/dL",
              "system": "http://unitsofmeasure.org"
            }
          }
        ],
        "interpretation": [
          {
            "coding": [
              {
                "code": "H",
                "system": "http://terminology.hl7.org/CodeSystem/v3-ObservationInterpretation",
                "display": "High"
              }
            ]
          }
        ],
        "text": {
          "status": "generated",
          "div": "<div xmlns=\"http://www.w3.org/1999/xhtml\"><table class=\"hl7__eu__lab__report\"><tr><th>Test</th><th>14-Feb-2016</th><th>Reference&#xA0;Range</th><th>Unit</th></tr><tr><td>Ketones [Mass/volume] in Urine by Test strip</td><td>17.5</td><td>0 - 4</td><td>H</td><td>mg/dL</td></tr></table></div>"
        },
        "status": "final",
        "subject": {
          "reference": "urn:uuid:8796cf04-4feb-45d0-adaf-70ded22b7d49",
          "display": "Iva Kratochvílová"
        },
        "effectiveDateTime": "2016-02-14T00:30:29Z",
        "specimen": {
          "reference": "urn:uuid:40f788de-4d0e-4046-a97a-34c105c148f2"
        }
      }
    },
    {
      "fullUrl": "urn:uuid:872339bb-2d37-403e-99cd-e41dedfcfb5f",
      "resource": {
        "resourceType": "Observation",
        "id": "872339bb-2d37-403e-99cd-e41dedfcfb5f",
        "meta": {
          "profile": [
            "http://hl7.eu/fhir/laboratory/StructureDefinition/Observation-resultslab-eu-lab"
          ]
        },
        "performer": [
          {
            "display": "The Central European Lab"
          }
        ],
        "category": [
          {
            "coding": [
              {
                "system": "http://terminology.hl7.org/CodeSystem/observation-category",
                "code": "laboratory"
              }
            ]
          }
        ],
        "code": {
          "coding": [
            {
              "code": "2514-8",
              "system": "http://loinc.org",
              "display": "Ketones [Presence] in Urine by Test strip"
            }
          ],
          "text": "Ketones [Presence] in Urine by Test strip"
        },
        "text": {
          "status": "generated",
          "div": "<div xmlns=\"http://www.w3.org/1999/xhtml\"><table class=\"hl7__eu__lab__report\"><tr><th>Test</th><th>14-Feb-2016</th><th>Reference&#xA0;Range</th><th>Unit</th></tr><tr><td>Ketones [Presence] in Urine by Test strip</td></tr></table></div>"
        },
        "status": "final",
        "subject": {
          "reference": "urn:uuid:8796cf04-4feb-45d0-adaf-70ded22b7d49",
          "display": "Iva Kratochvílová"
        },
        "effectiveDateTime": "2016-02-14T00:30:29Z",
        "specimen": {
          "reference": "urn:uuid:40f788de-4d0e-4046-a97a-34c105c148f2"
        }
      }
    },
    {
      "fullUrl": "urn:uuid:9a0997f8-9846-479a-bfd3-da62c120c4d8",
      "resource": {
        "resourceType": "Observation",
        "id": "9a0997f8-9846-479a-bfd3-da62c120c4d8",
        "meta": {
          "profile": [
            "http://hl7.eu/fhir/laboratory/StructureDefinition/Observation-resultslab-eu-lab"
          ]
        },
        "performer": [
          {
            "display": "The Central European Lab"
          }
        ],
        "category": [
          {
            "coding": [
              {
                "system": "http://terminology.hl7.org/CodeSystem/observation-category",
                "code": "laboratory"
              }
            ]
          }
        ],
        "code": {
          "coding": [
            {
              "code": "5811-5",
              "system": "http://loinc.org",
              "display": "Specific gravity of Urine by Test strip"
            }
          ],
          "text": "Specific gravity of Urine by Test strip"
        },
        "valueQuantity": {
          "system": "http://unitsofmeasure.org",
          "value": 1,
          "unit": "{nominal}",
          "code": "{nominal}"
        },
        "referenceRange": [
          {
            "low": {
              "value": 1.005,
              "code": "g/mL",
              "system": "http://unitsofmeasure.org"
            }
          },
          {
            "high": {
              "value": 1.03,
              "code": "g/mL",
              "system": "http://unitsofmeasure.org"
            }
          }
        ],
        "interpretation": [
          {
            "coding": [
              {
                "code": "L",
                "system": "http://terminology.hl7.org/CodeSystem/v3-ObservationInterpretation",
                "display": "Low"
              }
            ]
          }
        ],
        "text": {
          "status": "generated",
          "div": "<div xmlns=\"http://www.w3.org/1999/xhtml\"><table class=\"hl7__eu__lab__report\"><tr><th>Test</th><th>14-Feb-2016</th><th>Reference&#xA0;Range</th><th>Unit</th></tr><tr><td>Specific gravity of Urine by Test strip</td><td>1.0</td><td>1.005 - 1.03</td><td>L</td><td>{nominal}</td></tr></table></div>"
        },
        "status": "final",
        "subject": {
          "reference": "urn:uuid:8796cf04-4feb-45d0-adaf-70ded22b7d49",
          "display": "Iva Kratochvílová"
        },
        "effectiveDateTime": "2016-02-14T00:30:29Z",
        "specimen": {
          "reference": "urn:uuid:40f788de-4d0e-4046-a97a-34c105c148f2"
        }
      }
    },
    {
      "fullUrl": "urn:uuid:49a369d7-73ff-456a-8423-edc2fc3e9388",
      "resource": {
        "resourceType": "Observation",
        "id": "49a369d7-73ff-456a-8423-edc2fc3e9388",
        "meta": {
          "profile": [
            "http://hl7.eu/fhir/laboratory/StructureDefinition/Observation-resultslab-eu-lab"
          ]
        },
        "performer": [
          {
            "display": "The Central European Lab"
          }
        ],
        "category": [
          {
            "coding": [
              {
                "system": "http://terminology.hl7.org/CodeSystem/observation-category",
                "code": "laboratory"
              }
            ]
          }
        ],
        "code": {
          "coding": [
            {
              "code": "5803-2",
              "system": "http://loinc.org",
              "display": "pH of Urine by Test strip"
            }
          ],
          "text": "pH of Urine by Test strip"
        },
        "valueQuantity": {
          "system": "http://unitsofmeasure.org",
          "value": 6,
          "unit": "pH",
          "code": "pH"
        },
        "referenceRange": [
          {
            "low": {
              "value": 4.5,
              "code": "pH",
              "system": "http://unitsofmeasure.org"
            }
          },
          {
            "high": {
              "value": 7,
              "code": "pH",
              "system": "http://unitsofmeasure.org"
            }
          }
        ],
        "text": {
          "status": "generated",
          "div": "<div xmlns=\"http://www.w3.org/1999/xhtml\"><table class=\"hl7__eu__lab__report\"><tr><th>Test</th><th>14-Feb-2016</th><th>Reference&#xA0;Range</th><th>Unit</th></tr><tr><td>pH of Urine by Test strip</td><td>6.0</td><td>4.5 - 7</td><td></td><td>pH</td></tr></table></div>"
        },
        "status": "final",
        "subject": {
          "reference": "urn:uuid:8796cf04-4feb-45d0-adaf-70ded22b7d49",
          "display": "Iva Kratochvílová"
        },
        "effectiveDateTime": "2016-02-14T00:30:29Z",
        "specimen": {
          "reference": "urn:uuid:40f788de-4d0e-4046-a97a-34c105c148f2"
        }
      }
    },
    {
      "fullUrl": "urn:uuid:5d4a74c3-7fc2-4f4f-ae8e-f6eb7d28487e",
      "resource": {
        "resourceType": "Observation",
        "id": "5d4a74c3-7fc2-4f4f-ae8e-f6eb7d28487e",
        "meta": {
          "profile": [
            "http://hl7.eu/fhir/laboratory/StructureDefinition/Observation-resultslab-eu-lab"
          ]
        },
        "performer": [
          {
            "display": "The Central European Lab"
          }
        ],
        "category": [
          {
            "coding": [
              {
                "system": "http://terminology.hl7.org/CodeSystem/observation-category",
                "code": "laboratory"
              }
            ]
          }
        ],
        "code": {
          "coding": [
            {
              "code": "5804-0",
              "system": "http://loinc.org",
              "display": "Protein [Mass/volume] in Urine by Test strip"
            }
          ],
          "text": "Protein [Mass/volume] in Urine by Test strip"
        },
        "valueQuantity": {
          "system": "http://unitsofmeasure.org",
          "value": 319.7,
          "unit": "mg/dL",
          "code": "mg/dL"
        },
        "referenceRange": [
          {
            "low": {
              "value": 0,
              "code": "mg/dL",
              "system": "http://unitsofmeasure.org"
            }
          },
          {
            "high": {
              "value": 145,
              "code": "mg/dL",
              "system": "http://unitsofmeasure.org"
            }
          }
        ],
        "interpretation": [
          {
            "coding": [
              {
                "code": "H",
                "system": "http://terminology.hl7.org/CodeSystem/v3-ObservationInterpretation",
                "display": "High"
              }
            ]
          }
        ],
        "text": {
          "status": "generated",
          "div": "<div xmlns=\"http://www.w3.org/1999/xhtml\"><table class=\"hl7__eu__lab__report\"><tr><th>Test</th><th>14-Feb-2016</th><th>Reference&#xA0;Range</th><th>Unit</th></tr><tr><td>Protein [Mass/volume] in Urine by Test strip</td><td>319.7</td><td>0 - 145</td><td>H</td><td>mg/dL</td></tr></table></div>"
        },
        "status": "final",
        "subject": {
          "reference": "urn:uuid:8796cf04-4feb-45d0-adaf-70ded22b7d49",
          "display": "Iva Kratochvílová"
        },
        "effectiveDateTime": "2016-02-14T00:30:29Z",
        "specimen": {
          "reference": "urn:uuid:40f788de-4d0e-4046-a97a-34c105c148f2"
        }
      }
    },
    {
      "fullUrl": "urn:uuid:e88ee387-4011-4764-aee3-add8035a71b0",
      "resource": {
        "resourceType": "Observation",
        "id": "e88ee387-4011-4764-aee3-add8035a71b0",
        "meta": {
          "profile": [
            "http://hl7.eu/fhir/laboratory/StructureDefinition/Observation-resultslab-eu-lab"
          ]
        },
        "performer": [
          {
            "display": "The Central European Lab"
          }
        ],
        "category": [
          {
            "coding": [
              {
                "system": "http://terminology.hl7.org/CodeSystem/observation-category",
                "code": "laboratory"
              }
            ]
          }
        ],
        "code": {
          "coding": [
            {
              "code": "20454-5",
              "system": "http://loinc.org",
              "display": "Protein [Presence] in Urine by Test strip"
            }
          ],
          "text": "Protein [Presence] in Urine by Test strip"
        },
        "text": {
          "status": "generated",
          "div": "<div xmlns=\"http://www.w3.org/1999/xhtml\"><table class=\"hl7__eu__lab__report\"><tr><th>Test</th><th>14-Feb-2016</th><th>Reference&#xA0;Range</th><th>Unit</th></tr><tr><td>Protein [Presence] in Urine by Test strip</td></tr></table></div>"
        },
        "status": "final",
        "subject": {
          "reference": "urn:uuid:8796cf04-4feb-45d0-adaf-70ded22b7d49",
          "display": "Iva Kratochvílová"
        },
        "effectiveDateTime": "2016-02-14T00:30:29Z",
        "specimen": {
          "reference": "urn:uuid:40f788de-4d0e-4046-a97a-34c105c148f2"
        }
      }
    },
    {
      "fullUrl": "urn:uuid:b8d31480-812d-42fb-b5fd-07594d365683",
      "resource": {
        "resourceType": "Observation",
        "id": "b8d31480-812d-42fb-b5fd-07594d365683",
        "meta": {
          "profile": [
            "http://hl7.eu/fhir/laboratory/StructureDefinition/Observation-resultslab-eu-lab"
          ]
        },
        "performer": [
          {
            "display": "The Central European Lab"
          }
        ],
        "category": [
          {
            "coding": [
              {
                "system": "http://terminology.hl7.org/CodeSystem/observation-category",
                "code": "laboratory"
              }
            ]
          }
        ],
        "code": {
          "coding": [
            {
              "code": "5802-4",
              "system": "http://loinc.org",
              "display": "Nitrite [Presence] in Urine by Test strip"
            }
          ],
          "text": "Nitrite [Presence] in Urine by Test strip"
        },
        "text": {
          "status": "generated",
          "div": "<div xmlns=\"http://www.w3.org/1999/xhtml\"><table class=\"hl7__eu__lab__report\"><tr><th>Test</th><th>14-Feb-2016</th><th>Reference&#xA0;Range</th><th>Unit</th></tr><tr><td>Nitrite [Presence] in Urine by Test strip</td></tr></table></div>"
        },
        "status": "final",
        "subject": {
          "reference": "urn:uuid:8796cf04-4feb-45d0-adaf-70ded22b7d49",
          "display": "Iva Kratochvílová"
        },
        "effectiveDateTime": "2016-02-14T00:30:29Z",
        "specimen": {
          "reference": "urn:uuid:40f788de-4d0e-4046-a97a-34c105c148f2"
        }
      }
    },
    {
      "fullUrl": "urn:uuid:1adeafb0-9e38-45fe-8397-8ffa61ea1680",
      "resource": {
        "resourceType": "Observation",
        "id": "1adeafb0-9e38-45fe-8397-8ffa61ea1680",
        "meta": {
          "profile": [
            "http://hl7.eu/fhir/laboratory/StructureDefinition/Observation-resultslab-eu-lab"
          ]
        },
        "performer": [
          {
            "display": "The Central European Lab"
          }
        ],
        "category": [
          {
            "coding": [
              {
                "system": "http://terminology.hl7.org/CodeSystem/observation-category",
                "code": "laboratory"
              }
            ]
          }
        ],
        "code": {
          "coding": [
            {
              "code": "5794-3",
              "system": "http://loinc.org",
              "display": "Hemoglobin [Presence] in Urine by Test strip"
            }
          ],
          "text": "Hemoglobin [Presence] in Urine by Test strip"
        },
        "text": {
          "status": "generated",
          "div": "<div xmlns=\"http://www.w3.org/1999/xhtml\"><table class=\"hl7__eu__lab__report\"><tr><th>Test</th><th>14-Feb-2016</th><th>Reference&#xA0;Range</th><th>Unit</th></tr><tr><td>Hemoglobin [Presence] in Urine by Test strip</td></tr></table></div>"
        },
        "status": "final",
        "subject": {
          "reference": "urn:uuid:8796cf04-4feb-45d0-adaf-70ded22b7d49",
          "display": "Iva Kratochvílová"
        },
        "effectiveDateTime": "2016-02-14T00:30:29Z",
        "specimen": {
          "reference": "urn:uuid:40f788de-4d0e-4046-a97a-34c105c148f2"
        }
      }
    },
    {
      "fullUrl": "urn:uuid:d1d702c2-7697-4021-acaf-2f69c2993f6b",
      "resource": {
        "resourceType": "Observation",
        "id": "d1d702c2-7697-4021-acaf-2f69c2993f6b",
        "meta": {
          "profile": [
            "http://hl7.eu/fhir/laboratory/StructureDefinition/Observation-resultslab-eu-lab"
          ]
        },
        "performer": [
          {
            "display": "The Central European Lab"
          }
        ],
        "category": [
          {
            "coding": [
              {
                "system": "http://terminology.hl7.org/CodeSystem/observation-category",
                "code": "laboratory"
              }
            ]
          }
        ],
        "code": {
          "coding": [
            {
              "code": "5799-2",
              "system": "http://loinc.org",
              "display": "Leukocyte esterase [Presence] in Urine by Test strip"
            }
          ],
          "text": "Leukocyte esterase [Presence] in Urine by Test strip"
        },
        "text": {
          "status": "generated",
          "div": "<div xmlns=\"http://www.w3.org/1999/xhtml\"><table class=\"hl7__eu__lab__report\"><tr><th>Test</th><th>14-Feb-2016</th><th>Reference&#xA0;Range</th><th>Unit</th></tr><tr><td>Leukocyte esterase [Presence] in Urine by Test strip</td></tr></table></div>"
        },
        "status": "final",
        "subject": {
          "reference": "urn:uuid:8796cf04-4feb-45d0-adaf-70ded22b7d49",
          "display": "Iva Kratochvílová"
        },
        "effectiveDateTime": "2016-02-14T00:30:29Z",
        "specimen": {
          "reference": "urn:uuid:40f788de-4d0e-4046-a97a-34c105c148f2"
        }
      }
    },
    {
      "fullUrl": "urn:uuid:0c99af3e-014c-49e6-bd6f-4e3161ad8724",
      "resource": {
        "resourceType": "Device",
        "id": "0c99af3e-014c-49e6-bd6f-4e3161ad8724",
        "deviceName": [
          {
            "name": "SYNDERAI Synthetic Generator",
            "type": "manufacturer-name"
          }
        ],
        "version": [
          {
            "value": "5.0"
          }
        ],
        "text": {
          "status": "generated",
          "div": "<div xmlns=\"http://www.w3.org/1999/xhtml\">SYNDERAI Synthetic Generator v5.0</div>"
        },
        "status": "active\"",
        "distinctIdentifier": "synderai-generator-50",
        "manufacturer": "SYNDERAI Project"
      }
    },
    {
      "fullUrl": "urn:uuid:c78b00d3-21d1-4a36-9894-e1ea4e05446d",
      "resource": {
        "resourceType": "Provenance",
        "id": "c78b00d3-21d1-4a36-9894-e1ea4e05446d",
        "target": [
          {
            "reference": "Patient/8796cf04-4feb-45d0-adaf-70ded22b7d49"
          },
          {
            "reference": "Bundle/f8e5f529-b5e9-490a-80e4-5c26398f3acf"
          },
          {
            "reference": "Composition/784cc07c-e682-4e59-84f3-20848b1f4e77"
          },
          {
            "reference": "PractitionerRole/0fa03f27-d471-45eb-818d-e4b8e07dcc67"
          },
          {
            "reference": "Practitioner/eeefd9d8-7be8-4a4f-965b-a82b2409cb25"
          },
          {
            "reference": "PractitionerRole/c02340b9-877f-43e7-88b5-8ea8223159be"
          },
          {
            "reference": "Organization/c74a3d3b-2432-4790-850b-c8ea28d5269d"
          }
        ],
        "activity": {
          "text": "Synthetic Example Data Generation"
        },
        "policy": [
          "https://synderai.net/synderai-synthetic-data-policy"
        ],
        "agent": [
          {
            "type": {
              "text": "author"
            },
            "who": {
              "reference": "Device/0c99af3e-014c-49e6-bd6f-4e3161ad8724"
            }
          }
        ],
        "reason": [
          {
            "text": "Interoperability Testing and Training (non-clinical use)"
          }
        ],
        "text": {
          "status": "generated",
          "div": "<div xmlns=\"http://www.w3.org/1999/xhtml\">Provenance for SYNDERAI Synthetic Example Data Resource</div>"
        },
        "recorded": "2016-02-14T01:30:29Z"
      }
    },
    {
      "fullUrl": "urn:uuid:0fa03f27-d471-45eb-818d-e4b8e07dcc67",
      "resource": {
        "resourceType": "PractitionerRole",
        "id": "0fa03f27-d471-45eb-818d-e4b8e07dcc67",
        "meta": {
          "profile": [
            "http://hl7.eu/fhir/base/StructureDefinition/practitionerRole-eu"
          ]
        },
        "text": {
          "status": "generated",
          "div": "<div xmlns=\"http://www.w3.org/1999/xhtml\">Laboratory Role Id: 0fa03f27-d471-45eb-818d-e4b8e07dcc67</div>"
        },
        "practitioner": {
          "reference": "urn:uuid:eeefd9d8-7be8-4a4f-965b-a82b2409cb25"
        }
      }
    },
    {
      "fullUrl": "urn:uuid:eeefd9d8-7be8-4a4f-965b-a82b2409cb25",
      "resource": {
        "resourceType": "Practitioner",
        "id": "eeefd9d8-7be8-4a4f-965b-a82b2409cb25",
        "meta": {
          "profile": [
            "http://hl7.eu/fhir/base/StructureDefinition/practitioner-eu"
          ]
        },
        "identifier": [
          {
            "assigner": {
              "display": "HL7 Europe"
            },
            "system": "urn:oid:2.16.840.1.113883.2.51.999",
            "value": "bdd98299-9496-4ec5-88db-26daff48e0dd"
          }
        ],
        "name": [
          {
            "prefix": [
              "dr"
            ],
            "given": [
              "Ex"
            ],
            "family": "Ample"
          }
        ],
        "address": [
          {
            "line": [
              "Laboratoire Central Européenne",
              "Boulevard du Jardin Botanique 32"
            ],
            "postalCode": "1000",
            "city": "Brussels",
            "country": "Belgium"
          }
        ],
        "text": {
          "status": "generated",
          "div": "<div xmlns=\"http://www.w3.org/1999/xhtml\">Laboratory: Laboratoire Central Européenne, 1000 Brussels, Belgium</div>"
        }
      }
    }
  ],
  "type": "document",
  "timestamp": "2016-02-14T01:30:29Z"
}
