{
  "resourceType": "Bundle",
  "id": "30e40354-e14f-49b8-bf3c-0fc986d3273f",
  "meta": {
    "profile": [
      "http://hl7.eu/fhir/laboratory/StructureDefinition/Bundle-eu-lab"
    ]
  },
  "identifier": {
    "assigner": {
      "display": "HL7 Europe"
    },
    "system": "urn:oid:2.16.840.1.113883.2.51.999",
    "value": "442fb904-a230-4083-9611-5b67df8b6ab2"
  },
  "entry": [
    {
      "fullUrl": "urn:uuid:abaff7ff-54ad-4508-9a98-0a58a91168c0",
      "resource": {
        "resourceType": "Composition",
        "id": "abaff7ff-54ad-4508-9a98-0a58a91168c0",
        "meta": {
          "profile": [
            "http://hl7.eu/fhir/laboratory/StructureDefinition/Composition-eu-lab"
          ]
        },
        "identifier": {
          "assigner": {
            "display": "HL7 Europe"
          },
          "system": "urn:oid:2.16.840.1.113883.2.51.999",
          "value": "b5d165ea-e3d1-444a-b2df-9d0a587b92df"
        },
        "author": [
          {
            "reference": "urn:uuid:c1aaad09-73ed-477b-9acf-ff359cbbd833"
          }
        ],
        "category": [
          {
            "coding": [
              {
                "code": "26436-6",
                "system": "http://loinc.org",
                "display": "Laboratory studies (set)"
              }
            ]
          }
        ],
        "type": {
          "coding": [
            {
              "code": "11502-2",
              "system": "http://loinc.org",
              "display": "Laboratory report"
            }
          ],
          "text": "Laboratory Report"
        },
        "section": [
          {
            "code": {
              "coding": [
                {
                  "code": "26436-6",
                  "system": "http://loinc.org",
                  "display": "Laboratory studies (set)"
                }
              ],
              "text": "Laboratory studies"
            },
            "section": [
              {
                "code": {
                  "coding": [
                    {
                      "code": "$18719-5",
                      "system": "http://loinc.org",
                      "display": "Chemistry studies (set)"
                    }
                  ],
                  "text": "Chemistry"
                },
                "entry": [
                  {
                    "reference": "urn:uuid:7ba56b46-3c7d-481d-b158-982d4e187e5c"
                  },
                  {
                    "reference": "urn:uuid:59342983-0d80-433e-9148-cebc95459c69"
                  },
                  {
                    "reference": "urn:uuid:a1eada76-300b-4b4e-b8dd-8a9602f4f873"
                  },
                  {
                    "reference": "urn:uuid:7e71dd4f-b2a2-4088-8b78-028680bee7bc"
                  },
                  {
                    "reference": "urn:uuid:31b6de33-192e-4812-9f4c-dddea1ada068"
                  },
                  {
                    "reference": "urn:uuid:57f61bca-8d74-47bf-8ca7-4d755b13ff20"
                  },
                  {
                    "reference": "urn:uuid:e5733857-339b-4bf2-aa08-9ce81ce66e7e"
                  },
                  {
                    "reference": "urn:uuid:e92932e6-ecb1-4f8a-9ab3-23bf02acb25a"
                  },
                  {
                    "reference": "urn:uuid:30499b9f-5bba-4312-97c7-91bd7100df43"
                  },
                  {
                    "reference": "urn:uuid:9c0e6924-298c-4c47-8b6c-3909230fba16"
                  },
                  {
                    "reference": "urn:uuid:c497258e-14fb-43cd-82a2-0fe11c947638"
                  },
                  {
                    "reference": "urn:uuid:f8c53ae4-21f6-40dc-8ebd-5c28cb0641fd"
                  },
                  {
                    "reference": "urn:uuid:669978fe-4af2-4906-84d4-fda7bfce2fb7"
                  }
                ],
                "text": {
                  "status": "generated",
                  "div": "<div xmlns=\"http://www.w3.org/1999/xhtml\"><h3>Chemistry</h3><table class=\"hl7__eu__lab__report\"><thead><tr><th>Test</th><th>18-JAN-2017</th><th>Reference&#xA0;Range</th><th>Unit</th></tr></thead><tbody><tr><td>Hemoglobin A1c/Hemoglobin.total in Blood</td><td><strong>6.4 H</strong></td><td>4 - 6</td><td>%</td></tr><tr><td>Glucose [Mass/volume] in Blood</td><td>87.7</td><td>70 - 140</td><td>mg/dL</td></tr><tr><td>Urea nitrogen [Mass/volume] in Blood</td><td>9.0</td><td>7 - 50</td><td>mg/dL</td></tr><tr><td>Creatinine [Mass/volume] in Blood</td><td>0.7</td><td>0.5 - 1.3</td><td>mg/dL</td></tr><tr><td>Calcium [Mass/volume] in Blood</td><td>9.2</td><td>8.5 - 10.4</td><td>mg/dL</td></tr><tr><td>Sodium [Moles/volume] in Blood</td><td>136.9</td><td>135 - 145</td><td>mmol/L</td></tr><tr><td>Potassium [Moles/volume] in Blood</td><td>4.1</td><td>3.5 - 5.3</td><td>mmol/L</td></tr><tr><td>Chloride [Moles/volume] in Blood</td><td>108.0</td><td>98 - 110</td><td>mmol/L</td></tr><tr><td>Carbon dioxide, total [Moles/volume] in Blood</td><td>27.3</td><td>22 - 32</td><td>mmol/L</td></tr><tr><td>Cholesterol [Mass/volume] in Serum or Plasma</td><td>165.5</td><td>125 - 200</td><td>mg/dL</td></tr><tr><td>Triglyceride [Mass/volume] in Serum or Plasma</td><td>138.5</td><td>0 - 199</td><td>mg/dL</td></tr><tr><td>Cholesterol in LDL [Mass/volume] in Serum or Plasma by Direct assay</td><td>102.8</td><td>0 - 130</td><td>mg/dL</td></tr><tr><td>Cholesterol in HDL [Mass/volume] in Serum or Plasma</td><td><strong>34.9 L</strong></td><td>50 - 100</td><td>mg/dL</td></tr></tbody></table></div>"
                },
                "title": "Chemistry"
              }
            ],
            "title": "Laboratory Report"
          },
          {
            "text": {
              "status": "generated",
              "div": "<div xmlns=\"http://www.w3.org/1999/xhtml\"><h3>Annotation</h3><table class=\"hl7__eu__lab__report\"><tr><th>Conclusion and Recommendations based on this report and previous findings known to us</th></tr><tr><td>The patient shows mildly elevated HbA1c (6.4%), indicating impaired glucose control or possible diabetes. All other metabolic and renal parameters are within normal limits. Lipid profile reveals low HDL cholesterol (34.9 mg/dL), which is a cardiovascular risk factor. Recommend further evaluation and management of glycemic control and measures to increase HDL.</td></tr></table></div>"
            },
            "code": {
              "coding": [
                {
                  "system": "http://loinc.org",
                  "code": "48767-8",
                  "display": "Annotation comment"
                }
              ]
            },
            "title": "Annotation comment"
          }
        ],
        "status": "final",
        "subject": {
          "reference": "urn:uuid:486bfa78-4013-4959-a1b4-8f50e4b5ef5e",
          "display": "Jele Jurković"
        },
        "date": "2017-01-18T19:07:38Z",
        "title": "Laboratory Report",
        "confidentiality": "N"
      }
    },
    {
      "fullUrl": "urn:uuid:286dc52a-6dd1-41ad-8118-3a597a0e63a0",
      "resource": {
        "resourceType": "DiagnosticReport",
        "id": "286dc52a-6dd1-41ad-8118-3a597a0e63a0",
        "meta": {
          "profile": [
            "http://hl7.eu/fhir/laboratory/StructureDefinition/DiagnosticReport-eu-lab"
          ]
        },
        "identifier": [
          {
            "assigner": {
              "display": "HL7 Europe"
            },
            "system": "urn:oid:2.16.840.1.113883.2.51.999",
            "value": "70cc8dbf-c91e-40d9-ae21-dddd966ce5d7"
          }
        ],
        "extension": [
          {
            "url": "http://hl7.org/fhir/5.0/StructureDefinition/extension-DiagnosticReport.composition",
            "valueReference": {
              "reference": "urn:uuid:b5d165ea-e3d1-444a-b2df-9d0a587b92df"
            }
          }
        ],
        "category": [
          {
            "coding": [
              {
                "code": "26436-6",
                "system": "http://loinc.org",
                "display": "Laboratory studies (set)"
              }
            ]
          }
        ],
        "specimen": [
          {
            "reference": "urn:uuid:58f01038-a0c9-4d59-b42a-1ab80c92c55c"
          },
          {
            "reference": "urn:uuid:a8f5ce2b-e03f-4ba9-9098-4f50200aac56"
          }
        ],
        "result": [
          {
            "reference": "urn:uuid:7ba56b46-3c7d-481d-b158-982d4e187e5c"
          },
          {
            "reference": "urn:uuid:59342983-0d80-433e-9148-cebc95459c69"
          },
          {
            "reference": "urn:uuid:a1eada76-300b-4b4e-b8dd-8a9602f4f873"
          },
          {
            "reference": "urn:uuid:7e71dd4f-b2a2-4088-8b78-028680bee7bc"
          },
          {
            "reference": "urn:uuid:31b6de33-192e-4812-9f4c-dddea1ada068"
          },
          {
            "reference": "urn:uuid:57f61bca-8d74-47bf-8ca7-4d755b13ff20"
          },
          {
            "reference": "urn:uuid:e5733857-339b-4bf2-aa08-9ce81ce66e7e"
          },
          {
            "reference": "urn:uuid:e92932e6-ecb1-4f8a-9ab3-23bf02acb25a"
          },
          {
            "reference": "urn:uuid:30499b9f-5bba-4312-97c7-91bd7100df43"
          },
          {
            "reference": "urn:uuid:9c0e6924-298c-4c47-8b6c-3909230fba16"
          },
          {
            "reference": "urn:uuid:c497258e-14fb-43cd-82a2-0fe11c947638"
          },
          {
            "reference": "urn:uuid:f8c53ae4-21f6-40dc-8ebd-5c28cb0641fd"
          },
          {
            "reference": "urn:uuid:669978fe-4af2-4906-84d4-fda7bfce2fb7"
          }
        ],
        "status": "registered",
        "code": {
          "coding": [
            {
              "code": "11502-2",
              "system": "http://loinc.org",
              "display": "Laboratory report"
            }
          ]
        },
        "subject": {
          "reference": "urn:uuid:486bfa78-4013-4959-a1b4-8f50e4b5ef5e",
          "display": "Jele Jurković"
        }
      }
    },
    {
      "fullUrl": "urn:uuid:486bfa78-4013-4959-a1b4-8f50e4b5ef5e",
      "resource": {
        "resourceType": "Patient",
        "id": "486bfa78-4013-4959-a1b4-8f50e4b5ef5e",
        "meta": {
          "security": [
            {
              "system": "http://terminology.hl7.org/CodeSystem/v3-ActReason",
              "code": "HTEST"
            },
            {
              "system": "http://terminology.hl7.org/CodeSystem/v3-ActReason",
              "code": "TRAIN"
            }
          ],
          "tag": [
            {
              "system": "https://synderai.net/fhir/CodeSystem/tags",
              "code": "synthetic",
              "display": "SYNDERAI Synthetic data"
            }
          ],
          "profile": [
            "http://hl7.eu/fhir/base/StructureDefinition/patient-eu-core"
          ]
        },
        "identifier": [
          {
            "type": {
              "coding": [
                {
                  "code": "PT",
                  "system": "http://terminology.hl7.org/CodeSystem/v2-0203"
                }
              ]
            },
            "system": "http://ec.europa.eu/identifier/eci",
            "value": "3583-291434-1"
          },
          {
            "type": {
              "coding": [
                {
                  "code": "MR",
                  "system": "http://terminology.hl7.org/CodeSystem/v2-0203"
                }
              ]
            },
            "system": "http://local.setting.eu/identifier",
            "value": "9d4fea2d-eece-b99f-3e16-832f0f5813f5"
          }
        ],
        "name": [
          {
            "family": "Jurković"
          },
          {
            "given": [
              "Jele"
            ]
          },
          {
            "text": "Jele Jurković"
          }
        ],
        "address": [
          {
            "line": [
              "Klesarski put 7b/8"
            ],
            "use": "home",
            "type": "physical",
            "postalCode": "34310",
            "city": "Pleternica",
            "country": "Croatia"
          }
        ],
        "telecom": [
          {
            "system": "phone",
            "value": "021 083 354"
          }
        ],
        "extension": [
          {
            "url": "http://hl7.org/fhir/StructureDefinition/patient-nationality",
            "valueCodeableConcept": {
              "coding": [
                {
                  "code": "HR",
                  "system": "http://hl7.org/fhir/ValueSet/country"
                }
              ]
            }
          }
        ],
        "text": {
          "status": "generated",
          "div": "<div xmlns=\"http://www.w3.org/1999/xhtml\"><table class=\"hl7__ips\"><tr><td>Jele Jurković</td><td>female</td><td>07-Jan-1953</td></tr></table></div>"
        },
        "gender": "female",
        "birthDate": "1953-01-07"
      }
    },
    {
      "fullUrl": "urn:uuid:7001c649-a604-4fd8-8e0a-6b63a170cf79",
      "resource": {
        "resourceType": "ServiceRequest",
        "id": "7001c649-a604-4fd8-8e0a-6b63a170cf79",
        "meta": {
          "profile": [
            "http://hl7.eu/fhir/laboratory/StructureDefinition/ServiceRequest-eu-lab"
          ]
        },
        "identifier": [
          {
            "system": "http://example.org",
            "value": "f4a9df1e-c201-4455-a55a-6eafd0089f94"
          }
        ],
        "specimen": [
          {
            "reference": "urn:uuid:58f01038-a0c9-4d59-b42a-1ab80c92c55c"
          },
          {
            "reference": "urn:uuid:a8f5ce2b-e03f-4ba9-9098-4f50200aac56"
          }
        ],
        "reasonCode": [
          {
            "coding": [
              {
                "code": "64859006",
                "system": "http://snomed.info/sct",
                "display": "Osteoporosis"
              }
            ]
          },
          {
            "coding": [
              {
                "code": "6525002",
                "system": "http://snomed.info/sct",
                "display": "Dependent drug abuse"
              }
            ]
          },
          {
            "coding": [
              {
                "code": "15777000",
                "system": "http://snomed.info/sct",
                "display": "Prediabetes"
              }
            ]
          }
        ],
        "status": "active",
        "intent": "order",
        "code": {
          "coding": [
            {
              "code": "108252007",
              "system": "http://snomed.info/sct",
              "display": "Laboratory procedure"
            }
          ]
        },
        "subject": {
          "reference": "urn:uuid:486bfa78-4013-4959-a1b4-8f50e4b5ef5e",
          "display": "Jele Jurković"
        },
        "requester": {
          "reference": "urn:uuid:d3b4c004-ff89-484b-9a0c-aaf074a876a5"
        }
      }
    },
    {
      "fullUrl": "urn:uuid:d3b4c004-ff89-484b-9a0c-aaf074a876a5",
      "resource": {
        "resourceType": "PractitionerRole",
        "id": "d3b4c004-ff89-484b-9a0c-aaf074a876a5",
        "meta": {
          "profile": [
            "http://hl7.eu/fhir/base/StructureDefinition/practitionerRole-eu"
          ]
        },
        "text": {
          "status": "generated",
          "div": "<div xmlns=\"http://www.w3.org/1999/xhtml\">Provider Role Id: d3b4c004-ff89-484b-9a0c-aaf074a876a5</div>"
        },
        "organization": {
          "reference": "urn:uuid:81d32c21-eb53-4243-aff2-965af6f33d8f"
        }
      }
    },
    {
      "fullUrl": "urn:uuid:81d32c21-eb53-4243-aff2-965af6f33d8f",
      "resource": {
        "resourceType": "Organization",
        "id": "81d32c21-eb53-4243-aff2-965af6f33d8f",
        "meta": {
          "profile": [
            "http://hl7.eu/fhir/base/StructureDefinition/organization-eu"
          ]
        },
        "identifier": [
          {
            "assigner": {
              "display": "HL7 Europe"
            },
            "system": "urn:oid:2.16.840.1.113883.2.51.999",
            "value": "112c421c-67c4-4d1b-88a5-d66a4abe1700"
          }
        ],
        "address": [
          {
            "line": [
              "Osječka ulica 107"
            ],
            "city": "Požega",
            "postalCode": "34000",
            "country": "Croatia"
          }
        ],
        "text": {
          "status": "generated",
          "div": "<div xmlns=\"http://www.w3.org/1999/xhtml\">Provider Organization: Opća županijska bolnica Požega</div>"
        },
        "name": "Opća županijska bolnica Požega"
      }
    },
    {
      "fullUrl": "urn:uuid:58f01038-a0c9-4d59-b42a-1ab80c92c55c",
      "resource": {
        "resourceType": "Specimen",
        "id": "58f01038-a0c9-4d59-b42a-1ab80c92c55c",
        "meta": {
          "profile": [
            "http://hl7.eu/fhir/laboratory/StructureDefinition/Specimen-eu-lab"
          ]
        },
        "collection": {
          "collectedDateTime": "2017-01-18"
        },
        "text": {
          "status": "generated",
          "div": "<div xmlns=\"http://www.w3.org/1999/xhtml\"><table class=\"hl7__eu__lab__report\"><tr><th>Specimen</th><th>Collection Date</th></tr><tr><td>Whole blood specimen (specimen)</td><td><span class=\"nb\">18-Jan-2017</span></td></tr></table></div>"
        },
        "type": {
          "coding": [
            {
              "code": "258580003",
              "system": "http://snomed.info/sct",
              "display": "Whole blood specimen (specimen)"
            }
          ]
        }
      }
    },
    {
      "fullUrl": "urn:uuid:a8f5ce2b-e03f-4ba9-9098-4f50200aac56",
      "resource": {
        "resourceType": "Specimen",
        "id": "a8f5ce2b-e03f-4ba9-9098-4f50200aac56",
        "meta": {
          "profile": [
            "http://hl7.eu/fhir/laboratory/StructureDefinition/Specimen-eu-lab"
          ]
        },
        "collection": {
          "collectedDateTime": "2017-01-18"
        },
        "text": {
          "status": "generated",
          "div": "<div xmlns=\"http://www.w3.org/1999/xhtml\"><table class=\"hl7__eu__lab__report\"><tr><th>Specimen</th><th>Collection Date</th></tr><tr><td>Acellular blood (serum or plasma) specimen</td><td><span class=\"nb\">18-Jan-2017</span></td></tr></table></div>"
        },
        "type": {
          "coding": [
            {
              "code": "122592007",
              "system": "http://snomed.info/sct",
              "display": "Acellular blood (serum or plasma) specimen"
            }
          ]
        }
      }
    },
    {
      "fullUrl": "urn:uuid:7ba56b46-3c7d-481d-b158-982d4e187e5c",
      "resource": {
        "resourceType": "Observation",
        "id": "7ba56b46-3c7d-481d-b158-982d4e187e5c",
        "meta": {
          "profile": [
            "http://hl7.eu/fhir/laboratory/StructureDefinition/Observation-resultslab-eu-lab"
          ]
        },
        "performer": [
          {
            "display": "The Central European Lab"
          }
        ],
        "category": [
          {
            "coding": [
              {
                "system": "http://terminology.hl7.org/CodeSystem/observation-category",
                "code": "laboratory"
              }
            ]
          }
        ],
        "code": {
          "coding": [
            {
              "code": "4548-4",
              "system": "http://loinc.org",
              "display": "Hemoglobin A1c/Hemoglobin.total in Blood"
            }
          ],
          "text": "Hemoglobin A1c/Hemoglobin.total in Blood"
        },
        "valueQuantity": {
          "system": "http://unitsofmeasure.org",
          "value": 6.4,
          "unit": "%",
          "code": "%"
        },
        "referenceRange": [
          {
            "low": {
              "value": 4,
              "code": "%",
              "system": "http://unitsofmeasure.org"
            }
          },
          {
            "high": {
              "value": 6,
              "code": "%",
              "system": "http://unitsofmeasure.org"
            }
          }
        ],
        "interpretation": [
          {
            "coding": [
              {
                "code": "H",
                "system": "http://terminology.hl7.org/CodeSystem/v3-ObservationInterpretation",
                "display": "High"
              }
            ]
          }
        ],
        "text": {
          "status": "generated",
          "div": "<div xmlns=\"http://www.w3.org/1999/xhtml\"><table class=\"hl7__eu__lab__report\"><tr><th>Test</th><th>18-Jan-2017</th><th>Reference&#xA0;Range</th><th>Unit</th></tr><tr><td>Hemoglobin A1c/Hemoglobin.total in Blood</td><td>6.4</td><td>4 - 6</td><td>H</td><td>%</td></tr></table></div>"
        },
        "status": "final",
        "subject": {
          "reference": "urn:uuid:486bfa78-4013-4959-a1b4-8f50e4b5ef5e",
          "display": "Jele Jurković"
        },
        "effectiveDateTime": "2017-01-18T18:07:38Z",
        "specimen": {
          "reference": "urn:uuid:58f01038-a0c9-4d59-b42a-1ab80c92c55c"
        }
      }
    },
    {
      "fullUrl": "urn:uuid:59342983-0d80-433e-9148-cebc95459c69",
      "resource": {
        "resourceType": "Observation",
        "id": "59342983-0d80-433e-9148-cebc95459c69",
        "meta": {
          "profile": [
            "http://hl7.eu/fhir/laboratory/StructureDefinition/Observation-resultslab-eu-lab"
          ]
        },
        "performer": [
          {
            "display": "The Central European Lab"
          }
        ],
        "category": [
          {
            "coding": [
              {
                "system": "http://terminology.hl7.org/CodeSystem/observation-category",
                "code": "laboratory"
              }
            ]
          }
        ],
        "code": {
          "coding": [
            {
              "code": "2339-0",
              "system": "http://loinc.org",
              "display": "Glucose [Mass/volume] in Blood"
            }
          ],
          "text": "Glucose [Mass/volume] in Blood"
        },
        "valueQuantity": {
          "system": "http://unitsofmeasure.org",
          "value": 87.7,
          "unit": "mg/dL",
          "code": "mg/dL"
        },
        "referenceRange": [
          {
            "low": {
              "value": 70,
              "code": "mg/dL",
              "system": "http://unitsofmeasure.org"
            }
          },
          {
            "high": {
              "value": 140,
              "code": "mg/dL",
              "system": "http://unitsofmeasure.org"
            }
          }
        ],
        "text": {
          "status": "generated",
          "div": "<div xmlns=\"http://www.w3.org/1999/xhtml\"><table class=\"hl7__eu__lab__report\"><tr><th>Test</th><th>18-Jan-2017</th><th>Reference&#xA0;Range</th><th>Unit</th></tr><tr><td>Glucose [Mass/volume] in Blood</td><td>87.7</td><td>70 - 140</td><td></td><td>mg/dL</td></tr></table></div>"
        },
        "status": "final",
        "subject": {
          "reference": "urn:uuid:486bfa78-4013-4959-a1b4-8f50e4b5ef5e",
          "display": "Jele Jurković"
        },
        "effectiveDateTime": "2017-01-18T18:07:38Z",
        "specimen": {
          "reference": "urn:uuid:58f01038-a0c9-4d59-b42a-1ab80c92c55c"
        }
      }
    },
    {
      "fullUrl": "urn:uuid:a1eada76-300b-4b4e-b8dd-8a9602f4f873",
      "resource": {
        "resourceType": "Observation",
        "id": "a1eada76-300b-4b4e-b8dd-8a9602f4f873",
        "meta": {
          "profile": [
            "http://hl7.eu/fhir/laboratory/StructureDefinition/Observation-resultslab-eu-lab"
          ]
        },
        "performer": [
          {
            "display": "The Central European Lab"
          }
        ],
        "category": [
          {
            "coding": [
              {
                "system": "http://terminology.hl7.org/CodeSystem/observation-category",
                "code": "laboratory"
              }
            ]
          }
        ],
        "code": {
          "coding": [
            {
              "code": "6299-2",
              "system": "http://loinc.org",
              "display": "Urea nitrogen [Mass/volume] in Blood"
            }
          ],
          "text": "Urea nitrogen [Mass/volume] in Blood"
        },
        "valueQuantity": {
          "system": "http://unitsofmeasure.org",
          "value": 9,
          "unit": "mg/dL",
          "code": "mg/dL"
        },
        "referenceRange": [
          {
            "low": {
              "value": 7,
              "code": "mg/dL",
              "system": "http://unitsofmeasure.org"
            }
          },
          {
            "high": {
              "value": 50,
              "code": "mg/dL",
              "system": "http://unitsofmeasure.org"
            }
          }
        ],
        "text": {
          "status": "generated",
          "div": "<div xmlns=\"http://www.w3.org/1999/xhtml\"><table class=\"hl7__eu__lab__report\"><tr><th>Test</th><th>18-Jan-2017</th><th>Reference&#xA0;Range</th><th>Unit</th></tr><tr><td>Urea nitrogen [Mass/volume] in Blood</td><td>9.0</td><td>7 - 50</td><td></td><td>mg/dL</td></tr></table></div>"
        },
        "status": "final",
        "subject": {
          "reference": "urn:uuid:486bfa78-4013-4959-a1b4-8f50e4b5ef5e",
          "display": "Jele Jurković"
        },
        "effectiveDateTime": "2017-01-18T18:07:38Z",
        "specimen": {
          "reference": "urn:uuid:58f01038-a0c9-4d59-b42a-1ab80c92c55c"
        }
      }
    },
    {
      "fullUrl": "urn:uuid:7e71dd4f-b2a2-4088-8b78-028680bee7bc",
      "resource": {
        "resourceType": "Observation",
        "id": "7e71dd4f-b2a2-4088-8b78-028680bee7bc",
        "meta": {
          "profile": [
            "http://hl7.eu/fhir/laboratory/StructureDefinition/Observation-resultslab-eu-lab"
          ]
        },
        "performer": [
          {
            "display": "The Central European Lab"
          }
        ],
        "category": [
          {
            "coding": [
              {
                "system": "http://terminology.hl7.org/CodeSystem/observation-category",
                "code": "laboratory"
              }
            ]
          }
        ],
        "code": {
          "coding": [
            {
              "code": "38483-4",
              "system": "http://loinc.org",
              "display": "Creatinine [Mass/volume] in Blood"
            }
          ],
          "text": "Creatinine [Mass/volume] in Blood"
        },
        "valueQuantity": {
          "system": "http://unitsofmeasure.org",
          "value": 0.7,
          "unit": "mg/dL",
          "code": "mg/dL"
        },
        "referenceRange": [
          {
            "low": {
              "value": 0.5,
              "code": "mg/dL",
              "system": "http://unitsofmeasure.org"
            }
          },
          {
            "high": {
              "value": 1.3,
              "code": "mg/dL",
              "system": "http://unitsofmeasure.org"
            }
          }
        ],
        "text": {
          "status": "generated",
          "div": "<div xmlns=\"http://www.w3.org/1999/xhtml\"><table class=\"hl7__eu__lab__report\"><tr><th>Test</th><th>18-Jan-2017</th><th>Reference&#xA0;Range</th><th>Unit</th></tr><tr><td>Creatinine [Mass/volume] in Blood</td><td>0.7</td><td>0.5 - 1.3</td><td></td><td>mg/dL</td></tr></table></div>"
        },
        "status": "final",
        "subject": {
          "reference": "urn:uuid:486bfa78-4013-4959-a1b4-8f50e4b5ef5e",
          "display": "Jele Jurković"
        },
        "effectiveDateTime": "2017-01-18T18:07:38Z",
        "specimen": {
          "reference": "urn:uuid:58f01038-a0c9-4d59-b42a-1ab80c92c55c"
        }
      }
    },
    {
      "fullUrl": "urn:uuid:31b6de33-192e-4812-9f4c-dddea1ada068",
      "resource": {
        "resourceType": "Observation",
        "id": "31b6de33-192e-4812-9f4c-dddea1ada068",
        "meta": {
          "profile": [
            "http://hl7.eu/fhir/laboratory/StructureDefinition/Observation-resultslab-eu-lab"
          ]
        },
        "performer": [
          {
            "display": "The Central European Lab"
          }
        ],
        "category": [
          {
            "coding": [
              {
                "system": "http://terminology.hl7.org/CodeSystem/observation-category",
                "code": "laboratory"
              }
            ]
          }
        ],
        "code": {
          "coding": [
            {
              "code": "49765-1",
              "system": "http://loinc.org",
              "display": "Calcium [Mass/volume] in Blood"
            }
          ],
          "text": "Calcium [Mass/volume] in Blood"
        },
        "valueQuantity": {
          "system": "http://unitsofmeasure.org",
          "value": 9.2,
          "unit": "mg/dL",
          "code": "mg/dL"
        },
        "referenceRange": [
          {
            "low": {
              "value": 8.5,
              "code": "mg/dL",
              "system": "http://unitsofmeasure.org"
            }
          },
          {
            "high": {
              "value": 10.4,
              "code": "mg/dL",
              "system": "http://unitsofmeasure.org"
            }
          }
        ],
        "text": {
          "status": "generated",
          "div": "<div xmlns=\"http://www.w3.org/1999/xhtml\"><table class=\"hl7__eu__lab__report\"><tr><th>Test</th><th>18-Jan-2017</th><th>Reference&#xA0;Range</th><th>Unit</th></tr><tr><td>Calcium [Mass/volume] in Blood</td><td>9.2</td><td>8.5 - 10.4</td><td></td><td>mg/dL</td></tr></table></div>"
        },
        "status": "final",
        "subject": {
          "reference": "urn:uuid:486bfa78-4013-4959-a1b4-8f50e4b5ef5e",
          "display": "Jele Jurković"
        },
        "effectiveDateTime": "2017-01-18T18:07:38Z",
        "specimen": {
          "reference": "urn:uuid:58f01038-a0c9-4d59-b42a-1ab80c92c55c"
        }
      }
    },
    {
      "fullUrl": "urn:uuid:57f61bca-8d74-47bf-8ca7-4d755b13ff20",
      "resource": {
        "resourceType": "Observation",
        "id": "57f61bca-8d74-47bf-8ca7-4d755b13ff20",
        "meta": {
          "profile": [
            "http://hl7.eu/fhir/laboratory/StructureDefinition/Observation-resultslab-eu-lab"
          ]
        },
        "performer": [
          {
            "display": "The Central European Lab"
          }
        ],
        "category": [
          {
            "coding": [
              {
                "system": "http://terminology.hl7.org/CodeSystem/observation-category",
                "code": "laboratory"
              }
            ]
          }
        ],
        "code": {
          "coding": [
            {
              "code": "2947-0",
              "system": "http://loinc.org",
              "display": "Sodium [Moles/volume] in Blood"
            }
          ],
          "text": "Sodium [Moles/volume] in Blood"
        },
        "valueQuantity": {
          "system": "http://unitsofmeasure.org",
          "value": 136.9,
          "unit": "mmol/L",
          "code": "mmol/L"
        },
        "referenceRange": [
          {
            "low": {
              "value": 135,
              "code": "mmol/L",
              "system": "http://unitsofmeasure.org"
            }
          },
          {
            "high": {
              "value": 145,
              "code": "mmol/L",
              "system": "http://unitsofmeasure.org"
            }
          }
        ],
        "text": {
          "status": "generated",
          "div": "<div xmlns=\"http://www.w3.org/1999/xhtml\"><table class=\"hl7__eu__lab__report\"><tr><th>Test</th><th>18-Jan-2017</th><th>Reference&#xA0;Range</th><th>Unit</th></tr><tr><td>Sodium [Moles/volume] in Blood</td><td>136.9</td><td>135 - 145</td><td></td><td>mmol/L</td></tr></table></div>"
        },
        "status": "final",
        "subject": {
          "reference": "urn:uuid:486bfa78-4013-4959-a1b4-8f50e4b5ef5e",
          "display": "Jele Jurković"
        },
        "effectiveDateTime": "2017-01-18T18:07:38Z",
        "specimen": {
          "reference": "urn:uuid:58f01038-a0c9-4d59-b42a-1ab80c92c55c"
        }
      }
    },
    {
      "fullUrl": "urn:uuid:e5733857-339b-4bf2-aa08-9ce81ce66e7e",
      "resource": {
        "resourceType": "Observation",
        "id": "e5733857-339b-4bf2-aa08-9ce81ce66e7e",
        "meta": {
          "profile": [
            "http://hl7.eu/fhir/laboratory/StructureDefinition/Observation-resultslab-eu-lab"
          ]
        },
        "performer": [
          {
            "display": "The Central European Lab"
          }
        ],
        "category": [
          {
            "coding": [
              {
                "system": "http://terminology.hl7.org/CodeSystem/observation-category",
                "code": "laboratory"
              }
            ]
          }
        ],
        "code": {
          "coding": [
            {
              "code": "6298-4",
              "system": "http://loinc.org",
              "display": "Potassium [Moles/volume] in Blood"
            }
          ],
          "text": "Potassium [Moles/volume] in Blood"
        },
        "valueQuantity": {
          "system": "http://unitsofmeasure.org",
          "value": 4.1,
          "unit": "mmol/L",
          "code": "mmol/L"
        },
        "referenceRange": [
          {
            "low": {
              "value": 3.5,
              "code": "mmol/L",
              "system": "http://unitsofmeasure.org"
            }
          },
          {
            "high": {
              "value": 5.3,
              "code": "mmol/L",
              "system": "http://unitsofmeasure.org"
            }
          }
        ],
        "text": {
          "status": "generated",
          "div": "<div xmlns=\"http://www.w3.org/1999/xhtml\"><table class=\"hl7__eu__lab__report\"><tr><th>Test</th><th>18-Jan-2017</th><th>Reference&#xA0;Range</th><th>Unit</th></tr><tr><td>Potassium [Moles/volume] in Blood</td><td>4.1</td><td>3.5 - 5.3</td><td></td><td>mmol/L</td></tr></table></div>"
        },
        "status": "final",
        "subject": {
          "reference": "urn:uuid:486bfa78-4013-4959-a1b4-8f50e4b5ef5e",
          "display": "Jele Jurković"
        },
        "effectiveDateTime": "2017-01-18T18:07:38Z",
        "specimen": {
          "reference": "urn:uuid:58f01038-a0c9-4d59-b42a-1ab80c92c55c"
        }
      }
    },
    {
      "fullUrl": "urn:uuid:e92932e6-ecb1-4f8a-9ab3-23bf02acb25a",
      "resource": {
        "resourceType": "Observation",
        "id": "e92932e6-ecb1-4f8a-9ab3-23bf02acb25a",
        "meta": {
          "profile": [
            "http://hl7.eu/fhir/laboratory/StructureDefinition/Observation-resultslab-eu-lab"
          ]
        },
        "performer": [
          {
            "display": "The Central European Lab"
          }
        ],
        "category": [
          {
            "coding": [
              {
                "system": "http://terminology.hl7.org/CodeSystem/observation-category",
                "code": "laboratory"
              }
            ]
          }
        ],
        "code": {
          "coding": [
            {
              "code": "2069-3",
              "system": "http://loinc.org",
              "display": "Chloride [Moles/volume] in Blood"
            }
          ],
          "text": "Chloride [Moles/volume] in Blood"
        },
        "valueQuantity": {
          "system": "http://unitsofmeasure.org",
          "value": 108,
          "unit": "mmol/L",
          "code": "mmol/L"
        },
        "referenceRange": [
          {
            "low": {
              "value": 98,
              "code": "mmol/L",
              "system": "http://unitsofmeasure.org"
            }
          },
          {
            "high": {
              "value": 110,
              "code": "mmol/L",
              "system": "http://unitsofmeasure.org"
            }
          }
        ],
        "text": {
          "status": "generated",
          "div": "<div xmlns=\"http://www.w3.org/1999/xhtml\"><table class=\"hl7__eu__lab__report\"><tr><th>Test</th><th>18-Jan-2017</th><th>Reference&#xA0;Range</th><th>Unit</th></tr><tr><td>Chloride [Moles/volume] in Blood</td><td>108.0</td><td>98 - 110</td><td></td><td>mmol/L</td></tr></table></div>"
        },
        "status": "final",
        "subject": {
          "reference": "urn:uuid:486bfa78-4013-4959-a1b4-8f50e4b5ef5e",
          "display": "Jele Jurković"
        },
        "effectiveDateTime": "2017-01-18T18:07:38Z",
        "specimen": {
          "reference": "urn:uuid:58f01038-a0c9-4d59-b42a-1ab80c92c55c"
        }
      }
    },
    {
      "fullUrl": "urn:uuid:30499b9f-5bba-4312-97c7-91bd7100df43",
      "resource": {
        "resourceType": "Observation",
        "id": "30499b9f-5bba-4312-97c7-91bd7100df43",
        "meta": {
          "profile": [
            "http://hl7.eu/fhir/laboratory/StructureDefinition/Observation-resultslab-eu-lab"
          ]
        },
        "performer": [
          {
            "display": "The Central European Lab"
          }
        ],
        "category": [
          {
            "coding": [
              {
                "system": "http://terminology.hl7.org/CodeSystem/observation-category",
                "code": "laboratory"
              }
            ]
          }
        ],
        "code": {
          "coding": [
            {
              "code": "20565-8",
              "system": "http://loinc.org",
              "display": "Carbon dioxide, total [Moles/volume] in Blood"
            }
          ],
          "text": "Carbon dioxide, total [Moles/volume] in Blood"
        },
        "valueQuantity": {
          "system": "http://unitsofmeasure.org",
          "value": 27.3,
          "unit": "mmol/L",
          "code": "mmol/L"
        },
        "referenceRange": [
          {
            "low": {
              "value": 22,
              "code": "mmol/L",
              "system": "http://unitsofmeasure.org"
            }
          },
          {
            "high": {
              "value": 32,
              "code": "mmol/L",
              "system": "http://unitsofmeasure.org"
            }
          }
        ],
        "text": {
          "status": "generated",
          "div": "<div xmlns=\"http://www.w3.org/1999/xhtml\"><table class=\"hl7__eu__lab__report\"><tr><th>Test</th><th>18-Jan-2017</th><th>Reference&#xA0;Range</th><th>Unit</th></tr><tr><td>Carbon dioxide, total [Moles/volume] in Blood</td><td>27.3</td><td>22 - 32</td><td></td><td>mmol/L</td></tr></table></div>"
        },
        "status": "final",
        "subject": {
          "reference": "urn:uuid:486bfa78-4013-4959-a1b4-8f50e4b5ef5e",
          "display": "Jele Jurković"
        },
        "effectiveDateTime": "2017-01-18T18:07:38Z",
        "specimen": {
          "reference": "urn:uuid:58f01038-a0c9-4d59-b42a-1ab80c92c55c"
        }
      }
    },
    {
      "fullUrl": "urn:uuid:9c0e6924-298c-4c47-8b6c-3909230fba16",
      "resource": {
        "resourceType": "Observation",
        "id": "9c0e6924-298c-4c47-8b6c-3909230fba16",
        "meta": {
          "profile": [
            "http://hl7.eu/fhir/laboratory/StructureDefinition/Observation-resultslab-eu-lab"
          ]
        },
        "performer": [
          {
            "display": "The Central European Lab"
          }
        ],
        "category": [
          {
            "coding": [
              {
                "system": "http://terminology.hl7.org/CodeSystem/observation-category",
                "code": "laboratory"
              }
            ]
          }
        ],
        "code": {
          "coding": [
            {
              "code": "2093-3",
              "system": "http://loinc.org",
              "display": "Cholesterol [Mass/volume] in Serum or Plasma"
            }
          ],
          "text": "Cholesterol [Mass/volume] in Serum or Plasma"
        },
        "valueQuantity": {
          "system": "http://unitsofmeasure.org",
          "value": 165.5,
          "unit": "mg/dL",
          "code": "mg/dL"
        },
        "referenceRange": [
          {
            "low": {
              "value": 125,
              "code": "mg/dL",
              "system": "http://unitsofmeasure.org"
            }
          },
          {
            "high": {
              "value": 200,
              "code": "mg/dL",
              "system": "http://unitsofmeasure.org"
            }
          }
        ],
        "text": {
          "status": "generated",
          "div": "<div xmlns=\"http://www.w3.org/1999/xhtml\"><table class=\"hl7__eu__lab__report\"><tr><th>Test</th><th>18-Jan-2017</th><th>Reference&#xA0;Range</th><th>Unit</th></tr><tr><td>Cholesterol [Mass/volume] in Serum or Plasma</td><td>165.5</td><td>125 - 200</td><td></td><td>mg/dL</td></tr></table></div>"
        },
        "status": "final",
        "subject": {
          "reference": "urn:uuid:486bfa78-4013-4959-a1b4-8f50e4b5ef5e",
          "display": "Jele Jurković"
        },
        "effectiveDateTime": "2017-01-18T18:07:38Z",
        "specimen": {
          "reference": "urn:uuid:a8f5ce2b-e03f-4ba9-9098-4f50200aac56"
        }
      }
    },
    {
      "fullUrl": "urn:uuid:c497258e-14fb-43cd-82a2-0fe11c947638",
      "resource": {
        "resourceType": "Observation",
        "id": "c497258e-14fb-43cd-82a2-0fe11c947638",
        "meta": {
          "profile": [
            "http://hl7.eu/fhir/laboratory/StructureDefinition/Observation-resultslab-eu-lab"
          ]
        },
        "performer": [
          {
            "display": "The Central European Lab"
          }
        ],
        "category": [
          {
            "coding": [
              {
                "system": "http://terminology.hl7.org/CodeSystem/observation-category",
                "code": "laboratory"
              }
            ]
          }
        ],
        "code": {
          "coding": [
            {
              "code": "2571-8",
              "system": "http://loinc.org",
              "display": "Triglyceride [Mass/volume] in Serum or Plasma"
            }
          ],
          "text": "Triglyceride [Mass/volume] in Serum or Plasma"
        },
        "valueQuantity": {
          "system": "http://unitsofmeasure.org",
          "value": 138.5,
          "unit": "mg/dL",
          "code": "mg/dL"
        },
        "referenceRange": [
          {
            "low": {
              "value": 0,
              "code": "mg/dL",
              "system": "http://unitsofmeasure.org"
            }
          },
          {
            "high": {
              "value": 199,
              "code": "mg/dL",
              "system": "http://unitsofmeasure.org"
            }
          }
        ],
        "text": {
          "status": "generated",
          "div": "<div xmlns=\"http://www.w3.org/1999/xhtml\"><table class=\"hl7__eu__lab__report\"><tr><th>Test</th><th>18-Jan-2017</th><th>Reference&#xA0;Range</th><th>Unit</th></tr><tr><td>Triglyceride [Mass/volume] in Serum or Plasma</td><td>138.5</td><td>0 - 199</td><td></td><td>mg/dL</td></tr></table></div>"
        },
        "status": "final",
        "subject": {
          "reference": "urn:uuid:486bfa78-4013-4959-a1b4-8f50e4b5ef5e",
          "display": "Jele Jurković"
        },
        "effectiveDateTime": "2017-01-18T18:07:38Z",
        "specimen": {
          "reference": "urn:uuid:a8f5ce2b-e03f-4ba9-9098-4f50200aac56"
        }
      }
    },
    {
      "fullUrl": "urn:uuid:f8c53ae4-21f6-40dc-8ebd-5c28cb0641fd",
      "resource": {
        "resourceType": "Observation",
        "id": "f8c53ae4-21f6-40dc-8ebd-5c28cb0641fd",
        "meta": {
          "profile": [
            "http://hl7.eu/fhir/laboratory/StructureDefinition/Observation-resultslab-eu-lab"
          ]
        },
        "performer": [
          {
            "display": "The Central European Lab"
          }
        ],
        "category": [
          {
            "coding": [
              {
                "system": "http://terminology.hl7.org/CodeSystem/observation-category",
                "code": "laboratory"
              }
            ]
          }
        ],
        "code": {
          "coding": [
            {
              "code": "18262-6",
              "system": "http://loinc.org",
              "display": "Cholesterol in LDL [Mass/volume] in Serum or Plasma by Direct assay"
            }
          ],
          "text": "Cholesterol in LDL [Mass/volume] in Serum or Plasma by Direct assay"
        },
        "valueQuantity": {
          "system": "http://unitsofmeasure.org",
          "value": 102.8,
          "unit": "mg/dL",
          "code": "mg/dL"
        },
        "referenceRange": [
          {
            "low": {
              "value": 0,
              "code": "mg/dL",
              "system": "http://unitsofmeasure.org"
            }
          },
          {
            "high": {
              "value": 130,
              "code": "mg/dL",
              "system": "http://unitsofmeasure.org"
            }
          }
        ],
        "text": {
          "status": "generated",
          "div": "<div xmlns=\"http://www.w3.org/1999/xhtml\"><table class=\"hl7__eu__lab__report\"><tr><th>Test</th><th>18-Jan-2017</th><th>Reference&#xA0;Range</th><th>Unit</th></tr><tr><td>Cholesterol in LDL [Mass/volume] in Serum or Plasma by Direct assay</td><td>102.8</td><td>0 - 130</td><td></td><td>mg/dL</td></tr></table></div>"
        },
        "status": "final",
        "subject": {
          "reference": "urn:uuid:486bfa78-4013-4959-a1b4-8f50e4b5ef5e",
          "display": "Jele Jurković"
        },
        "effectiveDateTime": "2017-01-18T18:07:38Z",
        "specimen": {
          "reference": "urn:uuid:a8f5ce2b-e03f-4ba9-9098-4f50200aac56"
        }
      }
    },
    {
      "fullUrl": "urn:uuid:669978fe-4af2-4906-84d4-fda7bfce2fb7",
      "resource": {
        "resourceType": "Observation",
        "id": "669978fe-4af2-4906-84d4-fda7bfce2fb7",
        "meta": {
          "profile": [
            "http://hl7.eu/fhir/laboratory/StructureDefinition/Observation-resultslab-eu-lab"
          ]
        },
        "performer": [
          {
            "display": "The Central European Lab"
          }
        ],
        "category": [
          {
            "coding": [
              {
                "system": "http://terminology.hl7.org/CodeSystem/observation-category",
                "code": "laboratory"
              }
            ]
          }
        ],
        "code": {
          "coding": [
            {
              "code": "2085-9",
              "system": "http://loinc.org",
              "display": "Cholesterol in HDL [Mass/volume] in Serum or Plasma"
            }
          ],
          "text": "Cholesterol in HDL [Mass/volume] in Serum or Plasma"
        },
        "valueQuantity": {
          "system": "http://unitsofmeasure.org",
          "value": 34.9,
          "unit": "mg/dL",
          "code": "mg/dL"
        },
        "referenceRange": [
          {
            "low": {
              "value": 50,
              "code": "mg/dL",
              "system": "http://unitsofmeasure.org"
            }
          },
          {
            "high": {
              "value": 100,
              "code": "mg/dL",
              "system": "http://unitsofmeasure.org"
            }
          }
        ],
        "interpretation": [
          {
            "coding": [
              {
                "code": "L",
                "system": "http://terminology.hl7.org/CodeSystem/v3-ObservationInterpretation",
                "display": "Low"
              }
            ]
          }
        ],
        "text": {
          "status": "generated",
          "div": "<div xmlns=\"http://www.w3.org/1999/xhtml\"><table class=\"hl7__eu__lab__report\"><tr><th>Test</th><th>18-Jan-2017</th><th>Reference&#xA0;Range</th><th>Unit</th></tr><tr><td>Cholesterol in HDL [Mass/volume] in Serum or Plasma</td><td>34.9</td><td>50 - 100</td><td>L</td><td>mg/dL</td></tr></table></div>"
        },
        "status": "final",
        "subject": {
          "reference": "urn:uuid:486bfa78-4013-4959-a1b4-8f50e4b5ef5e",
          "display": "Jele Jurković"
        },
        "effectiveDateTime": "2017-01-18T18:07:38Z",
        "specimen": {
          "reference": "urn:uuid:a8f5ce2b-e03f-4ba9-9098-4f50200aac56"
        }
      }
    },
    {
      "fullUrl": "urn:uuid:e27508f5-22d7-4c82-aaf5-097d034ddc65",
      "resource": {
        "resourceType": "Device",
        "id": "e27508f5-22d7-4c82-aaf5-097d034ddc65",
        "deviceName": [
          {
            "name": "SYNDERAI Synthetic Generator",
            "type": "manufacturer-name"
          }
        ],
        "version": [
          {
            "value": "5.0"
          }
        ],
        "text": {
          "status": "generated",
          "div": "<div xmlns=\"http://www.w3.org/1999/xhtml\">SYNDERAI Synthetic Generator v5.0</div>"
        },
        "status": "active\"",
        "distinctIdentifier": "synderai-generator-50",
        "manufacturer": "SYNDERAI Project"
      }
    },
    {
      "fullUrl": "urn:uuid:444e95fe-155c-4b0c-810b-1698daf90dbc",
      "resource": {
        "resourceType": "Provenance",
        "id": "444e95fe-155c-4b0c-810b-1698daf90dbc",
        "target": [
          {
            "reference": "Patient/486bfa78-4013-4959-a1b4-8f50e4b5ef5e"
          },
          {
            "reference": "Bundle/30e40354-e14f-49b8-bf3c-0fc986d3273f"
          },
          {
            "reference": "Composition/abaff7ff-54ad-4508-9a98-0a58a91168c0"
          },
          {
            "reference": "PractitionerRole/c1aaad09-73ed-477b-9acf-ff359cbbd833"
          },
          {
            "reference": "Practitioner/0364ec74-477e-4aec-87ee-53c56dd52fdb"
          },
          {
            "reference": "PractitionerRole/d3b4c004-ff89-484b-9a0c-aaf074a876a5"
          },
          {
            "reference": "Organization/81d32c21-eb53-4243-aff2-965af6f33d8f"
          }
        ],
        "activity": {
          "text": "Synthetic Example Data Generation"
        },
        "policy": [
          "https://synderai.net/synderai-synthetic-data-policy"
        ],
        "agent": [
          {
            "type": {
              "text": "author"
            },
            "who": {
              "reference": "Device/e27508f5-22d7-4c82-aaf5-097d034ddc65"
            }
          }
        ],
        "reason": [
          {
            "text": "Interoperability Testing and Training (non-clinical use)"
          }
        ],
        "text": {
          "status": "generated",
          "div": "<div xmlns=\"http://www.w3.org/1999/xhtml\">Provenance for SYNDERAI Synthetic Example Data Resource</div>"
        },
        "recorded": "2017-01-18T19:07:38Z"
      }
    },
    {
      "fullUrl": "urn:uuid:c1aaad09-73ed-477b-9acf-ff359cbbd833",
      "resource": {
        "resourceType": "PractitionerRole",
        "id": "c1aaad09-73ed-477b-9acf-ff359cbbd833",
        "meta": {
          "profile": [
            "http://hl7.eu/fhir/base/StructureDefinition/practitionerRole-eu"
          ]
        },
        "text": {
          "status": "generated",
          "div": "<div xmlns=\"http://www.w3.org/1999/xhtml\">Laboratory Role Id: c1aaad09-73ed-477b-9acf-ff359cbbd833</div>"
        },
        "practitioner": {
          "reference": "urn:uuid:0364ec74-477e-4aec-87ee-53c56dd52fdb"
        }
      }
    },
    {
      "fullUrl": "urn:uuid:0364ec74-477e-4aec-87ee-53c56dd52fdb",
      "resource": {
        "resourceType": "Practitioner",
        "id": "0364ec74-477e-4aec-87ee-53c56dd52fdb",
        "meta": {
          "profile": [
            "http://hl7.eu/fhir/base/StructureDefinition/practitioner-eu"
          ]
        },
        "identifier": [
          {
            "assigner": {
              "display": "HL7 Europe"
            },
            "system": "urn:oid:2.16.840.1.113883.2.51.999",
            "value": "4dae172e-ce73-46b9-bd21-356691391805"
          }
        ],
        "name": [
          {
            "prefix": [
              "dr"
            ],
            "given": [
              "Ex"
            ],
            "family": "Ample"
          }
        ],
        "address": [
          {
            "line": [
              "Laboratoire Central Européenne",
              "Boulevard du Jardin Botanique 32"
            ],
            "postalCode": "1000",
            "city": "Brussels",
            "country": "Belgium"
          }
        ],
        "text": {
          "status": "generated",
          "div": "<div xmlns=\"http://www.w3.org/1999/xhtml\">Laboratory: Laboratoire Central Européenne, 1000 Brussels, Belgium</div>"
        }
      }
    }
  ],
  "type": "document",
  "timestamp": "2017-01-18T19:07:38Z"
}
