{
  "resourceType": "Bundle",
  "id": "9bd34fbd-e292-4b4c-9ab6-1bdc0d527f53",
  "meta": {
    "profile": [
      "http://hl7.eu/fhir/laboratory/StructureDefinition/Bundle-eu-lab"
    ]
  },
  "identifier": {
    "assigner": {
      "display": "HL7 Europe"
    },
    "system": "urn:oid:2.16.840.1.113883.2.51.999",
    "value": "cb4b5d47-5204-4e7a-85cf-9eadbb2b9962"
  },
  "entry": [
    {
      "fullUrl": "urn:uuid:26b082c2-c18e-40c0-aec1-2c113a8697d6",
      "resource": {
        "resourceType": "Composition",
        "id": "26b082c2-c18e-40c0-aec1-2c113a8697d6",
        "meta": {
          "profile": [
            "http://hl7.eu/fhir/laboratory/StructureDefinition/Composition-eu-lab"
          ]
        },
        "identifier": {
          "assigner": {
            "display": "HL7 Europe"
          },
          "system": "urn:oid:2.16.840.1.113883.2.51.999",
          "value": "d5b15f65-862c-4b89-b173-cd2729d100af"
        },
        "author": [
          {
            "reference": "urn:uuid:8275550e-df2b-4ab6-a83d-92e8d28ed225"
          }
        ],
        "category": [
          {
            "coding": [
              {
                "code": "26436-6",
                "system": "http://loinc.org",
                "display": "Laboratory studies (set)"
              }
            ]
          }
        ],
        "type": {
          "coding": [
            {
              "code": "11502-2",
              "system": "http://loinc.org",
              "display": "Laboratory report"
            }
          ],
          "text": "Laboratory Report"
        },
        "section": [
          {
            "code": {
              "coding": [
                {
                  "code": "26436-6",
                  "system": "http://loinc.org",
                  "display": "Laboratory studies (set)"
                }
              ],
              "text": "Laboratory studies"
            },
            "section": [
              {
                "code": {
                  "coding": [
                    {
                      "code": "$18719-5",
                      "system": "http://loinc.org",
                      "display": "Chemistry studies (set)"
                    }
                  ],
                  "text": "Chemistry"
                },
                "entry": [
                  {
                    "reference": "urn:uuid:948ad2b4-3bcb-44ae-9c06-9f3b3950c7a1"
                  },
                  {
                    "reference": "urn:uuid:ce606b25-f967-4feb-be74-fa62e640152b"
                  },
                  {
                    "reference": "urn:uuid:63c9b701-20c4-45f6-b9ee-0358d159f341"
                  },
                  {
                    "reference": "urn:uuid:f8abbbc5-417c-4f88-82e7-aebb292d9596"
                  },
                  {
                    "reference": "urn:uuid:ae4577c4-02bf-4d93-ab27-bd8894b7e7fd"
                  },
                  {
                    "reference": "urn:uuid:d39dc0d0-40f3-4876-83ec-0dbaeb8354c3"
                  },
                  {
                    "reference": "urn:uuid:da367f1d-45d9-4e50-b2b4-ae6687442c62"
                  },
                  {
                    "reference": "urn:uuid:66327cfa-13ad-4073-bf12-d832377ee2a2"
                  },
                  {
                    "reference": "urn:uuid:40d2459f-55be-4c76-9d0b-a868d9ab81ec"
                  }
                ],
                "text": {
                  "status": "generated",
                  "div": "<div xmlns=\"http://www.w3.org/1999/xhtml\"><h3>Chemistry</h3><table class=\"hl7__eu__lab__report\"><thead><tr><th>Test</th><th>28-FEB-2024</th><th>Reference&#xA0;Range</th><th>Unit</th></tr></thead><tbody><tr><td>Hemoglobin A1c/Hemoglobin.total in Blood</td><td><strong>6.3 H</strong></td><td>4 - 6</td><td>%</td></tr><tr><td>Glucose [Mass/volume] in Blood</td><td><strong>65.1 L</strong></td><td>70 - 140</td><td>mg/dL</td></tr><tr><td>Urea nitrogen [Mass/volume] in Blood</td><td>17.0</td><td>7 - 50</td><td>mg/dL</td></tr><tr><td>Creatinine [Mass/volume] in Blood</td><td>0.6</td><td>0.5 - 1.3</td><td>mg/dL</td></tr><tr><td>Calcium [Mass/volume] in Blood</td><td>8.9</td><td>8.5 - 10.4</td><td>mg/dL</td></tr><tr><td>Sodium [Moles/volume] in Blood</td><td>136.4</td><td>135 - 145</td><td>mmol/L</td></tr><tr><td>Potassium [Moles/volume] in Blood</td><td>5.1</td><td>3.5 - 5.3</td><td>mmol/L</td></tr><tr><td>Chloride [Moles/volume] in Blood</td><td>104.9</td><td>98 - 110</td><td>mmol/L</td></tr><tr><td>Carbon dioxide, total [Moles/volume] in Blood</td><td>24.3</td><td>22 - 32</td><td>mmol/L</td></tr></tbody></table></div>"
                },
                "title": "Chemistry"
              }
            ],
            "title": "Laboratory Report"
          },
          {
            "text": {
              "status": "generated",
              "div": "<div xmlns=\"http://www.w3.org/1999/xhtml\"><h3>Annotation</h3><table class=\"hl7__eu__lab__report\"><tr><th>Conclusion and Recommendations based on this report and previous findings known to us</th></tr><tr><td>The patient shows mildly elevated HbA1c, indicating suboptimal long-term glycemic control, while current blood glucose is slightly low, possibly due to recent hypoglycemic episodes or treatment. Renal function, electrolytes, and other parameters are within normal limits. Recommend review of diabetes management to prevent hypoglycemia and improve overall glycemic control.</td></tr></table></div>"
            },
            "code": {
              "coding": [
                {
                  "system": "http://loinc.org",
                  "code": "48767-8",
                  "display": "Annotation comment"
                }
              ]
            },
            "title": "Annotation comment"
          }
        ],
        "status": "final",
        "subject": {
          "reference": "urn:uuid:72b8ad72-2d9b-41b2-84dc-4b61c531261b",
          "display": "Jele Jurković"
        },
        "date": "2024-02-28T19:07:38Z",
        "title": "Laboratory Report",
        "confidentiality": "N"
      }
    },
    {
      "fullUrl": "urn:uuid:f10c88e2-8857-44dd-b899-187f7efa9254",
      "resource": {
        "resourceType": "DiagnosticReport",
        "id": "f10c88e2-8857-44dd-b899-187f7efa9254",
        "meta": {
          "profile": [
            "http://hl7.eu/fhir/laboratory/StructureDefinition/DiagnosticReport-eu-lab"
          ]
        },
        "identifier": [
          {
            "assigner": {
              "display": "HL7 Europe"
            },
            "system": "urn:oid:2.16.840.1.113883.2.51.999",
            "value": "fc3b6dbd-9e1b-4598-aa42-9f27204d41f9"
          }
        ],
        "extension": [
          {
            "url": "http://hl7.org/fhir/5.0/StructureDefinition/extension-DiagnosticReport.composition",
            "valueReference": {
              "reference": "urn:uuid:d5b15f65-862c-4b89-b173-cd2729d100af"
            }
          }
        ],
        "category": [
          {
            "coding": [
              {
                "code": "26436-6",
                "system": "http://loinc.org",
                "display": "Laboratory studies (set)"
              }
            ]
          }
        ],
        "specimen": [
          {
            "reference": "urn:uuid:ebaf1df4-6ba2-4f48-8a46-2b5b144e9fdd"
          }
        ],
        "result": [
          {
            "reference": "urn:uuid:948ad2b4-3bcb-44ae-9c06-9f3b3950c7a1"
          },
          {
            "reference": "urn:uuid:ce606b25-f967-4feb-be74-fa62e640152b"
          },
          {
            "reference": "urn:uuid:63c9b701-20c4-45f6-b9ee-0358d159f341"
          },
          {
            "reference": "urn:uuid:f8abbbc5-417c-4f88-82e7-aebb292d9596"
          },
          {
            "reference": "urn:uuid:ae4577c4-02bf-4d93-ab27-bd8894b7e7fd"
          },
          {
            "reference": "urn:uuid:d39dc0d0-40f3-4876-83ec-0dbaeb8354c3"
          },
          {
            "reference": "urn:uuid:da367f1d-45d9-4e50-b2b4-ae6687442c62"
          },
          {
            "reference": "urn:uuid:66327cfa-13ad-4073-bf12-d832377ee2a2"
          },
          {
            "reference": "urn:uuid:40d2459f-55be-4c76-9d0b-a868d9ab81ec"
          }
        ],
        "status": "registered",
        "code": {
          "coding": [
            {
              "code": "11502-2",
              "system": "http://loinc.org",
              "display": "Laboratory report"
            }
          ]
        },
        "subject": {
          "reference": "urn:uuid:72b8ad72-2d9b-41b2-84dc-4b61c531261b",
          "display": "Jele Jurković"
        }
      }
    },
    {
      "fullUrl": "urn:uuid:72b8ad72-2d9b-41b2-84dc-4b61c531261b",
      "resource": {
        "resourceType": "Patient",
        "id": "72b8ad72-2d9b-41b2-84dc-4b61c531261b",
        "meta": {
          "security": [
            {
              "system": "http://terminology.hl7.org/CodeSystem/v3-ActReason",
              "code": "HTEST"
            },
            {
              "system": "http://terminology.hl7.org/CodeSystem/v3-ActReason",
              "code": "TRAIN"
            }
          ],
          "tag": [
            {
              "system": "https://synderai.net/fhir/CodeSystem/tags",
              "code": "synthetic",
              "display": "SYNDERAI Synthetic data"
            }
          ],
          "profile": [
            "http://hl7.eu/fhir/base/StructureDefinition/patient-eu-core"
          ]
        },
        "identifier": [
          {
            "type": {
              "coding": [
                {
                  "code": "PT",
                  "system": "http://terminology.hl7.org/CodeSystem/v2-0203"
                }
              ]
            },
            "system": "http://ec.europa.eu/identifier/eci",
            "value": "3583-291434-1"
          },
          {
            "type": {
              "coding": [
                {
                  "code": "MR",
                  "system": "http://terminology.hl7.org/CodeSystem/v2-0203"
                }
              ]
            },
            "system": "http://local.setting.eu/identifier",
            "value": "9d4fea2d-eece-b99f-3e16-832f0f5813f5"
          }
        ],
        "name": [
          {
            "family": "Jurković"
          },
          {
            "given": [
              "Jele"
            ]
          },
          {
            "text": "Jele Jurković"
          }
        ],
        "address": [
          {
            "line": [
              "Klesarski put 7b/8"
            ],
            "use": "home",
            "type": "physical",
            "postalCode": "34310",
            "city": "Pleternica",
            "country": "Croatia"
          }
        ],
        "telecom": [
          {
            "system": "phone",
            "value": "021 083 354"
          }
        ],
        "extension": [
          {
            "url": "http://hl7.org/fhir/StructureDefinition/patient-nationality",
            "valueCodeableConcept": {
              "coding": [
                {
                  "code": "HR",
                  "system": "http://hl7.org/fhir/ValueSet/country"
                }
              ]
            }
          }
        ],
        "text": {
          "status": "generated",
          "div": "<div xmlns=\"http://www.w3.org/1999/xhtml\"><table class=\"hl7__ips\"><tr><td>Jele Jurković</td><td>female</td><td>07-Jan-1953</td></tr></table></div>"
        },
        "gender": "female",
        "birthDate": "1953-01-07"
      }
    },
    {
      "fullUrl": "urn:uuid:54f1d6c7-01f5-4ad0-8a71-4f40961ed809",
      "resource": {
        "resourceType": "ServiceRequest",
        "id": "54f1d6c7-01f5-4ad0-8a71-4f40961ed809",
        "meta": {
          "profile": [
            "http://hl7.eu/fhir/laboratory/StructureDefinition/ServiceRequest-eu-lab"
          ]
        },
        "identifier": [
          {
            "system": "http://example.org",
            "value": "c39347df-17bf-4e83-ba5b-5681b9e4f33f"
          }
        ],
        "specimen": [
          {
            "reference": "urn:uuid:ebaf1df4-6ba2-4f48-8a46-2b5b144e9fdd"
          }
        ],
        "reasonCode": [
          {
            "coding": [
              {
                "code": "64859006",
                "system": "http://snomed.info/sct",
                "display": "Osteoporosis"
              }
            ]
          },
          {
            "coding": [
              {
                "code": "6525002",
                "system": "http://snomed.info/sct",
                "display": "Dependent drug abuse"
              }
            ]
          },
          {
            "coding": [
              {
                "code": "15777000",
                "system": "http://snomed.info/sct",
                "display": "Prediabetes"
              }
            ]
          }
        ],
        "status": "active",
        "intent": "order",
        "code": {
          "coding": [
            {
              "code": "108252007",
              "system": "http://snomed.info/sct",
              "display": "Laboratory procedure"
            }
          ]
        },
        "subject": {
          "reference": "urn:uuid:72b8ad72-2d9b-41b2-84dc-4b61c531261b",
          "display": "Jele Jurković"
        },
        "requester": {
          "reference": "urn:uuid:cfe38652-bb5f-43d9-937b-a3134d1637e3"
        }
      }
    },
    {
      "fullUrl": "urn:uuid:cfe38652-bb5f-43d9-937b-a3134d1637e3",
      "resource": {
        "resourceType": "PractitionerRole",
        "id": "cfe38652-bb5f-43d9-937b-a3134d1637e3",
        "meta": {
          "profile": [
            "http://hl7.eu/fhir/base/StructureDefinition/practitionerRole-eu"
          ]
        },
        "text": {
          "status": "generated",
          "div": "<div xmlns=\"http://www.w3.org/1999/xhtml\">Provider Role Id: cfe38652-bb5f-43d9-937b-a3134d1637e3</div>"
        },
        "organization": {
          "reference": "urn:uuid:4d5467d2-9bbb-45df-94d3-292480a8f20f"
        }
      }
    },
    {
      "fullUrl": "urn:uuid:4d5467d2-9bbb-45df-94d3-292480a8f20f",
      "resource": {
        "resourceType": "Organization",
        "id": "4d5467d2-9bbb-45df-94d3-292480a8f20f",
        "meta": {
          "profile": [
            "http://hl7.eu/fhir/base/StructureDefinition/organization-eu"
          ]
        },
        "identifier": [
          {
            "assigner": {
              "display": "HL7 Europe"
            },
            "system": "urn:oid:2.16.840.1.113883.2.51.999",
            "value": "d67456b7-3bad-4401-9df7-673eb44ed2cb"
          }
        ],
        "address": [
          {
            "line": [
              "Osječka ulica 107"
            ],
            "city": "Požega",
            "postalCode": "34000",
            "country": "Croatia"
          }
        ],
        "text": {
          "status": "generated",
          "div": "<div xmlns=\"http://www.w3.org/1999/xhtml\">Provider Organization: Opća županijska bolnica Požega</div>"
        },
        "name": "Opća županijska bolnica Požega"
      }
    },
    {
      "fullUrl": "urn:uuid:ebaf1df4-6ba2-4f48-8a46-2b5b144e9fdd",
      "resource": {
        "resourceType": "Specimen",
        "id": "ebaf1df4-6ba2-4f48-8a46-2b5b144e9fdd",
        "meta": {
          "profile": [
            "http://hl7.eu/fhir/laboratory/StructureDefinition/Specimen-eu-lab"
          ]
        },
        "collection": {
          "collectedDateTime": "2024-02-28"
        },
        "text": {
          "status": "generated",
          "div": "<div xmlns=\"http://www.w3.org/1999/xhtml\"><table class=\"hl7__eu__lab__report\"><tr><th>Specimen</th><th>Collection Date</th></tr><tr><td>Whole blood specimen (specimen)</td><td><span class=\"nb\">28-Feb-2024</span></td></tr></table></div>"
        },
        "type": {
          "coding": [
            {
              "code": "258580003",
              "system": "http://snomed.info/sct",
              "display": "Whole blood specimen (specimen)"
            }
          ]
        }
      }
    },
    {
      "fullUrl": "urn:uuid:948ad2b4-3bcb-44ae-9c06-9f3b3950c7a1",
      "resource": {
        "resourceType": "Observation",
        "id": "948ad2b4-3bcb-44ae-9c06-9f3b3950c7a1",
        "meta": {
          "profile": [
            "http://hl7.eu/fhir/laboratory/StructureDefinition/Observation-resultslab-eu-lab"
          ]
        },
        "performer": [
          {
            "display": "The Central European Lab"
          }
        ],
        "category": [
          {
            "coding": [
              {
                "system": "http://terminology.hl7.org/CodeSystem/observation-category",
                "code": "laboratory"
              }
            ]
          }
        ],
        "code": {
          "coding": [
            {
              "code": "4548-4",
              "system": "http://loinc.org",
              "display": "Hemoglobin A1c/Hemoglobin.total in Blood"
            }
          ],
          "text": "Hemoglobin A1c/Hemoglobin.total in Blood"
        },
        "valueQuantity": {
          "system": "http://unitsofmeasure.org",
          "value": 6.3,
          "unit": "%",
          "code": "%"
        },
        "referenceRange": [
          {
            "low": {
              "value": 4,
              "code": "%",
              "system": "http://unitsofmeasure.org"
            }
          },
          {
            "high": {
              "value": 6,
              "code": "%",
              "system": "http://unitsofmeasure.org"
            }
          }
        ],
        "interpretation": [
          {
            "coding": [
              {
                "code": "H",
                "system": "http://terminology.hl7.org/CodeSystem/v3-ObservationInterpretation",
                "display": "High"
              }
            ]
          }
        ],
        "text": {
          "status": "generated",
          "div": "<div xmlns=\"http://www.w3.org/1999/xhtml\"><table class=\"hl7__eu__lab__report\"><tr><th>Test</th><th>28-Feb-2024</th><th>Reference&#xA0;Range</th><th>Unit</th></tr><tr><td>Hemoglobin A1c/Hemoglobin.total in Blood</td><td>6.3</td><td>4 - 6</td><td>H</td><td>%</td></tr></table></div>"
        },
        "status": "final",
        "subject": {
          "reference": "urn:uuid:72b8ad72-2d9b-41b2-84dc-4b61c531261b",
          "display": "Jele Jurković"
        },
        "effectiveDateTime": "2024-02-28T18:07:38Z",
        "specimen": {
          "reference": "urn:uuid:ebaf1df4-6ba2-4f48-8a46-2b5b144e9fdd"
        }
      }
    },
    {
      "fullUrl": "urn:uuid:ce606b25-f967-4feb-be74-fa62e640152b",
      "resource": {
        "resourceType": "Observation",
        "id": "ce606b25-f967-4feb-be74-fa62e640152b",
        "meta": {
          "profile": [
            "http://hl7.eu/fhir/laboratory/StructureDefinition/Observation-resultslab-eu-lab"
          ]
        },
        "performer": [
          {
            "display": "The Central European Lab"
          }
        ],
        "category": [
          {
            "coding": [
              {
                "system": "http://terminology.hl7.org/CodeSystem/observation-category",
                "code": "laboratory"
              }
            ]
          }
        ],
        "code": {
          "coding": [
            {
              "code": "2339-0",
              "system": "http://loinc.org",
              "display": "Glucose [Mass/volume] in Blood"
            }
          ],
          "text": "Glucose [Mass/volume] in Blood"
        },
        "valueQuantity": {
          "system": "http://unitsofmeasure.org",
          "value": 65.1,
          "unit": "mg/dL",
          "code": "mg/dL"
        },
        "referenceRange": [
          {
            "low": {
              "value": 70,
              "code": "mg/dL",
              "system": "http://unitsofmeasure.org"
            }
          },
          {
            "high": {
              "value": 140,
              "code": "mg/dL",
              "system": "http://unitsofmeasure.org"
            }
          }
        ],
        "interpretation": [
          {
            "coding": [
              {
                "code": "L",
                "system": "http://terminology.hl7.org/CodeSystem/v3-ObservationInterpretation",
                "display": "Low"
              }
            ]
          }
        ],
        "text": {
          "status": "generated",
          "div": "<div xmlns=\"http://www.w3.org/1999/xhtml\"><table class=\"hl7__eu__lab__report\"><tr><th>Test</th><th>28-Feb-2024</th><th>Reference&#xA0;Range</th><th>Unit</th></tr><tr><td>Glucose [Mass/volume] in Blood</td><td>65.1</td><td>70 - 140</td><td>L</td><td>mg/dL</td></tr></table></div>"
        },
        "status": "final",
        "subject": {
          "reference": "urn:uuid:72b8ad72-2d9b-41b2-84dc-4b61c531261b",
          "display": "Jele Jurković"
        },
        "effectiveDateTime": "2024-02-28T18:07:38Z",
        "specimen": {
          "reference": "urn:uuid:ebaf1df4-6ba2-4f48-8a46-2b5b144e9fdd"
        }
      }
    },
    {
      "fullUrl": "urn:uuid:63c9b701-20c4-45f6-b9ee-0358d159f341",
      "resource": {
        "resourceType": "Observation",
        "id": "63c9b701-20c4-45f6-b9ee-0358d159f341",
        "meta": {
          "profile": [
            "http://hl7.eu/fhir/laboratory/StructureDefinition/Observation-resultslab-eu-lab"
          ]
        },
        "performer": [
          {
            "display": "The Central European Lab"
          }
        ],
        "category": [
          {
            "coding": [
              {
                "system": "http://terminology.hl7.org/CodeSystem/observation-category",
                "code": "laboratory"
              }
            ]
          }
        ],
        "code": {
          "coding": [
            {
              "code": "6299-2",
              "system": "http://loinc.org",
              "display": "Urea nitrogen [Mass/volume] in Blood"
            }
          ],
          "text": "Urea nitrogen [Mass/volume] in Blood"
        },
        "valueQuantity": {
          "system": "http://unitsofmeasure.org",
          "value": 17,
          "unit": "mg/dL",
          "code": "mg/dL"
        },
        "referenceRange": [
          {
            "low": {
              "value": 7,
              "code": "mg/dL",
              "system": "http://unitsofmeasure.org"
            }
          },
          {
            "high": {
              "value": 50,
              "code": "mg/dL",
              "system": "http://unitsofmeasure.org"
            }
          }
        ],
        "text": {
          "status": "generated",
          "div": "<div xmlns=\"http://www.w3.org/1999/xhtml\"><table class=\"hl7__eu__lab__report\"><tr><th>Test</th><th>28-Feb-2024</th><th>Reference&#xA0;Range</th><th>Unit</th></tr><tr><td>Urea nitrogen [Mass/volume] in Blood</td><td>17.0</td><td>7 - 50</td><td></td><td>mg/dL</td></tr></table></div>"
        },
        "status": "final",
        "subject": {
          "reference": "urn:uuid:72b8ad72-2d9b-41b2-84dc-4b61c531261b",
          "display": "Jele Jurković"
        },
        "effectiveDateTime": "2024-02-28T18:07:38Z",
        "specimen": {
          "reference": "urn:uuid:ebaf1df4-6ba2-4f48-8a46-2b5b144e9fdd"
        }
      }
    },
    {
      "fullUrl": "urn:uuid:f8abbbc5-417c-4f88-82e7-aebb292d9596",
      "resource": {
        "resourceType": "Observation",
        "id": "f8abbbc5-417c-4f88-82e7-aebb292d9596",
        "meta": {
          "profile": [
            "http://hl7.eu/fhir/laboratory/StructureDefinition/Observation-resultslab-eu-lab"
          ]
        },
        "performer": [
          {
            "display": "The Central European Lab"
          }
        ],
        "category": [
          {
            "coding": [
              {
                "system": "http://terminology.hl7.org/CodeSystem/observation-category",
                "code": "laboratory"
              }
            ]
          }
        ],
        "code": {
          "coding": [
            {
              "code": "38483-4",
              "system": "http://loinc.org",
              "display": "Creatinine [Mass/volume] in Blood"
            }
          ],
          "text": "Creatinine [Mass/volume] in Blood"
        },
        "valueQuantity": {
          "system": "http://unitsofmeasure.org",
          "value": 0.6,
          "unit": "mg/dL",
          "code": "mg/dL"
        },
        "referenceRange": [
          {
            "low": {
              "value": 0.5,
              "code": "mg/dL",
              "system": "http://unitsofmeasure.org"
            }
          },
          {
            "high": {
              "value": 1.3,
              "code": "mg/dL",
              "system": "http://unitsofmeasure.org"
            }
          }
        ],
        "text": {
          "status": "generated",
          "div": "<div xmlns=\"http://www.w3.org/1999/xhtml\"><table class=\"hl7__eu__lab__report\"><tr><th>Test</th><th>28-Feb-2024</th><th>Reference&#xA0;Range</th><th>Unit</th></tr><tr><td>Creatinine [Mass/volume] in Blood</td><td>0.6</td><td>0.5 - 1.3</td><td></td><td>mg/dL</td></tr></table></div>"
        },
        "status": "final",
        "subject": {
          "reference": "urn:uuid:72b8ad72-2d9b-41b2-84dc-4b61c531261b",
          "display": "Jele Jurković"
        },
        "effectiveDateTime": "2024-02-28T18:07:38Z",
        "specimen": {
          "reference": "urn:uuid:ebaf1df4-6ba2-4f48-8a46-2b5b144e9fdd"
        }
      }
    },
    {
      "fullUrl": "urn:uuid:ae4577c4-02bf-4d93-ab27-bd8894b7e7fd",
      "resource": {
        "resourceType": "Observation",
        "id": "ae4577c4-02bf-4d93-ab27-bd8894b7e7fd",
        "meta": {
          "profile": [
            "http://hl7.eu/fhir/laboratory/StructureDefinition/Observation-resultslab-eu-lab"
          ]
        },
        "performer": [
          {
            "display": "The Central European Lab"
          }
        ],
        "category": [
          {
            "coding": [
              {
                "system": "http://terminology.hl7.org/CodeSystem/observation-category",
                "code": "laboratory"
              }
            ]
          }
        ],
        "code": {
          "coding": [
            {
              "code": "49765-1",
              "system": "http://loinc.org",
              "display": "Calcium [Mass/volume] in Blood"
            }
          ],
          "text": "Calcium [Mass/volume] in Blood"
        },
        "valueQuantity": {
          "system": "http://unitsofmeasure.org",
          "value": 8.9,
          "unit": "mg/dL",
          "code": "mg/dL"
        },
        "referenceRange": [
          {
            "low": {
              "value": 8.5,
              "code": "mg/dL",
              "system": "http://unitsofmeasure.org"
            }
          },
          {
            "high": {
              "value": 10.4,
              "code": "mg/dL",
              "system": "http://unitsofmeasure.org"
            }
          }
        ],
        "text": {
          "status": "generated",
          "div": "<div xmlns=\"http://www.w3.org/1999/xhtml\"><table class=\"hl7__eu__lab__report\"><tr><th>Test</th><th>28-Feb-2024</th><th>Reference&#xA0;Range</th><th>Unit</th></tr><tr><td>Calcium [Mass/volume] in Blood</td><td>8.9</td><td>8.5 - 10.4</td><td></td><td>mg/dL</td></tr></table></div>"
        },
        "status": "final",
        "subject": {
          "reference": "urn:uuid:72b8ad72-2d9b-41b2-84dc-4b61c531261b",
          "display": "Jele Jurković"
        },
        "effectiveDateTime": "2024-02-28T18:07:38Z",
        "specimen": {
          "reference": "urn:uuid:ebaf1df4-6ba2-4f48-8a46-2b5b144e9fdd"
        }
      }
    },
    {
      "fullUrl": "urn:uuid:d39dc0d0-40f3-4876-83ec-0dbaeb8354c3",
      "resource": {
        "resourceType": "Observation",
        "id": "d39dc0d0-40f3-4876-83ec-0dbaeb8354c3",
        "meta": {
          "profile": [
            "http://hl7.eu/fhir/laboratory/StructureDefinition/Observation-resultslab-eu-lab"
          ]
        },
        "performer": [
          {
            "display": "The Central European Lab"
          }
        ],
        "category": [
          {
            "coding": [
              {
                "system": "http://terminology.hl7.org/CodeSystem/observation-category",
                "code": "laboratory"
              }
            ]
          }
        ],
        "code": {
          "coding": [
            {
              "code": "2947-0",
              "system": "http://loinc.org",
              "display": "Sodium [Moles/volume] in Blood"
            }
          ],
          "text": "Sodium [Moles/volume] in Blood"
        },
        "valueQuantity": {
          "system": "http://unitsofmeasure.org",
          "value": 136.4,
          "unit": "mmol/L",
          "code": "mmol/L"
        },
        "referenceRange": [
          {
            "low": {
              "value": 135,
              "code": "mmol/L",
              "system": "http://unitsofmeasure.org"
            }
          },
          {
            "high": {
              "value": 145,
              "code": "mmol/L",
              "system": "http://unitsofmeasure.org"
            }
          }
        ],
        "text": {
          "status": "generated",
          "div": "<div xmlns=\"http://www.w3.org/1999/xhtml\"><table class=\"hl7__eu__lab__report\"><tr><th>Test</th><th>28-Feb-2024</th><th>Reference&#xA0;Range</th><th>Unit</th></tr><tr><td>Sodium [Moles/volume] in Blood</td><td>136.4</td><td>135 - 145</td><td></td><td>mmol/L</td></tr></table></div>"
        },
        "status": "final",
        "subject": {
          "reference": "urn:uuid:72b8ad72-2d9b-41b2-84dc-4b61c531261b",
          "display": "Jele Jurković"
        },
        "effectiveDateTime": "2024-02-28T18:07:38Z",
        "specimen": {
          "reference": "urn:uuid:ebaf1df4-6ba2-4f48-8a46-2b5b144e9fdd"
        }
      }
    },
    {
      "fullUrl": "urn:uuid:da367f1d-45d9-4e50-b2b4-ae6687442c62",
      "resource": {
        "resourceType": "Observation",
        "id": "da367f1d-45d9-4e50-b2b4-ae6687442c62",
        "meta": {
          "profile": [
            "http://hl7.eu/fhir/laboratory/StructureDefinition/Observation-resultslab-eu-lab"
          ]
        },
        "performer": [
          {
            "display": "The Central European Lab"
          }
        ],
        "category": [
          {
            "coding": [
              {
                "system": "http://terminology.hl7.org/CodeSystem/observation-category",
                "code": "laboratory"
              }
            ]
          }
        ],
        "code": {
          "coding": [
            {
              "code": "6298-4",
              "system": "http://loinc.org",
              "display": "Potassium [Moles/volume] in Blood"
            }
          ],
          "text": "Potassium [Moles/volume] in Blood"
        },
        "valueQuantity": {
          "system": "http://unitsofmeasure.org",
          "value": 5.1,
          "unit": "mmol/L",
          "code": "mmol/L"
        },
        "referenceRange": [
          {
            "low": {
              "value": 3.5,
              "code": "mmol/L",
              "system": "http://unitsofmeasure.org"
            }
          },
          {
            "high": {
              "value": 5.3,
              "code": "mmol/L",
              "system": "http://unitsofmeasure.org"
            }
          }
        ],
        "text": {
          "status": "generated",
          "div": "<div xmlns=\"http://www.w3.org/1999/xhtml\"><table class=\"hl7__eu__lab__report\"><tr><th>Test</th><th>28-Feb-2024</th><th>Reference&#xA0;Range</th><th>Unit</th></tr><tr><td>Potassium [Moles/volume] in Blood</td><td>5.1</td><td>3.5 - 5.3</td><td></td><td>mmol/L</td></tr></table></div>"
        },
        "status": "final",
        "subject": {
          "reference": "urn:uuid:72b8ad72-2d9b-41b2-84dc-4b61c531261b",
          "display": "Jele Jurković"
        },
        "effectiveDateTime": "2024-02-28T18:07:38Z",
        "specimen": {
          "reference": "urn:uuid:ebaf1df4-6ba2-4f48-8a46-2b5b144e9fdd"
        }
      }
    },
    {
      "fullUrl": "urn:uuid:66327cfa-13ad-4073-bf12-d832377ee2a2",
      "resource": {
        "resourceType": "Observation",
        "id": "66327cfa-13ad-4073-bf12-d832377ee2a2",
        "meta": {
          "profile": [
            "http://hl7.eu/fhir/laboratory/StructureDefinition/Observation-resultslab-eu-lab"
          ]
        },
        "performer": [
          {
            "display": "The Central European Lab"
          }
        ],
        "category": [
          {
            "coding": [
              {
                "system": "http://terminology.hl7.org/CodeSystem/observation-category",
                "code": "laboratory"
              }
            ]
          }
        ],
        "code": {
          "coding": [
            {
              "code": "2069-3",
              "system": "http://loinc.org",
              "display": "Chloride [Moles/volume] in Blood"
            }
          ],
          "text": "Chloride [Moles/volume] in Blood"
        },
        "valueQuantity": {
          "system": "http://unitsofmeasure.org",
          "value": 104.9,
          "unit": "mmol/L",
          "code": "mmol/L"
        },
        "referenceRange": [
          {
            "low": {
              "value": 98,
              "code": "mmol/L",
              "system": "http://unitsofmeasure.org"
            }
          },
          {
            "high": {
              "value": 110,
              "code": "mmol/L",
              "system": "http://unitsofmeasure.org"
            }
          }
        ],
        "text": {
          "status": "generated",
          "div": "<div xmlns=\"http://www.w3.org/1999/xhtml\"><table class=\"hl7__eu__lab__report\"><tr><th>Test</th><th>28-Feb-2024</th><th>Reference&#xA0;Range</th><th>Unit</th></tr><tr><td>Chloride [Moles/volume] in Blood</td><td>104.9</td><td>98 - 110</td><td></td><td>mmol/L</td></tr></table></div>"
        },
        "status": "final",
        "subject": {
          "reference": "urn:uuid:72b8ad72-2d9b-41b2-84dc-4b61c531261b",
          "display": "Jele Jurković"
        },
        "effectiveDateTime": "2024-02-28T18:07:38Z",
        "specimen": {
          "reference": "urn:uuid:ebaf1df4-6ba2-4f48-8a46-2b5b144e9fdd"
        }
      }
    },
    {
      "fullUrl": "urn:uuid:40d2459f-55be-4c76-9d0b-a868d9ab81ec",
      "resource": {
        "resourceType": "Observation",
        "id": "40d2459f-55be-4c76-9d0b-a868d9ab81ec",
        "meta": {
          "profile": [
            "http://hl7.eu/fhir/laboratory/StructureDefinition/Observation-resultslab-eu-lab"
          ]
        },
        "performer": [
          {
            "display": "The Central European Lab"
          }
        ],
        "category": [
          {
            "coding": [
              {
                "system": "http://terminology.hl7.org/CodeSystem/observation-category",
                "code": "laboratory"
              }
            ]
          }
        ],
        "code": {
          "coding": [
            {
              "code": "20565-8",
              "system": "http://loinc.org",
              "display": "Carbon dioxide, total [Moles/volume] in Blood"
            }
          ],
          "text": "Carbon dioxide, total [Moles/volume] in Blood"
        },
        "valueQuantity": {
          "system": "http://unitsofmeasure.org",
          "value": 24.3,
          "unit": "mmol/L",
          "code": "mmol/L"
        },
        "referenceRange": [
          {
            "low": {
              "value": 22,
              "code": "mmol/L",
              "system": "http://unitsofmeasure.org"
            }
          },
          {
            "high": {
              "value": 32,
              "code": "mmol/L",
              "system": "http://unitsofmeasure.org"
            }
          }
        ],
        "text": {
          "status": "generated",
          "div": "<div xmlns=\"http://www.w3.org/1999/xhtml\"><table class=\"hl7__eu__lab__report\"><tr><th>Test</th><th>28-Feb-2024</th><th>Reference&#xA0;Range</th><th>Unit</th></tr><tr><td>Carbon dioxide, total [Moles/volume] in Blood</td><td>24.3</td><td>22 - 32</td><td></td><td>mmol/L</td></tr></table></div>"
        },
        "status": "final",
        "subject": {
          "reference": "urn:uuid:72b8ad72-2d9b-41b2-84dc-4b61c531261b",
          "display": "Jele Jurković"
        },
        "effectiveDateTime": "2024-02-28T18:07:38Z",
        "specimen": {
          "reference": "urn:uuid:ebaf1df4-6ba2-4f48-8a46-2b5b144e9fdd"
        }
      }
    },
    {
      "fullUrl": "urn:uuid:a8769180-42e4-4701-bbff-3497db350414",
      "resource": {
        "resourceType": "Device",
        "id": "a8769180-42e4-4701-bbff-3497db350414",
        "deviceName": [
          {
            "name": "SYNDERAI Synthetic Generator",
            "type": "manufacturer-name"
          }
        ],
        "version": [
          {
            "value": "5.0"
          }
        ],
        "text": {
          "status": "generated",
          "div": "<div xmlns=\"http://www.w3.org/1999/xhtml\">SYNDERAI Synthetic Generator v5.0</div>"
        },
        "status": "active\"",
        "distinctIdentifier": "synderai-generator-50",
        "manufacturer": "SYNDERAI Project"
      }
    },
    {
      "fullUrl": "urn:uuid:7e485edf-1507-4b00-b9da-f097d98f2769",
      "resource": {
        "resourceType": "Provenance",
        "id": "7e485edf-1507-4b00-b9da-f097d98f2769",
        "target": [
          {
            "reference": "Patient/72b8ad72-2d9b-41b2-84dc-4b61c531261b"
          },
          {
            "reference": "Bundle/9bd34fbd-e292-4b4c-9ab6-1bdc0d527f53"
          },
          {
            "reference": "Composition/26b082c2-c18e-40c0-aec1-2c113a8697d6"
          },
          {
            "reference": "PractitionerRole/8275550e-df2b-4ab6-a83d-92e8d28ed225"
          },
          {
            "reference": "Practitioner/dccd08a8-8c76-4ac7-8462-34a5b5038fc5"
          },
          {
            "reference": "PractitionerRole/cfe38652-bb5f-43d9-937b-a3134d1637e3"
          },
          {
            "reference": "Organization/4d5467d2-9bbb-45df-94d3-292480a8f20f"
          }
        ],
        "activity": {
          "text": "Synthetic Example Data Generation"
        },
        "policy": [
          "https://synderai.net/synderai-synthetic-data-policy"
        ],
        "agent": [
          {
            "type": {
              "text": "author"
            },
            "who": {
              "reference": "Device/a8769180-42e4-4701-bbff-3497db350414"
            }
          }
        ],
        "reason": [
          {
            "text": "Interoperability Testing and Training (non-clinical use)"
          }
        ],
        "text": {
          "status": "generated",
          "div": "<div xmlns=\"http://www.w3.org/1999/xhtml\">Provenance for SYNDERAI Synthetic Example Data Resource</div>"
        },
        "recorded": "2024-02-28T19:07:38Z"
      }
    },
    {
      "fullUrl": "urn:uuid:8275550e-df2b-4ab6-a83d-92e8d28ed225",
      "resource": {
        "resourceType": "PractitionerRole",
        "id": "8275550e-df2b-4ab6-a83d-92e8d28ed225",
        "meta": {
          "profile": [
            "http://hl7.eu/fhir/base/StructureDefinition/practitionerRole-eu"
          ]
        },
        "text": {
          "status": "generated",
          "div": "<div xmlns=\"http://www.w3.org/1999/xhtml\">Laboratory Role Id: 8275550e-df2b-4ab6-a83d-92e8d28ed225</div>"
        },
        "practitioner": {
          "reference": "urn:uuid:dccd08a8-8c76-4ac7-8462-34a5b5038fc5"
        }
      }
    },
    {
      "fullUrl": "urn:uuid:dccd08a8-8c76-4ac7-8462-34a5b5038fc5",
      "resource": {
        "resourceType": "Practitioner",
        "id": "dccd08a8-8c76-4ac7-8462-34a5b5038fc5",
        "meta": {
          "profile": [
            "http://hl7.eu/fhir/base/StructureDefinition/practitioner-eu"
          ]
        },
        "identifier": [
          {
            "assigner": {
              "display": "HL7 Europe"
            },
            "system": "urn:oid:2.16.840.1.113883.2.51.999",
            "value": "34026dbf-7568-4260-a2fb-656969b7aa80"
          }
        ],
        "name": [
          {
            "prefix": [
              "dr"
            ],
            "given": [
              "Ex"
            ],
            "family": "Ample"
          }
        ],
        "address": [
          {
            "line": [
              "Laboratoire Central Européenne",
              "Boulevard du Jardin Botanique 32"
            ],
            "postalCode": "1000",
            "city": "Brussels",
            "country": "Belgium"
          }
        ],
        "text": {
          "status": "generated",
          "div": "<div xmlns=\"http://www.w3.org/1999/xhtml\">Laboratory: Laboratoire Central Européenne, 1000 Brussels, Belgium</div>"
        }
      }
    }
  ],
  "type": "document",
  "timestamp": "2024-02-28T19:07:38Z"
}
