{
  "resourceType": "Bundle",
  "id": "1dd7e9e8-f43d-4fd2-bfdf-7aa41e24c97d",
  "meta": {
    "profile": [
      "http://hl7.eu/fhir/laboratory/StructureDefinition/Bundle-eu-lab"
    ]
  },
  "identifier": {
    "assigner": {
      "display": "HL7 Europe"
    },
    "system": "urn:oid:2.16.840.1.113883.2.51.999",
    "value": "652307e6-9df5-44e2-b632-954f3346a82b"
  },
  "entry": [
    {
      "fullUrl": "urn:uuid:45626673-6804-4a38-a4c8-e59bdfae9066",
      "resource": {
        "resourceType": "Composition",
        "id": "45626673-6804-4a38-a4c8-e59bdfae9066",
        "meta": {
          "profile": [
            "http://hl7.eu/fhir/laboratory/StructureDefinition/Composition-eu-lab"
          ]
        },
        "identifier": {
          "assigner": {
            "display": "HL7 Europe"
          },
          "system": "urn:oid:2.16.840.1.113883.2.51.999",
          "value": "212a37a4-74e6-4041-92e4-e05178e443f7"
        },
        "author": [
          {
            "reference": "urn:uuid:e2b7ca21-71ba-47e6-ad3f-7e550cb13df0"
          }
        ],
        "category": [
          {
            "coding": [
              {
                "code": "26436-6",
                "system": "http://loinc.org",
                "display": "Laboratory studies (set)"
              }
            ]
          }
        ],
        "type": {
          "coding": [
            {
              "code": "11502-2",
              "system": "http://loinc.org",
              "display": "Laboratory report"
            }
          ],
          "text": "Laboratory Report"
        },
        "section": [
          {
            "code": {
              "coding": [
                {
                  "code": "26436-6",
                  "system": "http://loinc.org",
                  "display": "Laboratory studies (set)"
                }
              ],
              "text": "Laboratory studies"
            },
            "section": [
              {
                "code": {
                  "coding": [
                    {
                      "code": "$18719-5",
                      "system": "http://loinc.org",
                      "display": "Chemistry studies (set)"
                    }
                  ],
                  "text": "Chemistry"
                },
                "entry": [
                  {
                    "reference": "urn:uuid:e6e27b07-79ff-49b3-806e-a75ed5dc61a1"
                  },
                  {
                    "reference": "urn:uuid:31a7cf55-208a-451f-81f9-c56b5f5ec9c4"
                  },
                  {
                    "reference": "urn:uuid:75eca570-94c0-4194-97c7-72bbe1f807f1"
                  },
                  {
                    "reference": "urn:uuid:0d4c5fb7-28eb-4000-bb93-c8cc07834892"
                  },
                  {
                    "reference": "urn:uuid:f8cd099d-5d6a-4e5e-b320-e557bc0fdfcc"
                  },
                  {
                    "reference": "urn:uuid:f13dc6b5-6e46-4894-a26f-3de63098d0ad"
                  },
                  {
                    "reference": "urn:uuid:859db867-9735-469d-9b7a-f68e3e3fc5b5"
                  },
                  {
                    "reference": "urn:uuid:9e9471d7-d3f8-4a13-88a8-d222910c11bb"
                  },
                  {
                    "reference": "urn:uuid:e769968f-2dbf-479c-b816-e24daeb915df"
                  },
                  {
                    "reference": "urn:uuid:390a0543-dede-4f4d-b3e3-ebee7c1a877e"
                  },
                  {
                    "reference": "urn:uuid:8147d126-fe97-4be0-8cfd-b9c15fd92d81"
                  },
                  {
                    "reference": "urn:uuid:c85eb616-14aa-47a2-ad10-52ae9fef5097"
                  },
                  {
                    "reference": "urn:uuid:492ff5c4-a928-4687-b5c7-7acc2947a5c6"
                  },
                  {
                    "reference": "urn:uuid:0332bdf6-e01e-429b-a144-36530bae6258"
                  },
                  {
                    "reference": "urn:uuid:798bf1af-3d30-4b09-8813-b103f39ddd51"
                  },
                  {
                    "reference": "urn:uuid:0bc70578-fbc0-4629-a0f2-f7045c8bbbcc"
                  },
                  {
                    "reference": "urn:uuid:b3327bbd-b53a-487d-80fb-f1eaaba24fba"
                  },
                  {
                    "reference": "urn:uuid:95ae76b1-556e-480d-bb3a-081222038f00"
                  },
                  {
                    "reference": "urn:uuid:abd70e26-2d7d-43ba-95df-d723d83aa96b"
                  },
                  {
                    "reference": "urn:uuid:362b1f05-5f40-43a3-ae1d-85e62cc4a070"
                  },
                  {
                    "reference": "urn:uuid:9d14266e-a8bd-48f7-bf61-56cecc0de399"
                  },
                  {
                    "reference": "urn:uuid:7f72729c-39f5-421f-bd87-c048fbc884b2"
                  }
                ],
                "text": {
                  "status": "generated",
                  "div": "<div xmlns=\"http://www.w3.org/1999/xhtml\"><h3>Chemistry</h3><table class=\"hl7__eu__lab__report\"><thead><tr><th>Test</th><th>11-APR-2018</th><th>Reference&#xA0;Range</th><th>Unit</th></tr></thead><tbody><tr><td>Glucose [Mass/volume] in Serum or Plasma</td><td>90.1</td><td>70 - 140</td><td>mg/dL</td></tr><tr><td>Urea nitrogen [Mass/volume] in Serum or Plasma</td><td>7.7</td><td>7 - 20</td><td>mg/dL</td></tr><tr><td>Creatinine [Mass/volume] in Serum or Plasma</td><td><strong>2.5 H</strong></td><td>0.6 - 1.3</td><td>mg/dL</td></tr><tr><td>Calcium [Mass/volume] in Serum or Plasma</td><td>10.1</td><td>8.6 - 10.4</td><td>mg/dL</td></tr><tr><td>Sodium [Moles/volume] in Serum or Plasma</td><td>141.9</td><td>135 - 145</td><td>mmol/L</td></tr><tr><td>Potassium [Moles/volume] in Serum or Plasma</td><td>4.4</td><td>3.5 - 5.1</td><td>mmol/L</td></tr><tr><td>Chloride [Moles/volume] in Serum or Plasma</td><td>102.9</td><td>98 - 108</td><td>mmol/L</td></tr><tr><td>Carbon dioxide, total [Moles/volume] in Serum or Plasma</td><td>25.0</td><td>22 - 32</td><td>mmol/L</td></tr><tr><td>Ketones [Presence] in Urine by Test strip</td><td>Urine ketone test = +++</td><td></td><td></td></tr><tr><td>Hemoglobin A1c/Hemoglobin.total in Blood</td><td><strong>3.1 L</strong></td><td>4.5 - 6.4</td><td>%</td></tr><tr><td>Glucose [Mass/volume] in Blood</td><td>90.1</td><td>70 - 140</td><td>mg/dL</td></tr><tr><td>Urea nitrogen [Mass/volume] in Blood</td><td>7.7</td><td>7 - 30</td><td>mg/dL</td></tr><tr><td>Creatinine [Mass/volume] in Blood</td><td><strong>25.3 H</strong></td><td>0.5 - 1.3</td><td>mg/dL</td></tr><tr><td>Calcium [Mass/volume] in Blood</td><td>10.1</td><td>8.6 - 10.2</td><td>mg/dL</td></tr><tr><td>Sodium [Moles/volume] in Blood</td><td>141.9</td><td>135 - 145</td><td>mmol/L</td></tr><tr><td>Potassium [Moles/volume] in Blood</td><td>4.4</td><td>3.5 - 5.1</td><td>mmol/L</td></tr><tr><td>Chloride [Moles/volume] in Blood</td><td>102.9</td><td>98 - 114</td><td>mmol/L</td></tr><tr><td>Carbon dioxide, total [Moles/volume] in Blood</td><td>25.0</td><td>22 - 32</td><td>mmol/L</td></tr><tr><td>Cholesterol [Mass/volume] in Serum or Plasma</td><td>146.0</td><td>125 - 200</td><td>mg/dL</td></tr><tr><td>Triglyceride [Mass/volume] in Serum or Plasma</td><td>112.5</td><td>35 - 150</td><td>mg/dL</td></tr><tr><td>Cholesterol in LDL [Mass/volume] in Serum or Plasma by Direct assay</td><td>72.0</td><td>0 - 130</td><td>mg/dL</td></tr><tr><td>Cholesterol in HDL [Mass/volume] in Serum or Plasma</td><td>51.5</td><td>50 - 120</td><td>mg/dL</td></tr></tbody></table></div>"
                },
                "title": "Chemistry"
              },
              {
                "code": {
                  "coding": [
                    {
                      "code": "$18729-4",
                      "system": "http://loinc.org",
                      "display": "Urinalysis studies (set)"
                    }
                  ],
                  "text": "Urinalysis"
                },
                "entry": [
                  {
                    "reference": "urn:uuid:1bdb33b3-4b12-4447-83db-cc860be4bc41"
                  },
                  {
                    "reference": "urn:uuid:11da2ea6-a6f2-4163-abcc-c7b696affb7c"
                  },
                  {
                    "reference": "urn:uuid:5315f317-3957-47dd-8c5c-a69aef6a36bc"
                  },
                  {
                    "reference": "urn:uuid:6817ae4f-1bc3-4983-9547-492eac2269bb"
                  },
                  {
                    "reference": "urn:uuid:97997fd7-9d43-4fae-af11-1b3d362499c6"
                  },
                  {
                    "reference": "urn:uuid:af8e696a-c923-4be8-9744-a091aa412eaf"
                  },
                  {
                    "reference": "urn:uuid:8c038ec0-f937-42f0-b3ac-416d95cbff36"
                  },
                  {
                    "reference": "urn:uuid:2d928730-4b17-48a6-ade8-aad63e9648f6"
                  },
                  {
                    "reference": "urn:uuid:056e1445-be8b-4db7-8939-fb38d1368af7"
                  },
                  {
                    "reference": "urn:uuid:15914292-fe43-4c7b-a6ce-0074cc539df7"
                  },
                  {
                    "reference": "urn:uuid:8e238787-4d24-4253-888d-16b51f2b2392"
                  },
                  {
                    "reference": "urn:uuid:60e42035-5952-4180-ae8f-0e5beda6e75c"
                  }
                ],
                "text": {
                  "status": "generated",
                  "div": "<div xmlns=\"http://www.w3.org/1999/xhtml\"><h3>Urinalysis</h3><table class=\"hl7__eu__lab__report\"><thead><tr><th>Test</th><th>11-APR-2018</th><th>Reference&#xA0;Range</th><th>Unit</th></tr></thead><tbody><tr><td>Glucose [Mass/volume] in Urine by Test strip</td><td><strong>1.3 H</strong></td><td>0.8 - 0</td><td>mg/dL</td></tr><tr><td>Glucose [Presence] in Urine by Test strip</td><td>++</td><td></td><td></td></tr><tr><td>Bilirubin.total [Mass/volume] in Urine by Test strip</td><td>1.5</td><td>0 - 1.5</td><td>mg/dL</td></tr><tr><td>Bilirubin.total [Presence] in Urine by Test strip</td><td>Finding of bilirubin in urine</td><td></td><td></td></tr><tr><td>Ketones [Mass/volume] in Urine by Test strip</td><td><strong>16.3 H</strong></td><td>0 - 8</td><td>mg/dL</td></tr><tr><td>Specific gravity of Urine by Test strip</td><td><strong>1.0 L</strong></td><td>1.01 - 1.03</td><td>{nominal}</td></tr><tr><td>pH of Urine by Test strip</td><td>5.0</td><td>4.6 - 7.5</td><td>pH</td></tr><tr><td>Protein [Mass/volume] in Urine by Test strip</td><td><strong>310.3 H</strong></td><td>0 - 14</td><td>mg/dL</td></tr><tr><td>Protein [Presence] in Urine by Test strip</td><td>Urine protein test = +++</td><td></td><td></td></tr><tr><td>Nitrite [Presence] in Urine by Test strip</td><td>Urine nitrite negative</td><td></td><td></td></tr><tr><td>Hemoglobin [Presence] in Urine by Test strip</td><td>Urine blood test = negative</td><td></td><td></td></tr><tr><td>Leukocyte esterase [Presence] in Urine by Test strip</td><td>Urine leukocyte test negative</td><td></td><td></td></tr></tbody></table></div>"
                },
                "title": "Urinalysis"
              },
              {
                "code": {
                  "coding": [
                    {
                      "code": "$LP7846-1",
                      "system": "http://loinc.org",
                      "display": "Specimen information"
                    }
                  ],
                  "text": "Specimen information"
                },
                "entry": [
                  {
                    "reference": "urn:uuid:7b25ffd3-d9b7-455c-b8f9-db802c54667a"
                  },
                  {
                    "reference": "urn:uuid:e732baf0-671c-417c-b01e-b92b9fde8adb"
                  },
                  {
                    "reference": "urn:uuid:dfb4c260-2596-48c9-b685-a258f298e88d"
                  },
                  {
                    "reference": "urn:uuid:93f7406b-c58a-4ab0-bb16-b8c861f65732"
                  }
                ],
                "text": {
                  "status": "generated",
                  "div": "<div xmlns=\"http://www.w3.org/1999/xhtml\"><h3>Specimen information</h3><table class=\"hl7__eu__lab__report\"><thead><tr><th>Test</th><th>11-APR-2018</th><th>Specimen</th><th></th></tr></thead><tbody><tr><td>Appearance of Urine</td><td>Cloudy urine</td><td>Urine</td><td></td></tr><tr><td>Odor of Urine</td><td>Urine smell ammoniacal</td><td>Urine</td><td></td></tr><tr><td>Clarity of Urine</td><td>Translucent</td><td>Urine</td><td></td></tr><tr><td>Color of Urine</td><td>Brown color</td><td>Urine</td><td></td></tr></tbody></table></div>"
                },
                "title": "Specimen information"
              }
            ],
            "title": "Laboratory Report"
          },
          {
            "text": {
              "status": "generated",
              "div": "<div xmlns=\"http://www.w3.org/1999/xhtml\"><h3>Annotation</h3><table class=\"hl7__eu__lab__report\"><tr><th>Conclusion and Recommendations based on this report and previous findings known to us</th></tr><tr><td>The patient shows markedly elevated creatinine, indicating significant renal impairment, and severe proteinuria with low urine specific gravity, suggesting nephrotic syndrome or advanced kidney disease. Urine findings (cloudy, brown, ammoniacal odor) may indicate urinary tract pathology. High urine ketones and glucose, with low HbA1c, are unusual and may reflect acute metabolic disturbance. Immediate nephrology evaluation is recommended.</td></tr></table></div>"
            },
            "code": {
              "coding": [
                {
                  "system": "http://loinc.org",
                  "code": "48767-8",
                  "display": "Annotation comment"
                }
              ]
            },
            "title": "Annotation comment"
          }
        ],
        "status": "final",
        "subject": {
          "reference": "urn:uuid:c0e57ab7-f14e-43aa-9895-e047565f5c56",
          "display": "Maria Nohlmans"
        },
        "date": "2018-04-11T13:02:39Z",
        "title": "Laboratory Report",
        "confidentiality": "N"
      }
    },
    {
      "fullUrl": "urn:uuid:978768aa-f60a-4fb5-ae91-3a2a6928380a",
      "resource": {
        "resourceType": "DiagnosticReport",
        "id": "978768aa-f60a-4fb5-ae91-3a2a6928380a",
        "meta": {
          "profile": [
            "http://hl7.eu/fhir/laboratory/StructureDefinition/DiagnosticReport-eu-lab"
          ]
        },
        "identifier": [
          {
            "assigner": {
              "display": "HL7 Europe"
            },
            "system": "urn:oid:2.16.840.1.113883.2.51.999",
            "value": "efbec23a-006b-4739-8f5b-52f7f63385b2"
          }
        ],
        "extension": [
          {
            "url": "http://hl7.org/fhir/5.0/StructureDefinition/extension-DiagnosticReport.composition",
            "valueReference": {
              "reference": "urn:uuid:212a37a4-74e6-4041-92e4-e05178e443f7"
            }
          }
        ],
        "category": [
          {
            "coding": [
              {
                "code": "26436-6",
                "system": "http://loinc.org",
                "display": "Laboratory studies (set)"
              }
            ]
          }
        ],
        "specimen": [
          {
            "reference": "urn:uuid:4850b034-9c98-4c22-bb23-38398756dcda"
          },
          {
            "reference": "urn:uuid:e9aeaa01-cc8f-46f3-a722-cff3c3dd902e"
          },
          {
            "reference": "urn:uuid:b26292f0-c72f-41dd-8242-ece387e5c3b2"
          }
        ],
        "result": [
          {
            "reference": "urn:uuid:e6e27b07-79ff-49b3-806e-a75ed5dc61a1"
          },
          {
            "reference": "urn:uuid:31a7cf55-208a-451f-81f9-c56b5f5ec9c4"
          },
          {
            "reference": "urn:uuid:75eca570-94c0-4194-97c7-72bbe1f807f1"
          },
          {
            "reference": "urn:uuid:0d4c5fb7-28eb-4000-bb93-c8cc07834892"
          },
          {
            "reference": "urn:uuid:f8cd099d-5d6a-4e5e-b320-e557bc0fdfcc"
          },
          {
            "reference": "urn:uuid:f13dc6b5-6e46-4894-a26f-3de63098d0ad"
          },
          {
            "reference": "urn:uuid:859db867-9735-469d-9b7a-f68e3e3fc5b5"
          },
          {
            "reference": "urn:uuid:9e9471d7-d3f8-4a13-88a8-d222910c11bb"
          },
          {
            "reference": "urn:uuid:7b25ffd3-d9b7-455c-b8f9-db802c54667a"
          },
          {
            "reference": "urn:uuid:e732baf0-671c-417c-b01e-b92b9fde8adb"
          },
          {
            "reference": "urn:uuid:dfb4c260-2596-48c9-b685-a258f298e88d"
          },
          {
            "reference": "urn:uuid:93f7406b-c58a-4ab0-bb16-b8c861f65732"
          },
          {
            "reference": "urn:uuid:1bdb33b3-4b12-4447-83db-cc860be4bc41"
          },
          {
            "reference": "urn:uuid:11da2ea6-a6f2-4163-abcc-c7b696affb7c"
          },
          {
            "reference": "urn:uuid:5315f317-3957-47dd-8c5c-a69aef6a36bc"
          },
          {
            "reference": "urn:uuid:6817ae4f-1bc3-4983-9547-492eac2269bb"
          },
          {
            "reference": "urn:uuid:97997fd7-9d43-4fae-af11-1b3d362499c6"
          },
          {
            "reference": "urn:uuid:e769968f-2dbf-479c-b816-e24daeb915df"
          },
          {
            "reference": "urn:uuid:af8e696a-c923-4be8-9744-a091aa412eaf"
          },
          {
            "reference": "urn:uuid:8c038ec0-f937-42f0-b3ac-416d95cbff36"
          },
          {
            "reference": "urn:uuid:2d928730-4b17-48a6-ade8-aad63e9648f6"
          },
          {
            "reference": "urn:uuid:056e1445-be8b-4db7-8939-fb38d1368af7"
          },
          {
            "reference": "urn:uuid:15914292-fe43-4c7b-a6ce-0074cc539df7"
          },
          {
            "reference": "urn:uuid:8e238787-4d24-4253-888d-16b51f2b2392"
          },
          {
            "reference": "urn:uuid:60e42035-5952-4180-ae8f-0e5beda6e75c"
          },
          {
            "reference": "urn:uuid:390a0543-dede-4f4d-b3e3-ebee7c1a877e"
          },
          {
            "reference": "urn:uuid:8147d126-fe97-4be0-8cfd-b9c15fd92d81"
          },
          {
            "reference": "urn:uuid:c85eb616-14aa-47a2-ad10-52ae9fef5097"
          },
          {
            "reference": "urn:uuid:492ff5c4-a928-4687-b5c7-7acc2947a5c6"
          },
          {
            "reference": "urn:uuid:0332bdf6-e01e-429b-a144-36530bae6258"
          },
          {
            "reference": "urn:uuid:798bf1af-3d30-4b09-8813-b103f39ddd51"
          },
          {
            "reference": "urn:uuid:0bc70578-fbc0-4629-a0f2-f7045c8bbbcc"
          },
          {
            "reference": "urn:uuid:b3327bbd-b53a-487d-80fb-f1eaaba24fba"
          },
          {
            "reference": "urn:uuid:95ae76b1-556e-480d-bb3a-081222038f00"
          },
          {
            "reference": "urn:uuid:abd70e26-2d7d-43ba-95df-d723d83aa96b"
          },
          {
            "reference": "urn:uuid:362b1f05-5f40-43a3-ae1d-85e62cc4a070"
          },
          {
            "reference": "urn:uuid:9d14266e-a8bd-48f7-bf61-56cecc0de399"
          },
          {
            "reference": "urn:uuid:7f72729c-39f5-421f-bd87-c048fbc884b2"
          }
        ],
        "status": "registered",
        "code": {
          "coding": [
            {
              "code": "11502-2",
              "system": "http://loinc.org",
              "display": "Laboratory report"
            }
          ]
        },
        "subject": {
          "reference": "urn:uuid:c0e57ab7-f14e-43aa-9895-e047565f5c56",
          "display": "Maria Nohlmans"
        }
      }
    },
    {
      "fullUrl": "urn:uuid:c0e57ab7-f14e-43aa-9895-e047565f5c56",
      "resource": {
        "resourceType": "Patient",
        "id": "c0e57ab7-f14e-43aa-9895-e047565f5c56",
        "meta": {
          "security": [
            {
              "system": "http://terminology.hl7.org/CodeSystem/v3-ActReason",
              "code": "HTEST"
            },
            {
              "system": "http://terminology.hl7.org/CodeSystem/v3-ActReason",
              "code": "TRAIN"
            }
          ],
          "tag": [
            {
              "system": "https://synderai.net/fhir/CodeSystem/tags",
              "code": "synthetic",
              "display": "SYNDERAI Synthetic data"
            }
          ],
          "profile": [
            "http://hl7.eu/fhir/base/StructureDefinition/patient-eu-core"
          ]
        },
        "identifier": [
          {
            "type": {
              "coding": [
                {
                  "code": "PT",
                  "system": "http://terminology.hl7.org/CodeSystem/v2-0203"
                }
              ]
            },
            "system": "http://ec.europa.eu/identifier/eci",
            "value": "6886-506417-1"
          },
          {
            "type": {
              "coding": [
                {
                  "code": "MR",
                  "system": "http://terminology.hl7.org/CodeSystem/v2-0203"
                }
              ]
            },
            "system": "http://local.setting.eu/identifier",
            "value": "2cb21ed6-b617-b1f3-2290-589a710de5ee"
          }
        ],
        "name": [
          {
            "family": "Nohlmans"
          },
          {
            "given": [
              "Maria"
            ]
          },
          {
            "text": "Maria Nohlmans"
          }
        ],
        "address": [
          {
            "line": [
              "Alfons-Wulff-Weg 1"
            ],
            "use": "home",
            "type": "physical",
            "postalCode": "25813",
            "city": "Husum",
            "country": "Germany"
          }
        ],
        "telecom": [
          {
            "system": "phone",
            "value": "+49(0)1911 105501"
          }
        ],
        "extension": [
          {
            "url": "http://hl7.org/fhir/StructureDefinition/patient-nationality",
            "valueCodeableConcept": {
              "coding": [
                {
                  "code": "DE",
                  "system": "http://hl7.org/fhir/ValueSet/country"
                }
              ]
            }
          }
        ],
        "text": {
          "status": "generated",
          "div": "<div xmlns=\"http://www.w3.org/1999/xhtml\"><table class=\"hl7__ips\"><tr><td>Maria Nohlmans</td><td>female</td><td>11-Jun-1947</td></tr></table></div>"
        },
        "gender": "female",
        "birthDate": "1947-06-11"
      }
    },
    {
      "fullUrl": "urn:uuid:10987280-846f-4b77-bc05-0d4f593eb5b4",
      "resource": {
        "resourceType": "ServiceRequest",
        "id": "10987280-846f-4b77-bc05-0d4f593eb5b4",
        "meta": {
          "profile": [
            "http://hl7.eu/fhir/laboratory/StructureDefinition/ServiceRequest-eu-lab"
          ]
        },
        "identifier": [
          {
            "system": "http://example.org",
            "value": "934e0c2d-4469-41b7-9f1a-3fb7a93f8c57"
          }
        ],
        "specimen": [
          {
            "reference": "urn:uuid:4850b034-9c98-4c22-bb23-38398756dcda"
          },
          {
            "reference": "urn:uuid:e9aeaa01-cc8f-46f3-a722-cff3c3dd902e"
          },
          {
            "reference": "urn:uuid:b26292f0-c72f-41dd-8242-ece387e5c3b2"
          }
        ],
        "reasonCode": [
          {
            "coding": [
              {
                "code": "401314000",
                "system": "http://snomed.info/sct",
                "display": "Acute non-ST segment elevation myocardial infarction"
              }
            ]
          },
          {
            "coding": [
              {
                "code": "157141000119108",
                "system": "http://snomed.info/sct",
                "display": "Proteinuria due to type 2 diabetes mellitus"
              }
            ]
          },
          {
            "coding": [
              {
                "code": "237602007",
                "system": "http://snomed.info/sct",
                "display": "Metabolic syndrome X"
              }
            ]
          },
          {
            "coding": [
              {
                "code": "90781000119102",
                "system": "http://snomed.info/sct",
                "display": "Microalbuminuria due to type 2 diabetes mellitus"
              }
            ]
          },
          {
            "coding": [
              {
                "code": "127013003",
                "system": "http://snomed.info/sct",
                "display": "Disorder of kidney due to diabetes mellitus"
              }
            ]
          },
          {
            "coding": [
              {
                "code": "59621000",
                "system": "http://snomed.info/sct",
                "display": "Essential hypertension"
              }
            ]
          },
          {
            "coding": [
              {
                "code": "271737000",
                "system": "http://snomed.info/sct",
                "display": "Anemia"
              }
            ]
          },
          {
            "coding": [
              {
                "code": "15777000",
                "system": "http://snomed.info/sct",
                "display": "Prediabetes"
              }
            ]
          }
        ],
        "status": "active",
        "intent": "order",
        "code": {
          "coding": [
            {
              "code": "108252007",
              "system": "http://snomed.info/sct",
              "display": "Laboratory procedure"
            }
          ]
        },
        "subject": {
          "reference": "urn:uuid:c0e57ab7-f14e-43aa-9895-e047565f5c56",
          "display": "Maria Nohlmans"
        },
        "requester": {
          "reference": "urn:uuid:a51cab27-ce63-42ea-ba0d-266fee75b513"
        }
      }
    },
    {
      "fullUrl": "urn:uuid:a51cab27-ce63-42ea-ba0d-266fee75b513",
      "resource": {
        "resourceType": "PractitionerRole",
        "id": "a51cab27-ce63-42ea-ba0d-266fee75b513",
        "meta": {
          "profile": [
            "http://hl7.eu/fhir/base/StructureDefinition/practitionerRole-eu"
          ]
        },
        "text": {
          "status": "generated",
          "div": "<div xmlns=\"http://www.w3.org/1999/xhtml\">Provider Role Id: a51cab27-ce63-42ea-ba0d-266fee75b513</div>"
        },
        "organization": {
          "reference": "urn:uuid:c5503358-5e1e-439a-9fcd-2d0f0c95bd4e"
        }
      }
    },
    {
      "fullUrl": "urn:uuid:c5503358-5e1e-439a-9fcd-2d0f0c95bd4e",
      "resource": {
        "resourceType": "Organization",
        "id": "c5503358-5e1e-439a-9fcd-2d0f0c95bd4e",
        "meta": {
          "profile": [
            "http://hl7.eu/fhir/base/StructureDefinition/organization-eu"
          ]
        },
        "identifier": [
          {
            "assigner": {
              "display": "HL7 Europe"
            },
            "system": "urn:oid:2.16.840.1.113883.2.51.999",
            "value": "2a1881ff-443a-42ef-8317-67c74085820a"
          }
        ],
        "address": [
          {
            "line": [
              "Brinckmannstraße 35"
            ],
            "city": "Husum",
            "postalCode": "25813",
            "country": "Germany"
          }
        ],
        "text": {
          "status": "generated",
          "div": "<div xmlns=\"http://www.w3.org/1999/xhtml\">Provider Organization: Dr. Wolfram Hussels Kieferorthopäde</div>"
        },
        "name": "Dr. Wolfram Hussels Kieferorthopäde"
      }
    },
    {
      "fullUrl": "urn:uuid:4850b034-9c98-4c22-bb23-38398756dcda",
      "resource": {
        "resourceType": "Specimen",
        "id": "4850b034-9c98-4c22-bb23-38398756dcda",
        "meta": {
          "profile": [
            "http://hl7.eu/fhir/laboratory/StructureDefinition/Specimen-eu-lab"
          ]
        },
        "collection": {
          "collectedDateTime": "2018-04-11"
        },
        "text": {
          "status": "generated",
          "div": "<div xmlns=\"http://www.w3.org/1999/xhtml\"><table class=\"hl7__eu__lab__report\"><tr><th>Specimen</th><th>Collection Date</th></tr><tr><td>Acellular blood (serum or plasma) specimen</td><td><span class=\"nb\">11-Apr-2018</span></td></tr></table></div>"
        },
        "type": {
          "coding": [
            {
              "code": "122592007",
              "system": "http://snomed.info/sct",
              "display": "Acellular blood (serum or plasma) specimen"
            }
          ]
        }
      }
    },
    {
      "fullUrl": "urn:uuid:e9aeaa01-cc8f-46f3-a722-cff3c3dd902e",
      "resource": {
        "resourceType": "Specimen",
        "id": "e9aeaa01-cc8f-46f3-a722-cff3c3dd902e",
        "meta": {
          "profile": [
            "http://hl7.eu/fhir/laboratory/StructureDefinition/Specimen-eu-lab"
          ]
        },
        "collection": {
          "collectedDateTime": "2018-04-11"
        },
        "text": {
          "status": "generated",
          "div": "<div xmlns=\"http://www.w3.org/1999/xhtml\"><table class=\"hl7__eu__lab__report\"><tr><th>Specimen</th><th>Collection Date</th></tr><tr><td>Urine specimen</td><td><span class=\"nb\">11-Apr-2018</span></td></tr></table></div>"
        },
        "type": {
          "coding": [
            {
              "code": "122575003",
              "system": "http://snomed.info/sct",
              "display": "Urine specimen"
            }
          ]
        }
      }
    },
    {
      "fullUrl": "urn:uuid:b26292f0-c72f-41dd-8242-ece387e5c3b2",
      "resource": {
        "resourceType": "Specimen",
        "id": "b26292f0-c72f-41dd-8242-ece387e5c3b2",
        "meta": {
          "profile": [
            "http://hl7.eu/fhir/laboratory/StructureDefinition/Specimen-eu-lab"
          ]
        },
        "collection": {
          "collectedDateTime": "2018-04-11"
        },
        "text": {
          "status": "generated",
          "div": "<div xmlns=\"http://www.w3.org/1999/xhtml\"><table class=\"hl7__eu__lab__report\"><tr><th>Specimen</th><th>Collection Date</th></tr><tr><td>Whole blood specimen (specimen)</td><td><span class=\"nb\">11-Apr-2018</span></td></tr></table></div>"
        },
        "type": {
          "coding": [
            {
              "code": "258580003",
              "system": "http://snomed.info/sct",
              "display": "Whole blood specimen (specimen)"
            }
          ]
        }
      }
    },
    {
      "fullUrl": "urn:uuid:e6e27b07-79ff-49b3-806e-a75ed5dc61a1",
      "resource": {
        "resourceType": "Observation",
        "id": "e6e27b07-79ff-49b3-806e-a75ed5dc61a1",
        "meta": {
          "profile": [
            "http://hl7.eu/fhir/laboratory/StructureDefinition/Observation-resultslab-eu-lab"
          ]
        },
        "performer": [
          {
            "display": "The Central European Lab"
          }
        ],
        "category": [
          {
            "coding": [
              {
                "system": "http://terminology.hl7.org/CodeSystem/observation-category",
                "code": "laboratory"
              }
            ]
          }
        ],
        "code": {
          "coding": [
            {
              "code": "2345-7",
              "system": "http://loinc.org",
              "display": "Glucose [Mass/volume] in Serum or Plasma"
            }
          ],
          "text": "Glucose [Mass/volume] in Serum or Plasma"
        },
        "valueQuantity": {
          "system": "http://unitsofmeasure.org",
          "value": 90.1,
          "unit": "mg/dL",
          "code": "mg/dL"
        },
        "referenceRange": [
          {
            "low": {
              "value": 70,
              "code": "mg/dL",
              "system": "http://unitsofmeasure.org"
            }
          },
          {
            "high": {
              "value": 140,
              "code": "mg/dL",
              "system": "http://unitsofmeasure.org"
            }
          }
        ],
        "text": {
          "status": "generated",
          "div": "<div xmlns=\"http://www.w3.org/1999/xhtml\"><table class=\"hl7__eu__lab__report\"><tr><th>Test</th><th>11-Apr-2018</th><th>Reference&#xA0;Range</th><th>Unit</th></tr><tr><td>Glucose [Mass/volume] in Serum or Plasma</td><td>90.1</td><td>70 - 140</td><td></td><td>mg/dL</td></tr></table></div>"
        },
        "status": "final",
        "subject": {
          "reference": "urn:uuid:c0e57ab7-f14e-43aa-9895-e047565f5c56",
          "display": "Maria Nohlmans"
        },
        "effectiveDateTime": "2018-04-11T11:02:39Z",
        "specimen": {
          "reference": "urn:uuid:4850b034-9c98-4c22-bb23-38398756dcda"
        }
      }
    },
    {
      "fullUrl": "urn:uuid:31a7cf55-208a-451f-81f9-c56b5f5ec9c4",
      "resource": {
        "resourceType": "Observation",
        "id": "31a7cf55-208a-451f-81f9-c56b5f5ec9c4",
        "meta": {
          "profile": [
            "http://hl7.eu/fhir/laboratory/StructureDefinition/Observation-resultslab-eu-lab"
          ]
        },
        "performer": [
          {
            "display": "The Central European Lab"
          }
        ],
        "category": [
          {
            "coding": [
              {
                "system": "http://terminology.hl7.org/CodeSystem/observation-category",
                "code": "laboratory"
              }
            ]
          }
        ],
        "code": {
          "coding": [
            {
              "code": "3094-0",
              "system": "http://loinc.org",
              "display": "Urea nitrogen [Mass/volume] in Serum or Plasma"
            }
          ],
          "text": "Urea nitrogen [Mass/volume] in Serum or Plasma"
        },
        "valueQuantity": {
          "system": "http://unitsofmeasure.org",
          "value": 7.7,
          "unit": "mg/dL",
          "code": "mg/dL"
        },
        "referenceRange": [
          {
            "low": {
              "value": 7,
              "code": "mg/dL",
              "system": "http://unitsofmeasure.org"
            }
          },
          {
            "high": {
              "value": 20,
              "code": "mg/dL",
              "system": "http://unitsofmeasure.org"
            }
          }
        ],
        "text": {
          "status": "generated",
          "div": "<div xmlns=\"http://www.w3.org/1999/xhtml\"><table class=\"hl7__eu__lab__report\"><tr><th>Test</th><th>11-Apr-2018</th><th>Reference&#xA0;Range</th><th>Unit</th></tr><tr><td>Urea nitrogen [Mass/volume] in Serum or Plasma</td><td>7.7</td><td>7 - 20</td><td></td><td>mg/dL</td></tr></table></div>"
        },
        "status": "final",
        "subject": {
          "reference": "urn:uuid:c0e57ab7-f14e-43aa-9895-e047565f5c56",
          "display": "Maria Nohlmans"
        },
        "effectiveDateTime": "2018-04-11T11:02:39Z",
        "specimen": {
          "reference": "urn:uuid:4850b034-9c98-4c22-bb23-38398756dcda"
        }
      }
    },
    {
      "fullUrl": "urn:uuid:75eca570-94c0-4194-97c7-72bbe1f807f1",
      "resource": {
        "resourceType": "Observation",
        "id": "75eca570-94c0-4194-97c7-72bbe1f807f1",
        "meta": {
          "profile": [
            "http://hl7.eu/fhir/laboratory/StructureDefinition/Observation-resultslab-eu-lab"
          ]
        },
        "performer": [
          {
            "display": "The Central European Lab"
          }
        ],
        "category": [
          {
            "coding": [
              {
                "system": "http://terminology.hl7.org/CodeSystem/observation-category",
                "code": "laboratory"
              }
            ]
          }
        ],
        "code": {
          "coding": [
            {
              "code": "2160-0",
              "system": "http://loinc.org",
              "display": "Creatinine [Mass/volume] in Serum or Plasma"
            }
          ],
          "text": "Creatinine [Mass/volume] in Serum or Plasma"
        },
        "valueQuantity": {
          "system": "http://unitsofmeasure.org",
          "value": 2.5,
          "unit": "mg/dL",
          "code": "mg/dL"
        },
        "referenceRange": [
          {
            "low": {
              "value": 0.6,
              "code": "mg/dL",
              "system": "http://unitsofmeasure.org"
            }
          },
          {
            "high": {
              "value": 1.3,
              "code": "mg/dL",
              "system": "http://unitsofmeasure.org"
            }
          }
        ],
        "interpretation": [
          {
            "coding": [
              {
                "code": "H",
                "system": "http://terminology.hl7.org/CodeSystem/v3-ObservationInterpretation",
                "display": "High"
              }
            ]
          }
        ],
        "text": {
          "status": "generated",
          "div": "<div xmlns=\"http://www.w3.org/1999/xhtml\"><table class=\"hl7__eu__lab__report\"><tr><th>Test</th><th>11-Apr-2018</th><th>Reference&#xA0;Range</th><th>Unit</th></tr><tr><td>Creatinine [Mass/volume] in Serum or Plasma</td><td>2.5</td><td>0.6 - 1.3</td><td>H</td><td>mg/dL</td></tr></table></div>"
        },
        "status": "final",
        "subject": {
          "reference": "urn:uuid:c0e57ab7-f14e-43aa-9895-e047565f5c56",
          "display": "Maria Nohlmans"
        },
        "effectiveDateTime": "2018-04-11T11:02:39Z",
        "specimen": {
          "reference": "urn:uuid:4850b034-9c98-4c22-bb23-38398756dcda"
        }
      }
    },
    {
      "fullUrl": "urn:uuid:0d4c5fb7-28eb-4000-bb93-c8cc07834892",
      "resource": {
        "resourceType": "Observation",
        "id": "0d4c5fb7-28eb-4000-bb93-c8cc07834892",
        "meta": {
          "profile": [
            "http://hl7.eu/fhir/laboratory/StructureDefinition/Observation-resultslab-eu-lab"
          ]
        },
        "performer": [
          {
            "display": "The Central European Lab"
          }
        ],
        "category": [
          {
            "coding": [
              {
                "system": "http://terminology.hl7.org/CodeSystem/observation-category",
                "code": "laboratory"
              }
            ]
          }
        ],
        "code": {
          "coding": [
            {
              "code": "17861-6",
              "system": "http://loinc.org",
              "display": "Calcium [Mass/volume] in Serum or Plasma"
            }
          ],
          "text": "Calcium [Mass/volume] in Serum or Plasma"
        },
        "valueQuantity": {
          "system": "http://unitsofmeasure.org",
          "value": 10.1,
          "unit": "mg/dL",
          "code": "mg/dL"
        },
        "referenceRange": [
          {
            "low": {
              "value": 8.6,
              "code": "mg/dL",
              "system": "http://unitsofmeasure.org"
            }
          },
          {
            "high": {
              "value": 10.4,
              "code": "mg/dL",
              "system": "http://unitsofmeasure.org"
            }
          }
        ],
        "text": {
          "status": "generated",
          "div": "<div xmlns=\"http://www.w3.org/1999/xhtml\"><table class=\"hl7__eu__lab__report\"><tr><th>Test</th><th>11-Apr-2018</th><th>Reference&#xA0;Range</th><th>Unit</th></tr><tr><td>Calcium [Mass/volume] in Serum or Plasma</td><td>10.1</td><td>8.6 - 10.4</td><td></td><td>mg/dL</td></tr></table></div>"
        },
        "status": "final",
        "subject": {
          "reference": "urn:uuid:c0e57ab7-f14e-43aa-9895-e047565f5c56",
          "display": "Maria Nohlmans"
        },
        "effectiveDateTime": "2018-04-11T11:02:39Z",
        "specimen": {
          "reference": "urn:uuid:4850b034-9c98-4c22-bb23-38398756dcda"
        }
      }
    },
    {
      "fullUrl": "urn:uuid:f8cd099d-5d6a-4e5e-b320-e557bc0fdfcc",
      "resource": {
        "resourceType": "Observation",
        "id": "f8cd099d-5d6a-4e5e-b320-e557bc0fdfcc",
        "meta": {
          "profile": [
            "http://hl7.eu/fhir/laboratory/StructureDefinition/Observation-resultslab-eu-lab"
          ]
        },
        "performer": [
          {
            "display": "The Central European Lab"
          }
        ],
        "category": [
          {
            "coding": [
              {
                "system": "http://terminology.hl7.org/CodeSystem/observation-category",
                "code": "laboratory"
              }
            ]
          }
        ],
        "code": {
          "coding": [
            {
              "code": "2951-2",
              "system": "http://loinc.org",
              "display": "Sodium [Moles/volume] in Serum or Plasma"
            }
          ],
          "text": "Sodium [Moles/volume] in Serum or Plasma"
        },
        "valueQuantity": {
          "system": "http://unitsofmeasure.org",
          "value": 141.9,
          "unit": "mmol/L",
          "code": "mmol/L"
        },
        "referenceRange": [
          {
            "low": {
              "value": 135,
              "code": "mmol/L",
              "system": "http://unitsofmeasure.org"
            }
          },
          {
            "high": {
              "value": 145,
              "code": "mmol/L",
              "system": "http://unitsofmeasure.org"
            }
          }
        ],
        "text": {
          "status": "generated",
          "div": "<div xmlns=\"http://www.w3.org/1999/xhtml\"><table class=\"hl7__eu__lab__report\"><tr><th>Test</th><th>11-Apr-2018</th><th>Reference&#xA0;Range</th><th>Unit</th></tr><tr><td>Sodium [Moles/volume] in Serum or Plasma</td><td>141.9</td><td>135 - 145</td><td></td><td>mmol/L</td></tr></table></div>"
        },
        "status": "final",
        "subject": {
          "reference": "urn:uuid:c0e57ab7-f14e-43aa-9895-e047565f5c56",
          "display": "Maria Nohlmans"
        },
        "effectiveDateTime": "2018-04-11T11:02:39Z",
        "specimen": {
          "reference": "urn:uuid:4850b034-9c98-4c22-bb23-38398756dcda"
        }
      }
    },
    {
      "fullUrl": "urn:uuid:f13dc6b5-6e46-4894-a26f-3de63098d0ad",
      "resource": {
        "resourceType": "Observation",
        "id": "f13dc6b5-6e46-4894-a26f-3de63098d0ad",
        "meta": {
          "profile": [
            "http://hl7.eu/fhir/laboratory/StructureDefinition/Observation-resultslab-eu-lab"
          ]
        },
        "performer": [
          {
            "display": "The Central European Lab"
          }
        ],
        "category": [
          {
            "coding": [
              {
                "system": "http://terminology.hl7.org/CodeSystem/observation-category",
                "code": "laboratory"
              }
            ]
          }
        ],
        "code": {
          "coding": [
            {
              "code": "2823-3",
              "system": "http://loinc.org",
              "display": "Potassium [Moles/volume] in Serum or Plasma"
            }
          ],
          "text": "Potassium [Moles/volume] in Serum or Plasma"
        },
        "valueQuantity": {
          "system": "http://unitsofmeasure.org",
          "value": 4.4,
          "unit": "mmol/L",
          "code": "mmol/L"
        },
        "referenceRange": [
          {
            "low": {
              "value": 3.5,
              "code": "mmol/L",
              "system": "http://unitsofmeasure.org"
            }
          },
          {
            "high": {
              "value": 5.1,
              "code": "mmol/L",
              "system": "http://unitsofmeasure.org"
            }
          }
        ],
        "text": {
          "status": "generated",
          "div": "<div xmlns=\"http://www.w3.org/1999/xhtml\"><table class=\"hl7__eu__lab__report\"><tr><th>Test</th><th>11-Apr-2018</th><th>Reference&#xA0;Range</th><th>Unit</th></tr><tr><td>Potassium [Moles/volume] in Serum or Plasma</td><td>4.4</td><td>3.5 - 5.1</td><td></td><td>mmol/L</td></tr></table></div>"
        },
        "status": "final",
        "subject": {
          "reference": "urn:uuid:c0e57ab7-f14e-43aa-9895-e047565f5c56",
          "display": "Maria Nohlmans"
        },
        "effectiveDateTime": "2018-04-11T11:02:39Z",
        "specimen": {
          "reference": "urn:uuid:4850b034-9c98-4c22-bb23-38398756dcda"
        }
      }
    },
    {
      "fullUrl": "urn:uuid:859db867-9735-469d-9b7a-f68e3e3fc5b5",
      "resource": {
        "resourceType": "Observation",
        "id": "859db867-9735-469d-9b7a-f68e3e3fc5b5",
        "meta": {
          "profile": [
            "http://hl7.eu/fhir/laboratory/StructureDefinition/Observation-resultslab-eu-lab"
          ]
        },
        "performer": [
          {
            "display": "The Central European Lab"
          }
        ],
        "category": [
          {
            "coding": [
              {
                "system": "http://terminology.hl7.org/CodeSystem/observation-category",
                "code": "laboratory"
              }
            ]
          }
        ],
        "code": {
          "coding": [
            {
              "code": "2075-0",
              "system": "http://loinc.org",
              "display": "Chloride [Moles/volume] in Serum or Plasma"
            }
          ],
          "text": "Chloride [Moles/volume] in Serum or Plasma"
        },
        "valueQuantity": {
          "system": "http://unitsofmeasure.org",
          "value": 102.9,
          "unit": "mmol/L",
          "code": "mmol/L"
        },
        "referenceRange": [
          {
            "low": {
              "value": 98,
              "code": "mmol/L",
              "system": "http://unitsofmeasure.org"
            }
          },
          {
            "high": {
              "value": 108,
              "code": "mmol/L",
              "system": "http://unitsofmeasure.org"
            }
          }
        ],
        "text": {
          "status": "generated",
          "div": "<div xmlns=\"http://www.w3.org/1999/xhtml\"><table class=\"hl7__eu__lab__report\"><tr><th>Test</th><th>11-Apr-2018</th><th>Reference&#xA0;Range</th><th>Unit</th></tr><tr><td>Chloride [Moles/volume] in Serum or Plasma</td><td>102.9</td><td>98 - 108</td><td></td><td>mmol/L</td></tr></table></div>"
        },
        "status": "final",
        "subject": {
          "reference": "urn:uuid:c0e57ab7-f14e-43aa-9895-e047565f5c56",
          "display": "Maria Nohlmans"
        },
        "effectiveDateTime": "2018-04-11T11:02:39Z",
        "specimen": {
          "reference": "urn:uuid:4850b034-9c98-4c22-bb23-38398756dcda"
        }
      }
    },
    {
      "fullUrl": "urn:uuid:9e9471d7-d3f8-4a13-88a8-d222910c11bb",
      "resource": {
        "resourceType": "Observation",
        "id": "9e9471d7-d3f8-4a13-88a8-d222910c11bb",
        "meta": {
          "profile": [
            "http://hl7.eu/fhir/laboratory/StructureDefinition/Observation-resultslab-eu-lab"
          ]
        },
        "performer": [
          {
            "display": "The Central European Lab"
          }
        ],
        "category": [
          {
            "coding": [
              {
                "system": "http://terminology.hl7.org/CodeSystem/observation-category",
                "code": "laboratory"
              }
            ]
          }
        ],
        "code": {
          "coding": [
            {
              "code": "2028-9",
              "system": "http://loinc.org",
              "display": "Carbon dioxide, total [Moles/volume] in Serum or Plasma"
            }
          ],
          "text": "Carbon dioxide, total [Moles/volume] in Serum or Plasma"
        },
        "valueQuantity": {
          "system": "http://unitsofmeasure.org",
          "value": 25,
          "unit": "mmol/L",
          "code": "mmol/L"
        },
        "referenceRange": [
          {
            "low": {
              "value": 22,
              "code": "mmol/L",
              "system": "http://unitsofmeasure.org"
            }
          },
          {
            "high": {
              "value": 32,
              "code": "mmol/L",
              "system": "http://unitsofmeasure.org"
            }
          }
        ],
        "text": {
          "status": "generated",
          "div": "<div xmlns=\"http://www.w3.org/1999/xhtml\"><table class=\"hl7__eu__lab__report\"><tr><th>Test</th><th>11-Apr-2018</th><th>Reference&#xA0;Range</th><th>Unit</th></tr><tr><td>Carbon dioxide, total [Moles/volume] in Serum or Plasma</td><td>25.0</td><td>22 - 32</td><td></td><td>mmol/L</td></tr></table></div>"
        },
        "status": "final",
        "subject": {
          "reference": "urn:uuid:c0e57ab7-f14e-43aa-9895-e047565f5c56",
          "display": "Maria Nohlmans"
        },
        "effectiveDateTime": "2018-04-11T11:02:39Z",
        "specimen": {
          "reference": "urn:uuid:4850b034-9c98-4c22-bb23-38398756dcda"
        }
      }
    },
    {
      "fullUrl": "urn:uuid:7b25ffd3-d9b7-455c-b8f9-db802c54667a",
      "resource": {
        "resourceType": "Observation",
        "id": "7b25ffd3-d9b7-455c-b8f9-db802c54667a",
        "meta": {
          "profile": [
            "http://hl7.eu/fhir/laboratory/StructureDefinition/Observation-resultslab-eu-lab"
          ]
        },
        "performer": [
          {
            "display": "The Central European Lab"
          }
        ],
        "category": [
          {
            "coding": [
              {
                "system": "http://terminology.hl7.org/CodeSystem/observation-category",
                "code": "laboratory"
              }
            ]
          }
        ],
        "code": {
          "coding": [
            {
              "code": "5767-9",
              "system": "http://loinc.org",
              "display": "Appearance of Urine"
            }
          ],
          "text": "Appearance of Urine"
        },
        "text": {
          "status": "generated",
          "div": "<div xmlns=\"http://www.w3.org/1999/xhtml\"><table class=\"hl7__eu__lab__report\"><tr><th>Test</th><th>11-Apr-2018</th><th>Reference&#xA0;Range</th><th>Unit</th></tr><tr><td>Appearance of Urine</td></tr></table></div>"
        },
        "status": "final",
        "subject": {
          "reference": "urn:uuid:c0e57ab7-f14e-43aa-9895-e047565f5c56",
          "display": "Maria Nohlmans"
        },
        "effectiveDateTime": "2018-04-11T11:02:39Z",
        "specimen": {
          "reference": "urn:uuid:e9aeaa01-cc8f-46f3-a722-cff3c3dd902e"
        }
      }
    },
    {
      "fullUrl": "urn:uuid:e732baf0-671c-417c-b01e-b92b9fde8adb",
      "resource": {
        "resourceType": "Observation",
        "id": "e732baf0-671c-417c-b01e-b92b9fde8adb",
        "meta": {
          "profile": [
            "http://hl7.eu/fhir/laboratory/StructureDefinition/Observation-resultslab-eu-lab"
          ]
        },
        "performer": [
          {
            "display": "The Central European Lab"
          }
        ],
        "category": [
          {
            "coding": [
              {
                "system": "http://terminology.hl7.org/CodeSystem/observation-category",
                "code": "laboratory"
              }
            ]
          }
        ],
        "code": {
          "coding": [
            {
              "code": "34533-0",
              "system": "http://loinc.org",
              "display": "Odor of Urine"
            }
          ],
          "text": "Odor of Urine"
        },
        "text": {
          "status": "generated",
          "div": "<div xmlns=\"http://www.w3.org/1999/xhtml\"><table class=\"hl7__eu__lab__report\"><tr><th>Test</th><th>11-Apr-2018</th><th>Reference&#xA0;Range</th><th>Unit</th></tr><tr><td>Odor of Urine</td></tr></table></div>"
        },
        "status": "final",
        "subject": {
          "reference": "urn:uuid:c0e57ab7-f14e-43aa-9895-e047565f5c56",
          "display": "Maria Nohlmans"
        },
        "effectiveDateTime": "2018-04-11T11:02:39Z",
        "specimen": {
          "reference": "urn:uuid:e9aeaa01-cc8f-46f3-a722-cff3c3dd902e"
        }
      }
    },
    {
      "fullUrl": "urn:uuid:dfb4c260-2596-48c9-b685-a258f298e88d",
      "resource": {
        "resourceType": "Observation",
        "id": "dfb4c260-2596-48c9-b685-a258f298e88d",
        "meta": {
          "profile": [
            "http://hl7.eu/fhir/laboratory/StructureDefinition/Observation-resultslab-eu-lab"
          ]
        },
        "performer": [
          {
            "display": "The Central European Lab"
          }
        ],
        "category": [
          {
            "coding": [
              {
                "system": "http://terminology.hl7.org/CodeSystem/observation-category",
                "code": "laboratory"
              }
            ]
          }
        ],
        "code": {
          "coding": [
            {
              "code": "32167-9",
              "system": "http://loinc.org",
              "display": "Clarity of Urine"
            }
          ],
          "text": "Clarity of Urine"
        },
        "text": {
          "status": "generated",
          "div": "<div xmlns=\"http://www.w3.org/1999/xhtml\"><table class=\"hl7__eu__lab__report\"><tr><th>Test</th><th>11-Apr-2018</th><th>Reference&#xA0;Range</th><th>Unit</th></tr><tr><td>Clarity of Urine</td></tr></table></div>"
        },
        "status": "final",
        "subject": {
          "reference": "urn:uuid:c0e57ab7-f14e-43aa-9895-e047565f5c56",
          "display": "Maria Nohlmans"
        },
        "effectiveDateTime": "2018-04-11T11:02:39Z",
        "specimen": {
          "reference": "urn:uuid:e9aeaa01-cc8f-46f3-a722-cff3c3dd902e"
        }
      }
    },
    {
      "fullUrl": "urn:uuid:93f7406b-c58a-4ab0-bb16-b8c861f65732",
      "resource": {
        "resourceType": "Observation",
        "id": "93f7406b-c58a-4ab0-bb16-b8c861f65732",
        "meta": {
          "profile": [
            "http://hl7.eu/fhir/laboratory/StructureDefinition/Observation-resultslab-eu-lab"
          ]
        },
        "performer": [
          {
            "display": "The Central European Lab"
          }
        ],
        "category": [
          {
            "coding": [
              {
                "system": "http://terminology.hl7.org/CodeSystem/observation-category",
                "code": "laboratory"
              }
            ]
          }
        ],
        "code": {
          "coding": [
            {
              "code": "5778-6",
              "system": "http://loinc.org",
              "display": "Color of Urine"
            }
          ],
          "text": "Color of Urine"
        },
        "text": {
          "status": "generated",
          "div": "<div xmlns=\"http://www.w3.org/1999/xhtml\"><table class=\"hl7__eu__lab__report\"><tr><th>Test</th><th>11-Apr-2018</th><th>Reference&#xA0;Range</th><th>Unit</th></tr><tr><td>Color of Urine</td></tr></table></div>"
        },
        "status": "final",
        "subject": {
          "reference": "urn:uuid:c0e57ab7-f14e-43aa-9895-e047565f5c56",
          "display": "Maria Nohlmans"
        },
        "effectiveDateTime": "2018-04-11T11:02:39Z",
        "specimen": {
          "reference": "urn:uuid:e9aeaa01-cc8f-46f3-a722-cff3c3dd902e"
        }
      }
    },
    {
      "fullUrl": "urn:uuid:1bdb33b3-4b12-4447-83db-cc860be4bc41",
      "resource": {
        "resourceType": "Observation",
        "id": "1bdb33b3-4b12-4447-83db-cc860be4bc41",
        "meta": {
          "profile": [
            "http://hl7.eu/fhir/laboratory/StructureDefinition/Observation-resultslab-eu-lab"
          ]
        },
        "performer": [
          {
            "display": "The Central European Lab"
          }
        ],
        "category": [
          {
            "coding": [
              {
                "system": "http://terminology.hl7.org/CodeSystem/observation-category",
                "code": "laboratory"
              }
            ]
          }
        ],
        "code": {
          "coding": [
            {
              "code": "5792-7",
              "system": "http://loinc.org",
              "display": "Glucose [Mass/volume] in Urine by Test strip"
            }
          ],
          "text": "Glucose [Mass/volume] in Urine by Test strip"
        },
        "valueQuantity": {
          "system": "http://unitsofmeasure.org",
          "value": 1.3,
          "unit": "mg/dL",
          "code": "mg/dL"
        },
        "referenceRange": [
          {
            "low": {
              "value": 0.8,
              "code": "mg/dL",
              "system": "http://unitsofmeasure.org"
            }
          },
          {
            "high": {
              "value": 0,
              "code": "mg/dL",
              "system": "http://unitsofmeasure.org"
            }
          }
        ],
        "interpretation": [
          {
            "coding": [
              {
                "code": "H",
                "system": "http://terminology.hl7.org/CodeSystem/v3-ObservationInterpretation",
                "display": "High"
              }
            ]
          }
        ],
        "text": {
          "status": "generated",
          "div": "<div xmlns=\"http://www.w3.org/1999/xhtml\"><table class=\"hl7__eu__lab__report\"><tr><th>Test</th><th>11-Apr-2018</th><th>Reference&#xA0;Range</th><th>Unit</th></tr><tr><td>Glucose [Mass/volume] in Urine by Test strip</td><td>1.3</td><td>0.8 - 0</td><td>H</td><td>mg/dL</td></tr></table></div>"
        },
        "status": "final",
        "subject": {
          "reference": "urn:uuid:c0e57ab7-f14e-43aa-9895-e047565f5c56",
          "display": "Maria Nohlmans"
        },
        "effectiveDateTime": "2018-04-11T11:02:39Z",
        "specimen": {
          "reference": "urn:uuid:e9aeaa01-cc8f-46f3-a722-cff3c3dd902e"
        }
      }
    },
    {
      "fullUrl": "urn:uuid:11da2ea6-a6f2-4163-abcc-c7b696affb7c",
      "resource": {
        "resourceType": "Observation",
        "id": "11da2ea6-a6f2-4163-abcc-c7b696affb7c",
        "meta": {
          "profile": [
            "http://hl7.eu/fhir/laboratory/StructureDefinition/Observation-resultslab-eu-lab"
          ]
        },
        "performer": [
          {
            "display": "The Central European Lab"
          }
        ],
        "category": [
          {
            "coding": [
              {
                "system": "http://terminology.hl7.org/CodeSystem/observation-category",
                "code": "laboratory"
              }
            ]
          }
        ],
        "code": {
          "coding": [
            {
              "code": "25428-4",
              "system": "http://loinc.org",
              "display": "Glucose [Presence] in Urine by Test strip"
            }
          ],
          "text": "Glucose [Presence] in Urine by Test strip"
        },
        "text": {
          "status": "generated",
          "div": "<div xmlns=\"http://www.w3.org/1999/xhtml\"><table class=\"hl7__eu__lab__report\"><tr><th>Test</th><th>11-Apr-2018</th><th>Reference&#xA0;Range</th><th>Unit</th></tr><tr><td>Glucose [Presence] in Urine by Test strip</td></tr></table></div>"
        },
        "status": "final",
        "subject": {
          "reference": "urn:uuid:c0e57ab7-f14e-43aa-9895-e047565f5c56",
          "display": "Maria Nohlmans"
        },
        "effectiveDateTime": "2018-04-11T11:02:39Z",
        "specimen": {
          "reference": "urn:uuid:e9aeaa01-cc8f-46f3-a722-cff3c3dd902e"
        }
      }
    },
    {
      "fullUrl": "urn:uuid:5315f317-3957-47dd-8c5c-a69aef6a36bc",
      "resource": {
        "resourceType": "Observation",
        "id": "5315f317-3957-47dd-8c5c-a69aef6a36bc",
        "meta": {
          "profile": [
            "http://hl7.eu/fhir/laboratory/StructureDefinition/Observation-resultslab-eu-lab"
          ]
        },
        "performer": [
          {
            "display": "The Central European Lab"
          }
        ],
        "category": [
          {
            "coding": [
              {
                "system": "http://terminology.hl7.org/CodeSystem/observation-category",
                "code": "laboratory"
              }
            ]
          }
        ],
        "code": {
          "coding": [
            {
              "code": "20505-4",
              "system": "http://loinc.org",
              "display": "Bilirubin.total [Mass/volume] in Urine by Test strip"
            }
          ],
          "text": "Bilirubin.total [Mass/volume] in Urine by Test strip"
        },
        "valueQuantity": {
          "system": "http://unitsofmeasure.org",
          "value": 1.5,
          "unit": "mg/dL",
          "code": "mg/dL"
        },
        "referenceRange": [
          {
            "low": {
              "value": 0,
              "code": "mg/dL",
              "system": "http://unitsofmeasure.org"
            }
          },
          {
            "high": {
              "value": 1.5,
              "code": "mg/dL",
              "system": "http://unitsofmeasure.org"
            }
          }
        ],
        "text": {
          "status": "generated",
          "div": "<div xmlns=\"http://www.w3.org/1999/xhtml\"><table class=\"hl7__eu__lab__report\"><tr><th>Test</th><th>11-Apr-2018</th><th>Reference&#xA0;Range</th><th>Unit</th></tr><tr><td>Bilirubin.total [Mass/volume] in Urine by Test strip</td><td>1.5</td><td>0 - 1.5</td><td></td><td>mg/dL</td></tr></table></div>"
        },
        "status": "final",
        "subject": {
          "reference": "urn:uuid:c0e57ab7-f14e-43aa-9895-e047565f5c56",
          "display": "Maria Nohlmans"
        },
        "effectiveDateTime": "2018-04-11T11:02:39Z",
        "specimen": {
          "reference": "urn:uuid:e9aeaa01-cc8f-46f3-a722-cff3c3dd902e"
        }
      }
    },
    {
      "fullUrl": "urn:uuid:6817ae4f-1bc3-4983-9547-492eac2269bb",
      "resource": {
        "resourceType": "Observation",
        "id": "6817ae4f-1bc3-4983-9547-492eac2269bb",
        "meta": {
          "profile": [
            "http://hl7.eu/fhir/laboratory/StructureDefinition/Observation-resultslab-eu-lab"
          ]
        },
        "performer": [
          {
            "display": "The Central European Lab"
          }
        ],
        "category": [
          {
            "coding": [
              {
                "system": "http://terminology.hl7.org/CodeSystem/observation-category",
                "code": "laboratory"
              }
            ]
          }
        ],
        "code": {
          "coding": [
            {
              "code": "5770-3",
              "system": "http://loinc.org",
              "display": "Bilirubin.total [Presence] in Urine by Test strip"
            }
          ],
          "text": "Bilirubin.total [Presence] in Urine by Test strip"
        },
        "text": {
          "status": "generated",
          "div": "<div xmlns=\"http://www.w3.org/1999/xhtml\"><table class=\"hl7__eu__lab__report\"><tr><th>Test</th><th>11-Apr-2018</th><th>Reference&#xA0;Range</th><th>Unit</th></tr><tr><td>Bilirubin.total [Presence] in Urine by Test strip</td></tr></table></div>"
        },
        "status": "final",
        "subject": {
          "reference": "urn:uuid:c0e57ab7-f14e-43aa-9895-e047565f5c56",
          "display": "Maria Nohlmans"
        },
        "effectiveDateTime": "2018-04-11T11:02:39Z",
        "specimen": {
          "reference": "urn:uuid:e9aeaa01-cc8f-46f3-a722-cff3c3dd902e"
        }
      }
    },
    {
      "fullUrl": "urn:uuid:97997fd7-9d43-4fae-af11-1b3d362499c6",
      "resource": {
        "resourceType": "Observation",
        "id": "97997fd7-9d43-4fae-af11-1b3d362499c6",
        "meta": {
          "profile": [
            "http://hl7.eu/fhir/laboratory/StructureDefinition/Observation-resultslab-eu-lab"
          ]
        },
        "performer": [
          {
            "display": "The Central European Lab"
          }
        ],
        "category": [
          {
            "coding": [
              {
                "system": "http://terminology.hl7.org/CodeSystem/observation-category",
                "code": "laboratory"
              }
            ]
          }
        ],
        "code": {
          "coding": [
            {
              "code": "5797-6",
              "system": "http://loinc.org",
              "display": "Ketones [Mass/volume] in Urine by Test strip"
            }
          ],
          "text": "Ketones [Mass/volume] in Urine by Test strip"
        },
        "valueQuantity": {
          "system": "http://unitsofmeasure.org",
          "value": 16.3,
          "unit": "mg/dL",
          "code": "mg/dL"
        },
        "referenceRange": [
          {
            "low": {
              "value": 0,
              "code": "mg/dL",
              "system": "http://unitsofmeasure.org"
            }
          },
          {
            "high": {
              "value": 8,
              "code": "mg/dL",
              "system": "http://unitsofmeasure.org"
            }
          }
        ],
        "interpretation": [
          {
            "coding": [
              {
                "code": "H",
                "system": "http://terminology.hl7.org/CodeSystem/v3-ObservationInterpretation",
                "display": "High"
              }
            ]
          }
        ],
        "text": {
          "status": "generated",
          "div": "<div xmlns=\"http://www.w3.org/1999/xhtml\"><table class=\"hl7__eu__lab__report\"><tr><th>Test</th><th>11-Apr-2018</th><th>Reference&#xA0;Range</th><th>Unit</th></tr><tr><td>Ketones [Mass/volume] in Urine by Test strip</td><td>16.3</td><td>0 - 8</td><td>H</td><td>mg/dL</td></tr></table></div>"
        },
        "status": "final",
        "subject": {
          "reference": "urn:uuid:c0e57ab7-f14e-43aa-9895-e047565f5c56",
          "display": "Maria Nohlmans"
        },
        "effectiveDateTime": "2018-04-11T11:02:39Z",
        "specimen": {
          "reference": "urn:uuid:e9aeaa01-cc8f-46f3-a722-cff3c3dd902e"
        }
      }
    },
    {
      "fullUrl": "urn:uuid:e769968f-2dbf-479c-b816-e24daeb915df",
      "resource": {
        "resourceType": "Observation",
        "id": "e769968f-2dbf-479c-b816-e24daeb915df",
        "meta": {
          "profile": [
            "http://hl7.eu/fhir/laboratory/StructureDefinition/Observation-resultslab-eu-lab"
          ]
        },
        "performer": [
          {
            "display": "The Central European Lab"
          }
        ],
        "category": [
          {
            "coding": [
              {
                "system": "http://terminology.hl7.org/CodeSystem/observation-category",
                "code": "laboratory"
              }
            ]
          }
        ],
        "code": {
          "coding": [
            {
              "code": "2514-8",
              "system": "http://loinc.org",
              "display": "Ketones [Presence] in Urine by Test strip"
            }
          ],
          "text": "Ketones [Presence] in Urine by Test strip"
        },
        "text": {
          "status": "generated",
          "div": "<div xmlns=\"http://www.w3.org/1999/xhtml\"><table class=\"hl7__eu__lab__report\"><tr><th>Test</th><th>11-Apr-2018</th><th>Reference&#xA0;Range</th><th>Unit</th></tr><tr><td>Ketones [Presence] in Urine by Test strip</td></tr></table></div>"
        },
        "status": "final",
        "subject": {
          "reference": "urn:uuid:c0e57ab7-f14e-43aa-9895-e047565f5c56",
          "display": "Maria Nohlmans"
        },
        "effectiveDateTime": "2018-04-11T11:02:39Z",
        "specimen": {
          "reference": "urn:uuid:e9aeaa01-cc8f-46f3-a722-cff3c3dd902e"
        }
      }
    },
    {
      "fullUrl": "urn:uuid:af8e696a-c923-4be8-9744-a091aa412eaf",
      "resource": {
        "resourceType": "Observation",
        "id": "af8e696a-c923-4be8-9744-a091aa412eaf",
        "meta": {
          "profile": [
            "http://hl7.eu/fhir/laboratory/StructureDefinition/Observation-resultslab-eu-lab"
          ]
        },
        "performer": [
          {
            "display": "The Central European Lab"
          }
        ],
        "category": [
          {
            "coding": [
              {
                "system": "http://terminology.hl7.org/CodeSystem/observation-category",
                "code": "laboratory"
              }
            ]
          }
        ],
        "code": {
          "coding": [
            {
              "code": "5811-5",
              "system": "http://loinc.org",
              "display": "Specific gravity of Urine by Test strip"
            }
          ],
          "text": "Specific gravity of Urine by Test strip"
        },
        "valueQuantity": {
          "system": "http://unitsofmeasure.org",
          "value": 1,
          "unit": "{nominal}",
          "code": "{nominal}"
        },
        "referenceRange": [
          {
            "low": {
              "value": 1.01,
              "code": "g/mL",
              "system": "http://unitsofmeasure.org"
            }
          },
          {
            "high": {
              "value": 1.03,
              "code": "g/mL",
              "system": "http://unitsofmeasure.org"
            }
          }
        ],
        "interpretation": [
          {
            "coding": [
              {
                "code": "L",
                "system": "http://terminology.hl7.org/CodeSystem/v3-ObservationInterpretation",
                "display": "Low"
              }
            ]
          }
        ],
        "text": {
          "status": "generated",
          "div": "<div xmlns=\"http://www.w3.org/1999/xhtml\"><table class=\"hl7__eu__lab__report\"><tr><th>Test</th><th>11-Apr-2018</th><th>Reference&#xA0;Range</th><th>Unit</th></tr><tr><td>Specific gravity of Urine by Test strip</td><td>1.0</td><td>1.01 - 1.03</td><td>L</td><td>{nominal}</td></tr></table></div>"
        },
        "status": "final",
        "subject": {
          "reference": "urn:uuid:c0e57ab7-f14e-43aa-9895-e047565f5c56",
          "display": "Maria Nohlmans"
        },
        "effectiveDateTime": "2018-04-11T11:02:39Z",
        "specimen": {
          "reference": "urn:uuid:e9aeaa01-cc8f-46f3-a722-cff3c3dd902e"
        }
      }
    },
    {
      "fullUrl": "urn:uuid:8c038ec0-f937-42f0-b3ac-416d95cbff36",
      "resource": {
        "resourceType": "Observation",
        "id": "8c038ec0-f937-42f0-b3ac-416d95cbff36",
        "meta": {
          "profile": [
            "http://hl7.eu/fhir/laboratory/StructureDefinition/Observation-resultslab-eu-lab"
          ]
        },
        "performer": [
          {
            "display": "The Central European Lab"
          }
        ],
        "category": [
          {
            "coding": [
              {
                "system": "http://terminology.hl7.org/CodeSystem/observation-category",
                "code": "laboratory"
              }
            ]
          }
        ],
        "code": {
          "coding": [
            {
              "code": "5803-2",
              "system": "http://loinc.org",
              "display": "pH of Urine by Test strip"
            }
          ],
          "text": "pH of Urine by Test strip"
        },
        "valueQuantity": {
          "system": "http://unitsofmeasure.org",
          "value": 5,
          "unit": "pH",
          "code": "pH"
        },
        "referenceRange": [
          {
            "low": {
              "value": 4.6,
              "code": "pH",
              "system": "http://unitsofmeasure.org"
            }
          },
          {
            "high": {
              "value": 7.5,
              "code": "pH",
              "system": "http://unitsofmeasure.org"
            }
          }
        ],
        "text": {
          "status": "generated",
          "div": "<div xmlns=\"http://www.w3.org/1999/xhtml\"><table class=\"hl7__eu__lab__report\"><tr><th>Test</th><th>11-Apr-2018</th><th>Reference&#xA0;Range</th><th>Unit</th></tr><tr><td>pH of Urine by Test strip</td><td>5.0</td><td>4.6 - 7.5</td><td></td><td>pH</td></tr></table></div>"
        },
        "status": "final",
        "subject": {
          "reference": "urn:uuid:c0e57ab7-f14e-43aa-9895-e047565f5c56",
          "display": "Maria Nohlmans"
        },
        "effectiveDateTime": "2018-04-11T11:02:39Z",
        "specimen": {
          "reference": "urn:uuid:e9aeaa01-cc8f-46f3-a722-cff3c3dd902e"
        }
      }
    },
    {
      "fullUrl": "urn:uuid:2d928730-4b17-48a6-ade8-aad63e9648f6",
      "resource": {
        "resourceType": "Observation",
        "id": "2d928730-4b17-48a6-ade8-aad63e9648f6",
        "meta": {
          "profile": [
            "http://hl7.eu/fhir/laboratory/StructureDefinition/Observation-resultslab-eu-lab"
          ]
        },
        "performer": [
          {
            "display": "The Central European Lab"
          }
        ],
        "category": [
          {
            "coding": [
              {
                "system": "http://terminology.hl7.org/CodeSystem/observation-category",
                "code": "laboratory"
              }
            ]
          }
        ],
        "code": {
          "coding": [
            {
              "code": "5804-0",
              "system": "http://loinc.org",
              "display": "Protein [Mass/volume] in Urine by Test strip"
            }
          ],
          "text": "Protein [Mass/volume] in Urine by Test strip"
        },
        "valueQuantity": {
          "system": "http://unitsofmeasure.org",
          "value": 310.3,
          "unit": "mg/dL",
          "code": "mg/dL"
        },
        "referenceRange": [
          {
            "low": {
              "value": 0,
              "code": "mg/dL",
              "system": "http://unitsofmeasure.org"
            }
          },
          {
            "high": {
              "value": 14,
              "code": "mg/dL",
              "system": "http://unitsofmeasure.org"
            }
          }
        ],
        "interpretation": [
          {
            "coding": [
              {
                "code": "H",
                "system": "http://terminology.hl7.org/CodeSystem/v3-ObservationInterpretation",
                "display": "High"
              }
            ]
          }
        ],
        "text": {
          "status": "generated",
          "div": "<div xmlns=\"http://www.w3.org/1999/xhtml\"><table class=\"hl7__eu__lab__report\"><tr><th>Test</th><th>11-Apr-2018</th><th>Reference&#xA0;Range</th><th>Unit</th></tr><tr><td>Protein [Mass/volume] in Urine by Test strip</td><td>310.3</td><td>0 - 14</td><td>H</td><td>mg/dL</td></tr></table></div>"
        },
        "status": "final",
        "subject": {
          "reference": "urn:uuid:c0e57ab7-f14e-43aa-9895-e047565f5c56",
          "display": "Maria Nohlmans"
        },
        "effectiveDateTime": "2018-04-11T11:02:39Z",
        "specimen": {
          "reference": "urn:uuid:e9aeaa01-cc8f-46f3-a722-cff3c3dd902e"
        }
      }
    },
    {
      "fullUrl": "urn:uuid:056e1445-be8b-4db7-8939-fb38d1368af7",
      "resource": {
        "resourceType": "Observation",
        "id": "056e1445-be8b-4db7-8939-fb38d1368af7",
        "meta": {
          "profile": [
            "http://hl7.eu/fhir/laboratory/StructureDefinition/Observation-resultslab-eu-lab"
          ]
        },
        "performer": [
          {
            "display": "The Central European Lab"
          }
        ],
        "category": [
          {
            "coding": [
              {
                "system": "http://terminology.hl7.org/CodeSystem/observation-category",
                "code": "laboratory"
              }
            ]
          }
        ],
        "code": {
          "coding": [
            {
              "code": "20454-5",
              "system": "http://loinc.org",
              "display": "Protein [Presence] in Urine by Test strip"
            }
          ],
          "text": "Protein [Presence] in Urine by Test strip"
        },
        "text": {
          "status": "generated",
          "div": "<div xmlns=\"http://www.w3.org/1999/xhtml\"><table class=\"hl7__eu__lab__report\"><tr><th>Test</th><th>11-Apr-2018</th><th>Reference&#xA0;Range</th><th>Unit</th></tr><tr><td>Protein [Presence] in Urine by Test strip</td></tr></table></div>"
        },
        "status": "final",
        "subject": {
          "reference": "urn:uuid:c0e57ab7-f14e-43aa-9895-e047565f5c56",
          "display": "Maria Nohlmans"
        },
        "effectiveDateTime": "2018-04-11T11:02:39Z",
        "specimen": {
          "reference": "urn:uuid:e9aeaa01-cc8f-46f3-a722-cff3c3dd902e"
        }
      }
    },
    {
      "fullUrl": "urn:uuid:15914292-fe43-4c7b-a6ce-0074cc539df7",
      "resource": {
        "resourceType": "Observation",
        "id": "15914292-fe43-4c7b-a6ce-0074cc539df7",
        "meta": {
          "profile": [
            "http://hl7.eu/fhir/laboratory/StructureDefinition/Observation-resultslab-eu-lab"
          ]
        },
        "performer": [
          {
            "display": "The Central European Lab"
          }
        ],
        "category": [
          {
            "coding": [
              {
                "system": "http://terminology.hl7.org/CodeSystem/observation-category",
                "code": "laboratory"
              }
            ]
          }
        ],
        "code": {
          "coding": [
            {
              "code": "5802-4",
              "system": "http://loinc.org",
              "display": "Nitrite [Presence] in Urine by Test strip"
            }
          ],
          "text": "Nitrite [Presence] in Urine by Test strip"
        },
        "text": {
          "status": "generated",
          "div": "<div xmlns=\"http://www.w3.org/1999/xhtml\"><table class=\"hl7__eu__lab__report\"><tr><th>Test</th><th>11-Apr-2018</th><th>Reference&#xA0;Range</th><th>Unit</th></tr><tr><td>Nitrite [Presence] in Urine by Test strip</td></tr></table></div>"
        },
        "status": "final",
        "subject": {
          "reference": "urn:uuid:c0e57ab7-f14e-43aa-9895-e047565f5c56",
          "display": "Maria Nohlmans"
        },
        "effectiveDateTime": "2018-04-11T11:02:39Z",
        "specimen": {
          "reference": "urn:uuid:e9aeaa01-cc8f-46f3-a722-cff3c3dd902e"
        }
      }
    },
    {
      "fullUrl": "urn:uuid:8e238787-4d24-4253-888d-16b51f2b2392",
      "resource": {
        "resourceType": "Observation",
        "id": "8e238787-4d24-4253-888d-16b51f2b2392",
        "meta": {
          "profile": [
            "http://hl7.eu/fhir/laboratory/StructureDefinition/Observation-resultslab-eu-lab"
          ]
        },
        "performer": [
          {
            "display": "The Central European Lab"
          }
        ],
        "category": [
          {
            "coding": [
              {
                "system": "http://terminology.hl7.org/CodeSystem/observation-category",
                "code": "laboratory"
              }
            ]
          }
        ],
        "code": {
          "coding": [
            {
              "code": "5794-3",
              "system": "http://loinc.org",
              "display": "Hemoglobin [Presence] in Urine by Test strip"
            }
          ],
          "text": "Hemoglobin [Presence] in Urine by Test strip"
        },
        "text": {
          "status": "generated",
          "div": "<div xmlns=\"http://www.w3.org/1999/xhtml\"><table class=\"hl7__eu__lab__report\"><tr><th>Test</th><th>11-Apr-2018</th><th>Reference&#xA0;Range</th><th>Unit</th></tr><tr><td>Hemoglobin [Presence] in Urine by Test strip</td></tr></table></div>"
        },
        "status": "final",
        "subject": {
          "reference": "urn:uuid:c0e57ab7-f14e-43aa-9895-e047565f5c56",
          "display": "Maria Nohlmans"
        },
        "effectiveDateTime": "2018-04-11T11:02:39Z",
        "specimen": {
          "reference": "urn:uuid:e9aeaa01-cc8f-46f3-a722-cff3c3dd902e"
        }
      }
    },
    {
      "fullUrl": "urn:uuid:60e42035-5952-4180-ae8f-0e5beda6e75c",
      "resource": {
        "resourceType": "Observation",
        "id": "60e42035-5952-4180-ae8f-0e5beda6e75c",
        "meta": {
          "profile": [
            "http://hl7.eu/fhir/laboratory/StructureDefinition/Observation-resultslab-eu-lab"
          ]
        },
        "performer": [
          {
            "display": "The Central European Lab"
          }
        ],
        "category": [
          {
            "coding": [
              {
                "system": "http://terminology.hl7.org/CodeSystem/observation-category",
                "code": "laboratory"
              }
            ]
          }
        ],
        "code": {
          "coding": [
            {
              "code": "5799-2",
              "system": "http://loinc.org",
              "display": "Leukocyte esterase [Presence] in Urine by Test strip"
            }
          ],
          "text": "Leukocyte esterase [Presence] in Urine by Test strip"
        },
        "text": {
          "status": "generated",
          "div": "<div xmlns=\"http://www.w3.org/1999/xhtml\"><table class=\"hl7__eu__lab__report\"><tr><th>Test</th><th>11-Apr-2018</th><th>Reference&#xA0;Range</th><th>Unit</th></tr><tr><td>Leukocyte esterase [Presence] in Urine by Test strip</td></tr></table></div>"
        },
        "status": "final",
        "subject": {
          "reference": "urn:uuid:c0e57ab7-f14e-43aa-9895-e047565f5c56",
          "display": "Maria Nohlmans"
        },
        "effectiveDateTime": "2018-04-11T11:02:39Z",
        "specimen": {
          "reference": "urn:uuid:e9aeaa01-cc8f-46f3-a722-cff3c3dd902e"
        }
      }
    },
    {
      "fullUrl": "urn:uuid:390a0543-dede-4f4d-b3e3-ebee7c1a877e",
      "resource": {
        "resourceType": "Observation",
        "id": "390a0543-dede-4f4d-b3e3-ebee7c1a877e",
        "meta": {
          "profile": [
            "http://hl7.eu/fhir/laboratory/StructureDefinition/Observation-resultslab-eu-lab"
          ]
        },
        "performer": [
          {
            "display": "The Central European Lab"
          }
        ],
        "category": [
          {
            "coding": [
              {
                "system": "http://terminology.hl7.org/CodeSystem/observation-category",
                "code": "laboratory"
              }
            ]
          }
        ],
        "code": {
          "coding": [
            {
              "code": "4548-4",
              "system": "http://loinc.org",
              "display": "Hemoglobin A1c/Hemoglobin.total in Blood"
            }
          ],
          "text": "Hemoglobin A1c/Hemoglobin.total in Blood"
        },
        "valueQuantity": {
          "system": "http://unitsofmeasure.org",
          "value": 3.1,
          "unit": "%",
          "code": "%"
        },
        "referenceRange": [
          {
            "low": {
              "value": 4.5,
              "code": "%",
              "system": "http://unitsofmeasure.org"
            }
          },
          {
            "high": {
              "value": 6.4,
              "code": "%",
              "system": "http://unitsofmeasure.org"
            }
          }
        ],
        "interpretation": [
          {
            "coding": [
              {
                "code": "L",
                "system": "http://terminology.hl7.org/CodeSystem/v3-ObservationInterpretation",
                "display": "Low"
              }
            ]
          }
        ],
        "text": {
          "status": "generated",
          "div": "<div xmlns=\"http://www.w3.org/1999/xhtml\"><table class=\"hl7__eu__lab__report\"><tr><th>Test</th><th>11-Apr-2018</th><th>Reference&#xA0;Range</th><th>Unit</th></tr><tr><td>Hemoglobin A1c/Hemoglobin.total in Blood</td><td>3.1</td><td>4.5 - 6.4</td><td>L</td><td>%</td></tr></table></div>"
        },
        "status": "final",
        "subject": {
          "reference": "urn:uuid:c0e57ab7-f14e-43aa-9895-e047565f5c56",
          "display": "Maria Nohlmans"
        },
        "effectiveDateTime": "2018-04-11T11:02:39Z",
        "specimen": {
          "reference": "urn:uuid:b26292f0-c72f-41dd-8242-ece387e5c3b2"
        }
      }
    },
    {
      "fullUrl": "urn:uuid:8147d126-fe97-4be0-8cfd-b9c15fd92d81",
      "resource": {
        "resourceType": "Observation",
        "id": "8147d126-fe97-4be0-8cfd-b9c15fd92d81",
        "meta": {
          "profile": [
            "http://hl7.eu/fhir/laboratory/StructureDefinition/Observation-resultslab-eu-lab"
          ]
        },
        "performer": [
          {
            "display": "The Central European Lab"
          }
        ],
        "category": [
          {
            "coding": [
              {
                "system": "http://terminology.hl7.org/CodeSystem/observation-category",
                "code": "laboratory"
              }
            ]
          }
        ],
        "code": {
          "coding": [
            {
              "code": "2339-0",
              "system": "http://loinc.org",
              "display": "Glucose [Mass/volume] in Blood"
            }
          ],
          "text": "Glucose [Mass/volume] in Blood"
        },
        "valueQuantity": {
          "system": "http://unitsofmeasure.org",
          "value": 90.1,
          "unit": "mg/dL",
          "code": "mg/dL"
        },
        "referenceRange": [
          {
            "low": {
              "value": 70,
              "code": "mg/dL",
              "system": "http://unitsofmeasure.org"
            }
          },
          {
            "high": {
              "value": 140,
              "code": "mg/dL",
              "system": "http://unitsofmeasure.org"
            }
          }
        ],
        "text": {
          "status": "generated",
          "div": "<div xmlns=\"http://www.w3.org/1999/xhtml\"><table class=\"hl7__eu__lab__report\"><tr><th>Test</th><th>11-Apr-2018</th><th>Reference&#xA0;Range</th><th>Unit</th></tr><tr><td>Glucose [Mass/volume] in Blood</td><td>90.1</td><td>70 - 140</td><td></td><td>mg/dL</td></tr></table></div>"
        },
        "status": "final",
        "subject": {
          "reference": "urn:uuid:c0e57ab7-f14e-43aa-9895-e047565f5c56",
          "display": "Maria Nohlmans"
        },
        "effectiveDateTime": "2018-04-11T11:02:39Z",
        "specimen": {
          "reference": "urn:uuid:b26292f0-c72f-41dd-8242-ece387e5c3b2"
        }
      }
    },
    {
      "fullUrl": "urn:uuid:c85eb616-14aa-47a2-ad10-52ae9fef5097",
      "resource": {
        "resourceType": "Observation",
        "id": "c85eb616-14aa-47a2-ad10-52ae9fef5097",
        "meta": {
          "profile": [
            "http://hl7.eu/fhir/laboratory/StructureDefinition/Observation-resultslab-eu-lab"
          ]
        },
        "performer": [
          {
            "display": "The Central European Lab"
          }
        ],
        "category": [
          {
            "coding": [
              {
                "system": "http://terminology.hl7.org/CodeSystem/observation-category",
                "code": "laboratory"
              }
            ]
          }
        ],
        "code": {
          "coding": [
            {
              "code": "6299-2",
              "system": "http://loinc.org",
              "display": "Urea nitrogen [Mass/volume] in Blood"
            }
          ],
          "text": "Urea nitrogen [Mass/volume] in Blood"
        },
        "valueQuantity": {
          "system": "http://unitsofmeasure.org",
          "value": 7.7,
          "unit": "mg/dL",
          "code": "mg/dL"
        },
        "referenceRange": [
          {
            "low": {
              "value": 7,
              "code": "mg/dL",
              "system": "http://unitsofmeasure.org"
            }
          },
          {
            "high": {
              "value": 30,
              "code": "mg/dL",
              "system": "http://unitsofmeasure.org"
            }
          }
        ],
        "text": {
          "status": "generated",
          "div": "<div xmlns=\"http://www.w3.org/1999/xhtml\"><table class=\"hl7__eu__lab__report\"><tr><th>Test</th><th>11-Apr-2018</th><th>Reference&#xA0;Range</th><th>Unit</th></tr><tr><td>Urea nitrogen [Mass/volume] in Blood</td><td>7.7</td><td>7 - 30</td><td></td><td>mg/dL</td></tr></table></div>"
        },
        "status": "final",
        "subject": {
          "reference": "urn:uuid:c0e57ab7-f14e-43aa-9895-e047565f5c56",
          "display": "Maria Nohlmans"
        },
        "effectiveDateTime": "2018-04-11T11:02:39Z",
        "specimen": {
          "reference": "urn:uuid:b26292f0-c72f-41dd-8242-ece387e5c3b2"
        }
      }
    },
    {
      "fullUrl": "urn:uuid:492ff5c4-a928-4687-b5c7-7acc2947a5c6",
      "resource": {
        "resourceType": "Observation",
        "id": "492ff5c4-a928-4687-b5c7-7acc2947a5c6",
        "meta": {
          "profile": [
            "http://hl7.eu/fhir/laboratory/StructureDefinition/Observation-resultslab-eu-lab"
          ]
        },
        "performer": [
          {
            "display": "The Central European Lab"
          }
        ],
        "category": [
          {
            "coding": [
              {
                "system": "http://terminology.hl7.org/CodeSystem/observation-category",
                "code": "laboratory"
              }
            ]
          }
        ],
        "code": {
          "coding": [
            {
              "code": "38483-4",
              "system": "http://loinc.org",
              "display": "Creatinine [Mass/volume] in Blood"
            }
          ],
          "text": "Creatinine [Mass/volume] in Blood"
        },
        "valueQuantity": {
          "system": "http://unitsofmeasure.org",
          "value": 25.3,
          "unit": "mg/dL",
          "code": "mg/dL"
        },
        "referenceRange": [
          {
            "low": {
              "value": 0.5,
              "code": "mg/dL",
              "system": "http://unitsofmeasure.org"
            }
          },
          {
            "high": {
              "value": 1.3,
              "code": "mg/dL",
              "system": "http://unitsofmeasure.org"
            }
          }
        ],
        "interpretation": [
          {
            "coding": [
              {
                "code": "H",
                "system": "http://terminology.hl7.org/CodeSystem/v3-ObservationInterpretation",
                "display": "High"
              }
            ]
          }
        ],
        "text": {
          "status": "generated",
          "div": "<div xmlns=\"http://www.w3.org/1999/xhtml\"><table class=\"hl7__eu__lab__report\"><tr><th>Test</th><th>11-Apr-2018</th><th>Reference&#xA0;Range</th><th>Unit</th></tr><tr><td>Creatinine [Mass/volume] in Blood</td><td>25.3</td><td>0.5 - 1.3</td><td>H</td><td>mg/dL</td></tr></table></div>"
        },
        "status": "final",
        "subject": {
          "reference": "urn:uuid:c0e57ab7-f14e-43aa-9895-e047565f5c56",
          "display": "Maria Nohlmans"
        },
        "effectiveDateTime": "2018-04-11T11:02:39Z",
        "specimen": {
          "reference": "urn:uuid:b26292f0-c72f-41dd-8242-ece387e5c3b2"
        }
      }
    },
    {
      "fullUrl": "urn:uuid:0332bdf6-e01e-429b-a144-36530bae6258",
      "resource": {
        "resourceType": "Observation",
        "id": "0332bdf6-e01e-429b-a144-36530bae6258",
        "meta": {
          "profile": [
            "http://hl7.eu/fhir/laboratory/StructureDefinition/Observation-resultslab-eu-lab"
          ]
        },
        "performer": [
          {
            "display": "The Central European Lab"
          }
        ],
        "category": [
          {
            "coding": [
              {
                "system": "http://terminology.hl7.org/CodeSystem/observation-category",
                "code": "laboratory"
              }
            ]
          }
        ],
        "code": {
          "coding": [
            {
              "code": "49765-1",
              "system": "http://loinc.org",
              "display": "Calcium [Mass/volume] in Blood"
            }
          ],
          "text": "Calcium [Mass/volume] in Blood"
        },
        "valueQuantity": {
          "system": "http://unitsofmeasure.org",
          "value": 10.1,
          "unit": "mg/dL",
          "code": "mg/dL"
        },
        "referenceRange": [
          {
            "low": {
              "value": 8.6,
              "code": "mg/dL",
              "system": "http://unitsofmeasure.org"
            }
          },
          {
            "high": {
              "value": 10.2,
              "code": "mg/dL",
              "system": "http://unitsofmeasure.org"
            }
          }
        ],
        "text": {
          "status": "generated",
          "div": "<div xmlns=\"http://www.w3.org/1999/xhtml\"><table class=\"hl7__eu__lab__report\"><tr><th>Test</th><th>11-Apr-2018</th><th>Reference&#xA0;Range</th><th>Unit</th></tr><tr><td>Calcium [Mass/volume] in Blood</td><td>10.1</td><td>8.6 - 10.2</td><td></td><td>mg/dL</td></tr></table></div>"
        },
        "status": "final",
        "subject": {
          "reference": "urn:uuid:c0e57ab7-f14e-43aa-9895-e047565f5c56",
          "display": "Maria Nohlmans"
        },
        "effectiveDateTime": "2018-04-11T11:02:39Z",
        "specimen": {
          "reference": "urn:uuid:b26292f0-c72f-41dd-8242-ece387e5c3b2"
        }
      }
    },
    {
      "fullUrl": "urn:uuid:798bf1af-3d30-4b09-8813-b103f39ddd51",
      "resource": {
        "resourceType": "Observation",
        "id": "798bf1af-3d30-4b09-8813-b103f39ddd51",
        "meta": {
          "profile": [
            "http://hl7.eu/fhir/laboratory/StructureDefinition/Observation-resultslab-eu-lab"
          ]
        },
        "performer": [
          {
            "display": "The Central European Lab"
          }
        ],
        "category": [
          {
            "coding": [
              {
                "system": "http://terminology.hl7.org/CodeSystem/observation-category",
                "code": "laboratory"
              }
            ]
          }
        ],
        "code": {
          "coding": [
            {
              "code": "2947-0",
              "system": "http://loinc.org",
              "display": "Sodium [Moles/volume] in Blood"
            }
          ],
          "text": "Sodium [Moles/volume] in Blood"
        },
        "valueQuantity": {
          "system": "http://unitsofmeasure.org",
          "value": 141.9,
          "unit": "mmol/L",
          "code": "mmol/L"
        },
        "referenceRange": [
          {
            "low": {
              "value": 135,
              "code": "mmol/L",
              "system": "http://unitsofmeasure.org"
            }
          },
          {
            "high": {
              "value": 145,
              "code": "mmol/L",
              "system": "http://unitsofmeasure.org"
            }
          }
        ],
        "text": {
          "status": "generated",
          "div": "<div xmlns=\"http://www.w3.org/1999/xhtml\"><table class=\"hl7__eu__lab__report\"><tr><th>Test</th><th>11-Apr-2018</th><th>Reference&#xA0;Range</th><th>Unit</th></tr><tr><td>Sodium [Moles/volume] in Blood</td><td>141.9</td><td>135 - 145</td><td></td><td>mmol/L</td></tr></table></div>"
        },
        "status": "final",
        "subject": {
          "reference": "urn:uuid:c0e57ab7-f14e-43aa-9895-e047565f5c56",
          "display": "Maria Nohlmans"
        },
        "effectiveDateTime": "2018-04-11T11:02:39Z",
        "specimen": {
          "reference": "urn:uuid:b26292f0-c72f-41dd-8242-ece387e5c3b2"
        }
      }
    },
    {
      "fullUrl": "urn:uuid:0bc70578-fbc0-4629-a0f2-f7045c8bbbcc",
      "resource": {
        "resourceType": "Observation",
        "id": "0bc70578-fbc0-4629-a0f2-f7045c8bbbcc",
        "meta": {
          "profile": [
            "http://hl7.eu/fhir/laboratory/StructureDefinition/Observation-resultslab-eu-lab"
          ]
        },
        "performer": [
          {
            "display": "The Central European Lab"
          }
        ],
        "category": [
          {
            "coding": [
              {
                "system": "http://terminology.hl7.org/CodeSystem/observation-category",
                "code": "laboratory"
              }
            ]
          }
        ],
        "code": {
          "coding": [
            {
              "code": "6298-4",
              "system": "http://loinc.org",
              "display": "Potassium [Moles/volume] in Blood"
            }
          ],
          "text": "Potassium [Moles/volume] in Blood"
        },
        "valueQuantity": {
          "system": "http://unitsofmeasure.org",
          "value": 4.4,
          "unit": "mmol/L",
          "code": "mmol/L"
        },
        "referenceRange": [
          {
            "low": {
              "value": 3.5,
              "code": "mmol/L",
              "system": "http://unitsofmeasure.org"
            }
          },
          {
            "high": {
              "value": 5.1,
              "code": "mmol/L",
              "system": "http://unitsofmeasure.org"
            }
          }
        ],
        "text": {
          "status": "generated",
          "div": "<div xmlns=\"http://www.w3.org/1999/xhtml\"><table class=\"hl7__eu__lab__report\"><tr><th>Test</th><th>11-Apr-2018</th><th>Reference&#xA0;Range</th><th>Unit</th></tr><tr><td>Potassium [Moles/volume] in Blood</td><td>4.4</td><td>3.5 - 5.1</td><td></td><td>mmol/L</td></tr></table></div>"
        },
        "status": "final",
        "subject": {
          "reference": "urn:uuid:c0e57ab7-f14e-43aa-9895-e047565f5c56",
          "display": "Maria Nohlmans"
        },
        "effectiveDateTime": "2018-04-11T11:02:39Z",
        "specimen": {
          "reference": "urn:uuid:b26292f0-c72f-41dd-8242-ece387e5c3b2"
        }
      }
    },
    {
      "fullUrl": "urn:uuid:b3327bbd-b53a-487d-80fb-f1eaaba24fba",
      "resource": {
        "resourceType": "Observation",
        "id": "b3327bbd-b53a-487d-80fb-f1eaaba24fba",
        "meta": {
          "profile": [
            "http://hl7.eu/fhir/laboratory/StructureDefinition/Observation-resultslab-eu-lab"
          ]
        },
        "performer": [
          {
            "display": "The Central European Lab"
          }
        ],
        "category": [
          {
            "coding": [
              {
                "system": "http://terminology.hl7.org/CodeSystem/observation-category",
                "code": "laboratory"
              }
            ]
          }
        ],
        "code": {
          "coding": [
            {
              "code": "2069-3",
              "system": "http://loinc.org",
              "display": "Chloride [Moles/volume] in Blood"
            }
          ],
          "text": "Chloride [Moles/volume] in Blood"
        },
        "valueQuantity": {
          "system": "http://unitsofmeasure.org",
          "value": 102.9,
          "unit": "mmol/L",
          "code": "mmol/L"
        },
        "referenceRange": [
          {
            "low": {
              "value": 98,
              "code": "mmol/L",
              "system": "http://unitsofmeasure.org"
            }
          },
          {
            "high": {
              "value": 114,
              "code": "mmol/L",
              "system": "http://unitsofmeasure.org"
            }
          }
        ],
        "text": {
          "status": "generated",
          "div": "<div xmlns=\"http://www.w3.org/1999/xhtml\"><table class=\"hl7__eu__lab__report\"><tr><th>Test</th><th>11-Apr-2018</th><th>Reference&#xA0;Range</th><th>Unit</th></tr><tr><td>Chloride [Moles/volume] in Blood</td><td>102.9</td><td>98 - 114</td><td></td><td>mmol/L</td></tr></table></div>"
        },
        "status": "final",
        "subject": {
          "reference": "urn:uuid:c0e57ab7-f14e-43aa-9895-e047565f5c56",
          "display": "Maria Nohlmans"
        },
        "effectiveDateTime": "2018-04-11T11:02:39Z",
        "specimen": {
          "reference": "urn:uuid:b26292f0-c72f-41dd-8242-ece387e5c3b2"
        }
      }
    },
    {
      "fullUrl": "urn:uuid:95ae76b1-556e-480d-bb3a-081222038f00",
      "resource": {
        "resourceType": "Observation",
        "id": "95ae76b1-556e-480d-bb3a-081222038f00",
        "meta": {
          "profile": [
            "http://hl7.eu/fhir/laboratory/StructureDefinition/Observation-resultslab-eu-lab"
          ]
        },
        "performer": [
          {
            "display": "The Central European Lab"
          }
        ],
        "category": [
          {
            "coding": [
              {
                "system": "http://terminology.hl7.org/CodeSystem/observation-category",
                "code": "laboratory"
              }
            ]
          }
        ],
        "code": {
          "coding": [
            {
              "code": "20565-8",
              "system": "http://loinc.org",
              "display": "Carbon dioxide, total [Moles/volume] in Blood"
            }
          ],
          "text": "Carbon dioxide, total [Moles/volume] in Blood"
        },
        "valueQuantity": {
          "system": "http://unitsofmeasure.org",
          "value": 25,
          "unit": "mmol/L",
          "code": "mmol/L"
        },
        "referenceRange": [
          {
            "low": {
              "value": 22,
              "code": "mmol/L",
              "system": "http://unitsofmeasure.org"
            }
          },
          {
            "high": {
              "value": 32,
              "code": "mmol/L",
              "system": "http://unitsofmeasure.org"
            }
          }
        ],
        "text": {
          "status": "generated",
          "div": "<div xmlns=\"http://www.w3.org/1999/xhtml\"><table class=\"hl7__eu__lab__report\"><tr><th>Test</th><th>11-Apr-2018</th><th>Reference&#xA0;Range</th><th>Unit</th></tr><tr><td>Carbon dioxide, total [Moles/volume] in Blood</td><td>25.0</td><td>22 - 32</td><td></td><td>mmol/L</td></tr></table></div>"
        },
        "status": "final",
        "subject": {
          "reference": "urn:uuid:c0e57ab7-f14e-43aa-9895-e047565f5c56",
          "display": "Maria Nohlmans"
        },
        "effectiveDateTime": "2018-04-11T11:02:39Z",
        "specimen": {
          "reference": "urn:uuid:b26292f0-c72f-41dd-8242-ece387e5c3b2"
        }
      }
    },
    {
      "fullUrl": "urn:uuid:abd70e26-2d7d-43ba-95df-d723d83aa96b",
      "resource": {
        "resourceType": "Observation",
        "id": "abd70e26-2d7d-43ba-95df-d723d83aa96b",
        "meta": {
          "profile": [
            "http://hl7.eu/fhir/laboratory/StructureDefinition/Observation-resultslab-eu-lab"
          ]
        },
        "performer": [
          {
            "display": "The Central European Lab"
          }
        ],
        "category": [
          {
            "coding": [
              {
                "system": "http://terminology.hl7.org/CodeSystem/observation-category",
                "code": "laboratory"
              }
            ]
          }
        ],
        "code": {
          "coding": [
            {
              "code": "2093-3",
              "system": "http://loinc.org",
              "display": "Cholesterol [Mass/volume] in Serum or Plasma"
            }
          ],
          "text": "Cholesterol [Mass/volume] in Serum or Plasma"
        },
        "valueQuantity": {
          "system": "http://unitsofmeasure.org",
          "value": 146,
          "unit": "mg/dL",
          "code": "mg/dL"
        },
        "referenceRange": [
          {
            "low": {
              "value": 125,
              "code": "mg/dL",
              "system": "http://unitsofmeasure.org"
            }
          },
          {
            "high": {
              "value": 200,
              "code": "mg/dL",
              "system": "http://unitsofmeasure.org"
            }
          }
        ],
        "text": {
          "status": "generated",
          "div": "<div xmlns=\"http://www.w3.org/1999/xhtml\"><table class=\"hl7__eu__lab__report\"><tr><th>Test</th><th>11-Apr-2018</th><th>Reference&#xA0;Range</th><th>Unit</th></tr><tr><td>Cholesterol [Mass/volume] in Serum or Plasma</td><td>146.0</td><td>125 - 200</td><td></td><td>mg/dL</td></tr></table></div>"
        },
        "status": "final",
        "subject": {
          "reference": "urn:uuid:c0e57ab7-f14e-43aa-9895-e047565f5c56",
          "display": "Maria Nohlmans"
        },
        "effectiveDateTime": "2018-04-11T11:02:39Z",
        "specimen": {
          "reference": "urn:uuid:4850b034-9c98-4c22-bb23-38398756dcda"
        }
      }
    },
    {
      "fullUrl": "urn:uuid:362b1f05-5f40-43a3-ae1d-85e62cc4a070",
      "resource": {
        "resourceType": "Observation",
        "id": "362b1f05-5f40-43a3-ae1d-85e62cc4a070",
        "meta": {
          "profile": [
            "http://hl7.eu/fhir/laboratory/StructureDefinition/Observation-resultslab-eu-lab"
          ]
        },
        "performer": [
          {
            "display": "The Central European Lab"
          }
        ],
        "category": [
          {
            "coding": [
              {
                "system": "http://terminology.hl7.org/CodeSystem/observation-category",
                "code": "laboratory"
              }
            ]
          }
        ],
        "code": {
          "coding": [
            {
              "code": "2571-8",
              "system": "http://loinc.org",
              "display": "Triglyceride [Mass/volume] in Serum or Plasma"
            }
          ],
          "text": "Triglyceride [Mass/volume] in Serum or Plasma"
        },
        "valueQuantity": {
          "system": "http://unitsofmeasure.org",
          "value": 112.5,
          "unit": "mg/dL",
          "code": "mg/dL"
        },
        "referenceRange": [
          {
            "low": {
              "value": 35,
              "code": "mg/dL",
              "system": "http://unitsofmeasure.org"
            }
          },
          {
            "high": {
              "value": 150,
              "code": "mg/dL",
              "system": "http://unitsofmeasure.org"
            }
          }
        ],
        "text": {
          "status": "generated",
          "div": "<div xmlns=\"http://www.w3.org/1999/xhtml\"><table class=\"hl7__eu__lab__report\"><tr><th>Test</th><th>11-Apr-2018</th><th>Reference&#xA0;Range</th><th>Unit</th></tr><tr><td>Triglyceride [Mass/volume] in Serum or Plasma</td><td>112.5</td><td>35 - 150</td><td></td><td>mg/dL</td></tr></table></div>"
        },
        "status": "final",
        "subject": {
          "reference": "urn:uuid:c0e57ab7-f14e-43aa-9895-e047565f5c56",
          "display": "Maria Nohlmans"
        },
        "effectiveDateTime": "2018-04-11T11:02:39Z",
        "specimen": {
          "reference": "urn:uuid:4850b034-9c98-4c22-bb23-38398756dcda"
        }
      }
    },
    {
      "fullUrl": "urn:uuid:9d14266e-a8bd-48f7-bf61-56cecc0de399",
      "resource": {
        "resourceType": "Observation",
        "id": "9d14266e-a8bd-48f7-bf61-56cecc0de399",
        "meta": {
          "profile": [
            "http://hl7.eu/fhir/laboratory/StructureDefinition/Observation-resultslab-eu-lab"
          ]
        },
        "performer": [
          {
            "display": "The Central European Lab"
          }
        ],
        "category": [
          {
            "coding": [
              {
                "system": "http://terminology.hl7.org/CodeSystem/observation-category",
                "code": "laboratory"
              }
            ]
          }
        ],
        "code": {
          "coding": [
            {
              "code": "18262-6",
              "system": "http://loinc.org",
              "display": "Cholesterol in LDL [Mass/volume] in Serum or Plasma by Direct assay"
            }
          ],
          "text": "Cholesterol in LDL [Mass/volume] in Serum or Plasma by Direct assay"
        },
        "valueQuantity": {
          "system": "http://unitsofmeasure.org",
          "value": 72,
          "unit": "mg/dL",
          "code": "mg/dL"
        },
        "referenceRange": [
          {
            "low": {
              "value": 0,
              "code": "mg/dL",
              "system": "http://unitsofmeasure.org"
            }
          },
          {
            "high": {
              "value": 130,
              "code": "mg/dL",
              "system": "http://unitsofmeasure.org"
            }
          }
        ],
        "text": {
          "status": "generated",
          "div": "<div xmlns=\"http://www.w3.org/1999/xhtml\"><table class=\"hl7__eu__lab__report\"><tr><th>Test</th><th>11-Apr-2018</th><th>Reference&#xA0;Range</th><th>Unit</th></tr><tr><td>Cholesterol in LDL [Mass/volume] in Serum or Plasma by Direct assay</td><td>72.0</td><td>0 - 130</td><td></td><td>mg/dL</td></tr></table></div>"
        },
        "status": "final",
        "subject": {
          "reference": "urn:uuid:c0e57ab7-f14e-43aa-9895-e047565f5c56",
          "display": "Maria Nohlmans"
        },
        "effectiveDateTime": "2018-04-11T11:02:39Z",
        "specimen": {
          "reference": "urn:uuid:4850b034-9c98-4c22-bb23-38398756dcda"
        }
      }
    },
    {
      "fullUrl": "urn:uuid:7f72729c-39f5-421f-bd87-c048fbc884b2",
      "resource": {
        "resourceType": "Observation",
        "id": "7f72729c-39f5-421f-bd87-c048fbc884b2",
        "meta": {
          "profile": [
            "http://hl7.eu/fhir/laboratory/StructureDefinition/Observation-resultslab-eu-lab"
          ]
        },
        "performer": [
          {
            "display": "The Central European Lab"
          }
        ],
        "category": [
          {
            "coding": [
              {
                "system": "http://terminology.hl7.org/CodeSystem/observation-category",
                "code": "laboratory"
              }
            ]
          }
        ],
        "code": {
          "coding": [
            {
              "code": "2085-9",
              "system": "http://loinc.org",
              "display": "Cholesterol in HDL [Mass/volume] in Serum or Plasma"
            }
          ],
          "text": "Cholesterol in HDL [Mass/volume] in Serum or Plasma"
        },
        "valueQuantity": {
          "system": "http://unitsofmeasure.org",
          "value": 51.5,
          "unit": "mg/dL",
          "code": "mg/dL"
        },
        "referenceRange": [
          {
            "low": {
              "value": 50,
              "code": "mg/dL",
              "system": "http://unitsofmeasure.org"
            }
          },
          {
            "high": {
              "value": 120,
              "code": "mg/dL",
              "system": "http://unitsofmeasure.org"
            }
          }
        ],
        "text": {
          "status": "generated",
          "div": "<div xmlns=\"http://www.w3.org/1999/xhtml\"><table class=\"hl7__eu__lab__report\"><tr><th>Test</th><th>11-Apr-2018</th><th>Reference&#xA0;Range</th><th>Unit</th></tr><tr><td>Cholesterol in HDL [Mass/volume] in Serum or Plasma</td><td>51.5</td><td>50 - 120</td><td></td><td>mg/dL</td></tr></table></div>"
        },
        "status": "final",
        "subject": {
          "reference": "urn:uuid:c0e57ab7-f14e-43aa-9895-e047565f5c56",
          "display": "Maria Nohlmans"
        },
        "effectiveDateTime": "2018-04-11T11:02:39Z",
        "specimen": {
          "reference": "urn:uuid:4850b034-9c98-4c22-bb23-38398756dcda"
        }
      }
    },
    {
      "fullUrl": "urn:uuid:9e923589-bc98-45ad-aaea-47d1edf1b755",
      "resource": {
        "resourceType": "Device",
        "id": "9e923589-bc98-45ad-aaea-47d1edf1b755",
        "deviceName": [
          {
            "name": "SYNDERAI Synthetic Generator",
            "type": "manufacturer-name"
          }
        ],
        "version": [
          {
            "value": "5.0"
          }
        ],
        "text": {
          "status": "generated",
          "div": "<div xmlns=\"http://www.w3.org/1999/xhtml\">SYNDERAI Synthetic Generator v5.0</div>"
        },
        "status": "active\"",
        "distinctIdentifier": "synderai-generator-50",
        "manufacturer": "SYNDERAI Project"
      }
    },
    {
      "fullUrl": "urn:uuid:2ea147b0-3c74-4384-b409-037694c25e37",
      "resource": {
        "resourceType": "Provenance",
        "id": "2ea147b0-3c74-4384-b409-037694c25e37",
        "target": [
          {
            "reference": "Patient/c0e57ab7-f14e-43aa-9895-e047565f5c56"
          },
          {
            "reference": "Bundle/1dd7e9e8-f43d-4fd2-bfdf-7aa41e24c97d"
          },
          {
            "reference": "Composition/45626673-6804-4a38-a4c8-e59bdfae9066"
          },
          {
            "reference": "PractitionerRole/e2b7ca21-71ba-47e6-ad3f-7e550cb13df0"
          },
          {
            "reference": "Practitioner/cc05b979-f80e-408c-9545-59c17ab396f0"
          },
          {
            "reference": "PractitionerRole/a51cab27-ce63-42ea-ba0d-266fee75b513"
          },
          {
            "reference": "Organization/c5503358-5e1e-439a-9fcd-2d0f0c95bd4e"
          }
        ],
        "activity": {
          "text": "Synthetic Example Data Generation"
        },
        "policy": [
          "https://synderai.net/synderai-synthetic-data-policy"
        ],
        "agent": [
          {
            "type": {
              "text": "author"
            },
            "who": {
              "reference": "Device/9e923589-bc98-45ad-aaea-47d1edf1b755"
            }
          }
        ],
        "reason": [
          {
            "text": "Interoperability Testing and Training (non-clinical use)"
          }
        ],
        "text": {
          "status": "generated",
          "div": "<div xmlns=\"http://www.w3.org/1999/xhtml\">Provenance for SYNDERAI Synthetic Example Data Resource</div>"
        },
        "recorded": "2018-04-11T13:02:39Z"
      }
    },
    {
      "fullUrl": "urn:uuid:e2b7ca21-71ba-47e6-ad3f-7e550cb13df0",
      "resource": {
        "resourceType": "PractitionerRole",
        "id": "e2b7ca21-71ba-47e6-ad3f-7e550cb13df0",
        "meta": {
          "profile": [
            "http://hl7.eu/fhir/base/StructureDefinition/practitionerRole-eu"
          ]
        },
        "text": {
          "status": "generated",
          "div": "<div xmlns=\"http://www.w3.org/1999/xhtml\">Laboratory Role Id: e2b7ca21-71ba-47e6-ad3f-7e550cb13df0</div>"
        },
        "practitioner": {
          "reference": "urn:uuid:cc05b979-f80e-408c-9545-59c17ab396f0"
        }
      }
    },
    {
      "fullUrl": "urn:uuid:cc05b979-f80e-408c-9545-59c17ab396f0",
      "resource": {
        "resourceType": "Practitioner",
        "id": "cc05b979-f80e-408c-9545-59c17ab396f0",
        "meta": {
          "profile": [
            "http://hl7.eu/fhir/base/StructureDefinition/practitioner-eu"
          ]
        },
        "identifier": [
          {
            "assigner": {
              "display": "HL7 Europe"
            },
            "system": "urn:oid:2.16.840.1.113883.2.51.999",
            "value": "8b032843-4bd6-452a-b14f-03ef587a2b7b"
          }
        ],
        "name": [
          {
            "prefix": [
              "dr"
            ],
            "given": [
              "Ex"
            ],
            "family": "Ample"
          }
        ],
        "address": [
          {
            "line": [
              "Laboratoire Central Européenne",
              "Boulevard du Jardin Botanique 32"
            ],
            "postalCode": "1000",
            "city": "Brussels",
            "country": "Belgium"
          }
        ],
        "text": {
          "status": "generated",
          "div": "<div xmlns=\"http://www.w3.org/1999/xhtml\">Laboratory: Laboratoire Central Européenne, 1000 Brussels, Belgium</div>"
        }
      }
    }
  ],
  "type": "document",
  "timestamp": "2018-04-11T13:02:39Z"
}
