{
  "resourceType": "Bundle",
  "id": "0fca5569-ff31-458d-af5f-b91746ee0aed",
  "meta": {
    "profile": [
      "http://hl7.eu/fhir/laboratory/StructureDefinition/Bundle-eu-lab"
    ]
  },
  "identifier": {
    "assigner": {
      "display": "HL7 Europe"
    },
    "system": "urn:oid:2.16.840.1.113883.2.51.999",
    "value": "0a053446-b1f4-4871-9184-ecf586a32a86"
  },
  "entry": [
    {
      "fullUrl": "urn:uuid:2f41595c-681d-48ff-9384-61c07e31b24f",
      "resource": {
        "resourceType": "Composition",
        "id": "2f41595c-681d-48ff-9384-61c07e31b24f",
        "meta": {
          "profile": [
            "http://hl7.eu/fhir/laboratory/StructureDefinition/Composition-eu-lab"
          ]
        },
        "identifier": {
          "assigner": {
            "display": "HL7 Europe"
          },
          "system": "urn:oid:2.16.840.1.113883.2.51.999",
          "value": "5a80c758-1743-4050-afd6-efae1959303f"
        },
        "author": [
          {
            "reference": "urn:uuid:122af476-1649-4f0e-8f4b-4aa1414601ea"
          }
        ],
        "category": [
          {
            "coding": [
              {
                "code": "26436-6",
                "system": "http://loinc.org",
                "display": "Laboratory studies (set)"
              }
            ]
          }
        ],
        "type": {
          "coding": [
            {
              "code": "11502-2",
              "system": "http://loinc.org",
              "display": "Laboratory report"
            }
          ],
          "text": "Laboratory Report"
        },
        "section": [
          {
            "code": {
              "coding": [
                {
                  "code": "26436-6",
                  "system": "http://loinc.org",
                  "display": "Laboratory studies (set)"
                }
              ],
              "text": "Laboratory studies"
            },
            "section": [
              {
                "code": {
                  "coding": [
                    {
                      "code": "$18723-7",
                      "system": "http://loinc.org",
                      "display": "Hematology studies (set)"
                    }
                  ],
                  "text": "Hematology"
                },
                "entry": [
                  {
                    "reference": "urn:uuid:e7b6f39c-d6d6-49c3-b4fa-9bc1f8f12181"
                  },
                  {
                    "reference": "urn:uuid:239e9301-5a80-43c6-877e-7fcd04016bab"
                  },
                  {
                    "reference": "urn:uuid:2df7f34f-cd27-42b6-a7c2-772aca0fb1a6"
                  },
                  {
                    "reference": "urn:uuid:22e4d827-4180-4f42-a71b-acb3e383f9d8"
                  },
                  {
                    "reference": "urn:uuid:7008d345-7f22-498d-9a6b-b18dcea9789c"
                  },
                  {
                    "reference": "urn:uuid:e0360ea0-338d-4c0e-a485-8793c64f9e4f"
                  },
                  {
                    "reference": "urn:uuid:fc78ebca-56cd-4885-b425-e1e69478fb41"
                  },
                  {
                    "reference": "urn:uuid:f91bc5c7-f75a-4754-800a-ca433a8fab97"
                  },
                  {
                    "reference": "urn:uuid:729881d5-4162-42f2-9f83-bf237412a2d0"
                  },
                  {
                    "reference": "urn:uuid:a63d411a-d91a-4510-a253-dd047a722f25"
                  },
                  {
                    "reference": "urn:uuid:5de4566d-d5dd-469f-96a3-3b280a1ef94a"
                  }
                ],
                "text": {
                  "status": "generated",
                  "div": "<div xmlns=\"http://www.w3.org/1999/xhtml\"><h3>Hematology</h3><table class=\"hl7__eu__lab__report\"><thead><tr><th>Test</th><th>31-OCT-2020</th><th>Reference&#xA0;Range</th><th>Unit</th></tr></thead><tbody><tr><td>Leukocytes [#/volume] in Blood by Automated count</td><td>8.1</td><td>3.4 - 10.6</td><td>10*3/uL</td></tr><tr><td>Erythrocytes [#/volume] in Blood by Automated count</td><td>4.9</td><td>4.7 - 5.2</td><td>10*6/uL</td></tr><tr><td>Hemoglobin [Mass/volume] in Blood</td><td>14.0</td><td>11.5 - 16</td><td>g/dL</td></tr><tr><td>Hematocrit [Volume Fraction] of Blood by Automated count</td><td>49.1</td><td>38 - 56</td><td>%</td></tr><tr><td>MCV [Entitic volume] by Automated count</td><td>88.3</td><td>78 - 98</td><td>fL</td></tr><tr><td>MCH [Entitic mass] by Automated count</td><td>31.7</td><td>27 - 34</td><td>pg</td></tr><tr><td>MCHC [Mass/volume] by Automated count</td><td>35.6</td><td>31 - 36</td><td>g/dL</td></tr><tr><td>Erythrocyte distribution width [Entitic volume] by Automated count</td><td>44.7</td><td>36 - 55</td><td>fL</td></tr><tr><td>Platelets [#/volume] in Blood by Automated count</td><td>439.8</td><td>150 - 450</td><td>10*3/uL</td></tr><tr><td>Platelet distribution width [Entitic volume] in Blood by Automated count</td><td><strong>321.2 H</strong></td><td>11.6 - 17.4</td><td>fL</td></tr><tr><td>Platelet mean volume [Entitic volume] in Blood by Automated count</td><td>12.3</td><td>7.2 - 13.5</td><td>fL</td></tr></tbody></table></div>"
                },
                "title": "Hematology"
              },
              {
                "code": {
                  "coding": [
                    {
                      "code": "$18719-5",
                      "system": "http://loinc.org",
                      "display": "Chemistry studies (set)"
                    }
                  ],
                  "text": "Chemistry"
                },
                "entry": [
                  {
                    "reference": "urn:uuid:9fff13aa-c457-40f3-9c24-caa1569b08b1"
                  },
                  {
                    "reference": "urn:uuid:b4f226c0-48cb-4b0f-a893-2f6b5358eb1d"
                  },
                  {
                    "reference": "urn:uuid:336cc231-58e4-41e8-bb6a-eade519c8137"
                  },
                  {
                    "reference": "urn:uuid:bbb8638e-fc1b-4ce0-9308-c8e91aefefdc"
                  },
                  {
                    "reference": "urn:uuid:25a2d765-0a54-426e-936a-78dd3a1e4fa9"
                  },
                  {
                    "reference": "urn:uuid:f99d9cbd-fd76-485f-9302-fef33103111b"
                  },
                  {
                    "reference": "urn:uuid:964506fd-1650-40c9-a595-3b457401b04e"
                  },
                  {
                    "reference": "urn:uuid:ce55cfe4-ded6-4d08-938e-c272ead3bd02"
                  },
                  {
                    "reference": "urn:uuid:7af47917-510f-419d-acf6-f8fc53992f53"
                  }
                ],
                "text": {
                  "status": "generated",
                  "div": "<div xmlns=\"http://www.w3.org/1999/xhtml\"><h3>Chemistry</h3><table class=\"hl7__eu__lab__report\"><thead><tr><th>Test</th><th>31-OCT-2020</th><th>Reference&#xA0;Range</th><th>Unit</th></tr></thead><tbody><tr><td>Hemoglobin A1c/Hemoglobin.total in Blood</td><td>6.1</td><td>4.5 - 6.4</td><td>%</td></tr><tr><td>Glucose [Mass/volume] in Blood</td><td>84.0</td><td>70 - 140</td><td>mg/dL</td></tr><tr><td>Urea nitrogen [Mass/volume] in Blood</td><td>17.7</td><td>7 - 25</td><td>mg/dL</td></tr><tr><td>Creatinine [Mass/volume] in Blood</td><td>0.7</td><td>0.6 - 1.1</td><td>mg/dL</td></tr><tr><td>Calcium [Mass/volume] in Blood</td><td>9.3</td><td>8.6 - 10.4</td><td>mg/dL</td></tr><tr><td>Sodium [Moles/volume] in Blood</td><td>143.5</td><td>135 - 145</td><td>mmol/L</td></tr><tr><td>Potassium [Moles/volume] in Blood</td><td>5.0</td><td>3.5 - 5.3</td><td>mmol/L</td></tr><tr><td>Chloride [Moles/volume] in Blood</td><td>106.7</td><td>98 - 108</td><td>mmol/L</td></tr><tr><td>Carbon dioxide, total [Moles/volume] in Blood</td><td>27.8</td><td>22 - 32</td><td>mmol/L</td></tr></tbody></table></div>"
                },
                "title": "Chemistry"
              }
            ],
            "title": "Laboratory Report"
          },
          {
            "text": {
              "status": "generated",
              "div": "<div xmlns=\"http://www.w3.org/1999/xhtml\"><h3>Annotation</h3><table class=\"hl7__eu__lab__report\"><tr><th>Conclusion and Recommendations based on this report and previous findings known to us</th></tr><tr><td>All measured parameters are within normal limits except for a markedly elevated platelet distribution width, which may indicate increased platelet size variability, possibly due to reactive or regenerative processes. No evidence of anemia, renal dysfunction, or electrolyte imbalance. Glycemic control appears adequate. Correlation with clinical context and possible follow-up of platelet indices is recommended.</td></tr></table></div>"
            },
            "code": {
              "coding": [
                {
                  "system": "http://loinc.org",
                  "code": "48767-8",
                  "display": "Annotation comment"
                }
              ]
            },
            "title": "Annotation comment"
          }
        ],
        "status": "final",
        "subject": {
          "reference": "urn:uuid:2d8e2ecd-dd16-4853-95b6-1434c425a1fb",
          "display": "Helene Andresen"
        },
        "date": "2020-10-31T23:53:36Z",
        "title": "Laboratory Report",
        "confidentiality": "N"
      }
    },
    {
      "fullUrl": "urn:uuid:9f9483e8-b7b0-458f-8786-c477b7984dfb",
      "resource": {
        "resourceType": "DiagnosticReport",
        "id": "9f9483e8-b7b0-458f-8786-c477b7984dfb",
        "meta": {
          "profile": [
            "http://hl7.eu/fhir/laboratory/StructureDefinition/DiagnosticReport-eu-lab"
          ]
        },
        "identifier": [
          {
            "assigner": {
              "display": "HL7 Europe"
            },
            "system": "urn:oid:2.16.840.1.113883.2.51.999",
            "value": "8740d3e7-54e5-48b4-9299-cd66237bc4ca"
          }
        ],
        "extension": [
          {
            "url": "http://hl7.org/fhir/5.0/StructureDefinition/extension-DiagnosticReport.composition",
            "valueReference": {
              "reference": "urn:uuid:5a80c758-1743-4050-afd6-efae1959303f"
            }
          }
        ],
        "category": [
          {
            "coding": [
              {
                "code": "26436-6",
                "system": "http://loinc.org",
                "display": "Laboratory studies (set)"
              }
            ]
          }
        ],
        "specimen": [
          {
            "reference": "urn:uuid:627b6c4e-f0f1-465a-845f-1b6b5813b393"
          },
          {
            "reference": "urn:uuid:627b6c4e-f0f1-465a-845f-1b6b5813b393"
          }
        ],
        "result": [
          {
            "reference": "urn:uuid:9fff13aa-c457-40f3-9c24-caa1569b08b1"
          },
          {
            "reference": "urn:uuid:b4f226c0-48cb-4b0f-a893-2f6b5358eb1d"
          },
          {
            "reference": "urn:uuid:336cc231-58e4-41e8-bb6a-eade519c8137"
          },
          {
            "reference": "urn:uuid:bbb8638e-fc1b-4ce0-9308-c8e91aefefdc"
          },
          {
            "reference": "urn:uuid:25a2d765-0a54-426e-936a-78dd3a1e4fa9"
          },
          {
            "reference": "urn:uuid:f99d9cbd-fd76-485f-9302-fef33103111b"
          },
          {
            "reference": "urn:uuid:964506fd-1650-40c9-a595-3b457401b04e"
          },
          {
            "reference": "urn:uuid:ce55cfe4-ded6-4d08-938e-c272ead3bd02"
          },
          {
            "reference": "urn:uuid:7af47917-510f-419d-acf6-f8fc53992f53"
          },
          {
            "reference": "urn:uuid:e7b6f39c-d6d6-49c3-b4fa-9bc1f8f12181"
          },
          {
            "reference": "urn:uuid:239e9301-5a80-43c6-877e-7fcd04016bab"
          },
          {
            "reference": "urn:uuid:2df7f34f-cd27-42b6-a7c2-772aca0fb1a6"
          },
          {
            "reference": "urn:uuid:22e4d827-4180-4f42-a71b-acb3e383f9d8"
          },
          {
            "reference": "urn:uuid:7008d345-7f22-498d-9a6b-b18dcea9789c"
          },
          {
            "reference": "urn:uuid:e0360ea0-338d-4c0e-a485-8793c64f9e4f"
          },
          {
            "reference": "urn:uuid:fc78ebca-56cd-4885-b425-e1e69478fb41"
          },
          {
            "reference": "urn:uuid:f91bc5c7-f75a-4754-800a-ca433a8fab97"
          },
          {
            "reference": "urn:uuid:729881d5-4162-42f2-9f83-bf237412a2d0"
          },
          {
            "reference": "urn:uuid:a63d411a-d91a-4510-a253-dd047a722f25"
          },
          {
            "reference": "urn:uuid:5de4566d-d5dd-469f-96a3-3b280a1ef94a"
          }
        ],
        "status": "registered",
        "code": {
          "coding": [
            {
              "code": "11502-2",
              "system": "http://loinc.org",
              "display": "Laboratory report"
            }
          ]
        },
        "subject": {
          "reference": "urn:uuid:2d8e2ecd-dd16-4853-95b6-1434c425a1fb",
          "display": "Helene Andresen"
        }
      }
    },
    {
      "fullUrl": "urn:uuid:2d8e2ecd-dd16-4853-95b6-1434c425a1fb",
      "resource": {
        "resourceType": "Patient",
        "id": "2d8e2ecd-dd16-4853-95b6-1434c425a1fb",
        "meta": {
          "security": [
            {
              "system": "http://terminology.hl7.org/CodeSystem/v3-ActReason",
              "code": "HTEST"
            },
            {
              "system": "http://terminology.hl7.org/CodeSystem/v3-ActReason",
              "code": "TRAIN"
            }
          ],
          "tag": [
            {
              "system": "https://synderai.net/fhir/CodeSystem/tags",
              "code": "synthetic",
              "display": "SYNDERAI Synthetic data"
            }
          ],
          "profile": [
            "http://hl7.eu/fhir/base/StructureDefinition/patient-eu-core"
          ]
        },
        "identifier": [
          {
            "type": {
              "coding": [
                {
                  "code": "PT",
                  "system": "http://terminology.hl7.org/CodeSystem/v2-0203"
                }
              ]
            },
            "system": "http://ec.europa.eu/identifier/eci",
            "value": "3450-170343-2"
          },
          {
            "type": {
              "coding": [
                {
                  "code": "MR",
                  "system": "http://terminology.hl7.org/CodeSystem/v2-0203"
                }
              ]
            },
            "system": "http://local.setting.eu/identifier",
            "value": "72e91c9c-0b01-42b0-a6a0-6dcc70aeec49"
          }
        ],
        "name": [
          {
            "family": "Andresen"
          },
          {
            "given": [
              "Helene"
            ]
          },
          {
            "text": "Helene Andresen"
          }
        ],
        "address": [
          {
            "line": [
              "Kristiansenberget 2"
            ],
            "use": "home",
            "type": "physical",
            "postalCode": "0172",
            "city": "Sørensen",
            "country": "Norway"
          }
        ],
        "telecom": [
          {
            "system": "phone",
            "value": "53 98 86 24"
          }
        ],
        "extension": [
          {
            "url": "http://hl7.org/fhir/StructureDefinition/patient-nationality",
            "valueCodeableConcept": {
              "coding": [
                {
                  "code": "NO",
                  "system": "http://hl7.org/fhir/ValueSet/country"
                }
              ]
            }
          }
        ],
        "text": {
          "status": "generated",
          "div": "<div xmlns=\"http://www.w3.org/1999/xhtml\"><table class=\"hl7__ips\"><tr><td>Helene Andresen</td><td>female</td><td>17-Oct-1939</td></tr></table></div>"
        },
        "gender": "female",
        "birthDate": "1939-10-17"
      }
    },
    {
      "fullUrl": "urn:uuid:9e57b011-104b-4f7c-8048-6af910da5049",
      "resource": {
        "resourceType": "ServiceRequest",
        "id": "9e57b011-104b-4f7c-8048-6af910da5049",
        "meta": {
          "profile": [
            "http://hl7.eu/fhir/laboratory/StructureDefinition/ServiceRequest-eu-lab"
          ]
        },
        "identifier": [
          {
            "system": "http://example.org",
            "value": "03f81b7e-7dde-4919-a36f-c4697e460a6a"
          }
        ],
        "specimen": [
          {
            "reference": "urn:uuid:627b6c4e-f0f1-465a-845f-1b6b5813b393"
          }
        ],
        "reasonCode": [
          {
            "coding": [
              {
                "code": "64859006",
                "system": "http://snomed.info/sct",
                "display": "Osteoporosis"
              }
            ]
          },
          {
            "coding": [
              {
                "code": "40055000",
                "system": "http://snomed.info/sct",
                "display": "Chronic sinusitis"
              }
            ]
          },
          {
            "coding": [
              {
                "code": "55822004",
                "system": "http://snomed.info/sct",
                "display": "Hyperlipidemia"
              }
            ]
          },
          {
            "coding": [
              {
                "code": "271737000",
                "system": "http://snomed.info/sct",
                "display": "Anemia"
              }
            ]
          },
          {
            "coding": [
              {
                "code": "15777000",
                "system": "http://snomed.info/sct",
                "display": "Prediabetes"
              }
            ]
          },
          {
            "coding": [
              {
                "code": "128613002",
                "system": "http://snomed.info/sct",
                "display": "Seizure disorder"
              }
            ]
          }
        ],
        "status": "active",
        "intent": "order",
        "code": {
          "coding": [
            {
              "code": "108252007",
              "system": "http://snomed.info/sct",
              "display": "Laboratory procedure"
            }
          ]
        },
        "subject": {
          "reference": "urn:uuid:2d8e2ecd-dd16-4853-95b6-1434c425a1fb",
          "display": "Helene Andresen"
        },
        "requester": {
          "reference": "urn:uuid:2c2a1511-be9c-4b0b-b374-138c59cd090b"
        }
      }
    },
    {
      "fullUrl": "urn:uuid:2c2a1511-be9c-4b0b-b374-138c59cd090b",
      "resource": {
        "resourceType": "PractitionerRole",
        "id": "2c2a1511-be9c-4b0b-b374-138c59cd090b",
        "meta": {
          "profile": [
            "http://hl7.eu/fhir/base/StructureDefinition/practitionerRole-eu"
          ]
        },
        "text": {
          "status": "generated",
          "div": "<div xmlns=\"http://www.w3.org/1999/xhtml\">Provider Role Id: 2c2a1511-be9c-4b0b-b374-138c59cd090b</div>"
        },
        "organization": {
          "reference": "urn:uuid:5eab4e79-c5bd-48a8-9c1a-9295bded3c38"
        }
      }
    },
    {
      "fullUrl": "urn:uuid:5eab4e79-c5bd-48a8-9c1a-9295bded3c38",
      "resource": {
        "resourceType": "Organization",
        "id": "5eab4e79-c5bd-48a8-9c1a-9295bded3c38",
        "meta": {
          "profile": [
            "http://hl7.eu/fhir/base/StructureDefinition/organization-eu"
          ]
        },
        "identifier": [
          {
            "assigner": {
              "display": "HL7 Europe"
            },
            "system": "urn:oid:2.16.840.1.113883.2.51.999",
            "value": "d54fe271-a2a1-4870-a65c-386c26077f7d"
          }
        ],
        "address": [
          {
            "city": "Oslo",
            "postalCode": "0155",
            "country": "Norway"
          }
        ],
        "text": {
          "status": "generated",
          "div": "<div xmlns=\"http://www.w3.org/1999/xhtml\">Provider Organization: Oslo universitetssykehus (Ullevål)</div>"
        },
        "name": "Oslo universitetssykehus (Ullevål)"
      }
    },
    {
      "fullUrl": "urn:uuid:627b6c4e-f0f1-465a-845f-1b6b5813b393",
      "resource": {
        "resourceType": "Specimen",
        "id": "627b6c4e-f0f1-465a-845f-1b6b5813b393",
        "meta": {
          "profile": [
            "http://hl7.eu/fhir/laboratory/StructureDefinition/Specimen-eu-lab"
          ]
        },
        "collection": {
          "collectedDateTime": "2020-10-31"
        },
        "text": {
          "status": "generated",
          "div": "<div xmlns=\"http://www.w3.org/1999/xhtml\"><table class=\"hl7__eu__lab__report\"><tr><th>Specimen</th><th>Collection Date</th></tr><tr><td>Whole blood specimen (specimen)</td><td><span class=\"nb\">31-Oct-2020</span></td></tr></table></div>"
        },
        "type": {
          "coding": [
            {
              "code": "258580003",
              "system": "http://snomed.info/sct",
              "display": "Whole blood specimen (specimen)"
            }
          ]
        }
      }
    },
    {
      "fullUrl": "urn:uuid:627b6c4e-f0f1-465a-845f-1b6b5813b393",
      "resource": {
        "resourceType": "Specimen",
        "id": "627b6c4e-f0f1-465a-845f-1b6b5813b393",
        "meta": {
          "profile": [
            "http://hl7.eu/fhir/laboratory/StructureDefinition/Specimen-eu-lab"
          ]
        },
        "collection": {
          "collectedDateTime": "2020-10-31"
        },
        "text": {
          "status": "generated",
          "div": "<div xmlns=\"http://www.w3.org/1999/xhtml\"><table class=\"hl7__eu__lab__report\"><tr><th>Specimen</th><th>Collection Date</th></tr><tr><td>Whole blood specimen (specimen)</td><td><span class=\"nb\">31-Oct-2020</span></td></tr></table></div>"
        },
        "type": {
          "coding": [
            {
              "code": "258580003",
              "system": "http://snomed.info/sct",
              "display": "Whole blood specimen (specimen)"
            }
          ]
        }
      }
    },
    {
      "fullUrl": "urn:uuid:9fff13aa-c457-40f3-9c24-caa1569b08b1",
      "resource": {
        "resourceType": "Observation",
        "id": "9fff13aa-c457-40f3-9c24-caa1569b08b1",
        "meta": {
          "profile": [
            "http://hl7.eu/fhir/laboratory/StructureDefinition/Observation-resultslab-eu-lab"
          ]
        },
        "performer": [
          {
            "display": "The Central European Lab"
          }
        ],
        "category": [
          {
            "coding": [
              {
                "system": "http://terminology.hl7.org/CodeSystem/observation-category",
                "code": "laboratory"
              }
            ]
          }
        ],
        "code": {
          "coding": [
            {
              "code": "4548-4",
              "system": "http://loinc.org",
              "display": "Hemoglobin A1c/Hemoglobin.total in Blood"
            }
          ],
          "text": "Hemoglobin A1c/Hemoglobin.total in Blood"
        },
        "valueQuantity": {
          "system": "http://unitsofmeasure.org",
          "value": 6.1,
          "unit": "%",
          "code": "%"
        },
        "referenceRange": [
          {
            "low": {
              "value": 4.5,
              "code": "%",
              "system": "http://unitsofmeasure.org"
            }
          },
          {
            "high": {
              "value": 6.4,
              "code": "%",
              "system": "http://unitsofmeasure.org"
            }
          }
        ],
        "text": {
          "status": "generated",
          "div": "<div xmlns=\"http://www.w3.org/1999/xhtml\"><table class=\"hl7__eu__lab__report\"><tr><th>Test</th><th>31-Oct-2020</th><th>Reference&#xA0;Range</th><th>Unit</th></tr><tr><td>Hemoglobin A1c/Hemoglobin.total in Blood</td><td>6.1</td><td>4.5 - 6.4</td><td></td><td>%</td></tr></table></div>"
        },
        "status": "final",
        "subject": {
          "reference": "urn:uuid:2d8e2ecd-dd16-4853-95b6-1434c425a1fb",
          "display": "Helene Andresen"
        },
        "effectiveDateTime": "2020-10-31T22:53:36Z",
        "specimen": {
          "reference": "urn:uuid:627b6c4e-f0f1-465a-845f-1b6b5813b393"
        }
      }
    },
    {
      "fullUrl": "urn:uuid:b4f226c0-48cb-4b0f-a893-2f6b5358eb1d",
      "resource": {
        "resourceType": "Observation",
        "id": "b4f226c0-48cb-4b0f-a893-2f6b5358eb1d",
        "meta": {
          "profile": [
            "http://hl7.eu/fhir/laboratory/StructureDefinition/Observation-resultslab-eu-lab"
          ]
        },
        "performer": [
          {
            "display": "The Central European Lab"
          }
        ],
        "category": [
          {
            "coding": [
              {
                "system": "http://terminology.hl7.org/CodeSystem/observation-category",
                "code": "laboratory"
              }
            ]
          }
        ],
        "code": {
          "coding": [
            {
              "code": "2339-0",
              "system": "http://loinc.org",
              "display": "Glucose [Mass/volume] in Blood"
            }
          ],
          "text": "Glucose [Mass/volume] in Blood"
        },
        "valueQuantity": {
          "system": "http://unitsofmeasure.org",
          "value": 84,
          "unit": "mg/dL",
          "code": "mg/dL"
        },
        "referenceRange": [
          {
            "low": {
              "value": 70,
              "code": "mg/dL",
              "system": "http://unitsofmeasure.org"
            }
          },
          {
            "high": {
              "value": 140,
              "code": "mg/dL",
              "system": "http://unitsofmeasure.org"
            }
          }
        ],
        "text": {
          "status": "generated",
          "div": "<div xmlns=\"http://www.w3.org/1999/xhtml\"><table class=\"hl7__eu__lab__report\"><tr><th>Test</th><th>31-Oct-2020</th><th>Reference&#xA0;Range</th><th>Unit</th></tr><tr><td>Glucose [Mass/volume] in Blood</td><td>84.0</td><td>70 - 140</td><td></td><td>mg/dL</td></tr></table></div>"
        },
        "status": "final",
        "subject": {
          "reference": "urn:uuid:2d8e2ecd-dd16-4853-95b6-1434c425a1fb",
          "display": "Helene Andresen"
        },
        "effectiveDateTime": "2020-10-31T22:53:36Z",
        "specimen": {
          "reference": "urn:uuid:627b6c4e-f0f1-465a-845f-1b6b5813b393"
        }
      }
    },
    {
      "fullUrl": "urn:uuid:336cc231-58e4-41e8-bb6a-eade519c8137",
      "resource": {
        "resourceType": "Observation",
        "id": "336cc231-58e4-41e8-bb6a-eade519c8137",
        "meta": {
          "profile": [
            "http://hl7.eu/fhir/laboratory/StructureDefinition/Observation-resultslab-eu-lab"
          ]
        },
        "performer": [
          {
            "display": "The Central European Lab"
          }
        ],
        "category": [
          {
            "coding": [
              {
                "system": "http://terminology.hl7.org/CodeSystem/observation-category",
                "code": "laboratory"
              }
            ]
          }
        ],
        "code": {
          "coding": [
            {
              "code": "6299-2",
              "system": "http://loinc.org",
              "display": "Urea nitrogen [Mass/volume] in Blood"
            }
          ],
          "text": "Urea nitrogen [Mass/volume] in Blood"
        },
        "valueQuantity": {
          "system": "http://unitsofmeasure.org",
          "value": 17.7,
          "unit": "mg/dL",
          "code": "mg/dL"
        },
        "referenceRange": [
          {
            "low": {
              "value": 7,
              "code": "mg/dL",
              "system": "http://unitsofmeasure.org"
            }
          },
          {
            "high": {
              "value": 25,
              "code": "mg/dL",
              "system": "http://unitsofmeasure.org"
            }
          }
        ],
        "text": {
          "status": "generated",
          "div": "<div xmlns=\"http://www.w3.org/1999/xhtml\"><table class=\"hl7__eu__lab__report\"><tr><th>Test</th><th>31-Oct-2020</th><th>Reference&#xA0;Range</th><th>Unit</th></tr><tr><td>Urea nitrogen [Mass/volume] in Blood</td><td>17.7</td><td>7 - 25</td><td></td><td>mg/dL</td></tr></table></div>"
        },
        "status": "final",
        "subject": {
          "reference": "urn:uuid:2d8e2ecd-dd16-4853-95b6-1434c425a1fb",
          "display": "Helene Andresen"
        },
        "effectiveDateTime": "2020-10-31T22:53:36Z",
        "specimen": {
          "reference": "urn:uuid:627b6c4e-f0f1-465a-845f-1b6b5813b393"
        }
      }
    },
    {
      "fullUrl": "urn:uuid:bbb8638e-fc1b-4ce0-9308-c8e91aefefdc",
      "resource": {
        "resourceType": "Observation",
        "id": "bbb8638e-fc1b-4ce0-9308-c8e91aefefdc",
        "meta": {
          "profile": [
            "http://hl7.eu/fhir/laboratory/StructureDefinition/Observation-resultslab-eu-lab"
          ]
        },
        "performer": [
          {
            "display": "The Central European Lab"
          }
        ],
        "category": [
          {
            "coding": [
              {
                "system": "http://terminology.hl7.org/CodeSystem/observation-category",
                "code": "laboratory"
              }
            ]
          }
        ],
        "code": {
          "coding": [
            {
              "code": "38483-4",
              "system": "http://loinc.org",
              "display": "Creatinine [Mass/volume] in Blood"
            }
          ],
          "text": "Creatinine [Mass/volume] in Blood"
        },
        "valueQuantity": {
          "system": "http://unitsofmeasure.org",
          "value": 0.7,
          "unit": "mg/dL",
          "code": "mg/dL"
        },
        "referenceRange": [
          {
            "low": {
              "value": 0.6,
              "code": "mg/dL",
              "system": "http://unitsofmeasure.org"
            }
          },
          {
            "high": {
              "value": 1.1,
              "code": "mg/dL",
              "system": "http://unitsofmeasure.org"
            }
          }
        ],
        "text": {
          "status": "generated",
          "div": "<div xmlns=\"http://www.w3.org/1999/xhtml\"><table class=\"hl7__eu__lab__report\"><tr><th>Test</th><th>31-Oct-2020</th><th>Reference&#xA0;Range</th><th>Unit</th></tr><tr><td>Creatinine [Mass/volume] in Blood</td><td>0.7</td><td>0.6 - 1.1</td><td></td><td>mg/dL</td></tr></table></div>"
        },
        "status": "final",
        "subject": {
          "reference": "urn:uuid:2d8e2ecd-dd16-4853-95b6-1434c425a1fb",
          "display": "Helene Andresen"
        },
        "effectiveDateTime": "2020-10-31T22:53:36Z",
        "specimen": {
          "reference": "urn:uuid:627b6c4e-f0f1-465a-845f-1b6b5813b393"
        }
      }
    },
    {
      "fullUrl": "urn:uuid:25a2d765-0a54-426e-936a-78dd3a1e4fa9",
      "resource": {
        "resourceType": "Observation",
        "id": "25a2d765-0a54-426e-936a-78dd3a1e4fa9",
        "meta": {
          "profile": [
            "http://hl7.eu/fhir/laboratory/StructureDefinition/Observation-resultslab-eu-lab"
          ]
        },
        "performer": [
          {
            "display": "The Central European Lab"
          }
        ],
        "category": [
          {
            "coding": [
              {
                "system": "http://terminology.hl7.org/CodeSystem/observation-category",
                "code": "laboratory"
              }
            ]
          }
        ],
        "code": {
          "coding": [
            {
              "code": "49765-1",
              "system": "http://loinc.org",
              "display": "Calcium [Mass/volume] in Blood"
            }
          ],
          "text": "Calcium [Mass/volume] in Blood"
        },
        "valueQuantity": {
          "system": "http://unitsofmeasure.org",
          "value": 9.3,
          "unit": "mg/dL",
          "code": "mg/dL"
        },
        "referenceRange": [
          {
            "low": {
              "value": 8.6,
              "code": "mg/dL",
              "system": "http://unitsofmeasure.org"
            }
          },
          {
            "high": {
              "value": 10.4,
              "code": "mg/dL",
              "system": "http://unitsofmeasure.org"
            }
          }
        ],
        "text": {
          "status": "generated",
          "div": "<div xmlns=\"http://www.w3.org/1999/xhtml\"><table class=\"hl7__eu__lab__report\"><tr><th>Test</th><th>31-Oct-2020</th><th>Reference&#xA0;Range</th><th>Unit</th></tr><tr><td>Calcium [Mass/volume] in Blood</td><td>9.3</td><td>8.6 - 10.4</td><td></td><td>mg/dL</td></tr></table></div>"
        },
        "status": "final",
        "subject": {
          "reference": "urn:uuid:2d8e2ecd-dd16-4853-95b6-1434c425a1fb",
          "display": "Helene Andresen"
        },
        "effectiveDateTime": "2020-10-31T22:53:36Z",
        "specimen": {
          "reference": "urn:uuid:627b6c4e-f0f1-465a-845f-1b6b5813b393"
        }
      }
    },
    {
      "fullUrl": "urn:uuid:f99d9cbd-fd76-485f-9302-fef33103111b",
      "resource": {
        "resourceType": "Observation",
        "id": "f99d9cbd-fd76-485f-9302-fef33103111b",
        "meta": {
          "profile": [
            "http://hl7.eu/fhir/laboratory/StructureDefinition/Observation-resultslab-eu-lab"
          ]
        },
        "performer": [
          {
            "display": "The Central European Lab"
          }
        ],
        "category": [
          {
            "coding": [
              {
                "system": "http://terminology.hl7.org/CodeSystem/observation-category",
                "code": "laboratory"
              }
            ]
          }
        ],
        "code": {
          "coding": [
            {
              "code": "2947-0",
              "system": "http://loinc.org",
              "display": "Sodium [Moles/volume] in Blood"
            }
          ],
          "text": "Sodium [Moles/volume] in Blood"
        },
        "valueQuantity": {
          "system": "http://unitsofmeasure.org",
          "value": 143.5,
          "unit": "mmol/L",
          "code": "mmol/L"
        },
        "referenceRange": [
          {
            "low": {
              "value": 135,
              "code": "mmol/L",
              "system": "http://unitsofmeasure.org"
            }
          },
          {
            "high": {
              "value": 145,
              "code": "mmol/L",
              "system": "http://unitsofmeasure.org"
            }
          }
        ],
        "text": {
          "status": "generated",
          "div": "<div xmlns=\"http://www.w3.org/1999/xhtml\"><table class=\"hl7__eu__lab__report\"><tr><th>Test</th><th>31-Oct-2020</th><th>Reference&#xA0;Range</th><th>Unit</th></tr><tr><td>Sodium [Moles/volume] in Blood</td><td>143.5</td><td>135 - 145</td><td></td><td>mmol/L</td></tr></table></div>"
        },
        "status": "final",
        "subject": {
          "reference": "urn:uuid:2d8e2ecd-dd16-4853-95b6-1434c425a1fb",
          "display": "Helene Andresen"
        },
        "effectiveDateTime": "2020-10-31T22:53:36Z",
        "specimen": {
          "reference": "urn:uuid:627b6c4e-f0f1-465a-845f-1b6b5813b393"
        }
      }
    },
    {
      "fullUrl": "urn:uuid:964506fd-1650-40c9-a595-3b457401b04e",
      "resource": {
        "resourceType": "Observation",
        "id": "964506fd-1650-40c9-a595-3b457401b04e",
        "meta": {
          "profile": [
            "http://hl7.eu/fhir/laboratory/StructureDefinition/Observation-resultslab-eu-lab"
          ]
        },
        "performer": [
          {
            "display": "The Central European Lab"
          }
        ],
        "category": [
          {
            "coding": [
              {
                "system": "http://terminology.hl7.org/CodeSystem/observation-category",
                "code": "laboratory"
              }
            ]
          }
        ],
        "code": {
          "coding": [
            {
              "code": "6298-4",
              "system": "http://loinc.org",
              "display": "Potassium [Moles/volume] in Blood"
            }
          ],
          "text": "Potassium [Moles/volume] in Blood"
        },
        "valueQuantity": {
          "system": "http://unitsofmeasure.org",
          "value": 5,
          "unit": "mmol/L",
          "code": "mmol/L"
        },
        "referenceRange": [
          {
            "low": {
              "value": 3.5,
              "code": "mmol/L",
              "system": "http://unitsofmeasure.org"
            }
          },
          {
            "high": {
              "value": 5.3,
              "code": "mmol/L",
              "system": "http://unitsofmeasure.org"
            }
          }
        ],
        "text": {
          "status": "generated",
          "div": "<div xmlns=\"http://www.w3.org/1999/xhtml\"><table class=\"hl7__eu__lab__report\"><tr><th>Test</th><th>31-Oct-2020</th><th>Reference&#xA0;Range</th><th>Unit</th></tr><tr><td>Potassium [Moles/volume] in Blood</td><td>5.0</td><td>3.5 - 5.3</td><td></td><td>mmol/L</td></tr></table></div>"
        },
        "status": "final",
        "subject": {
          "reference": "urn:uuid:2d8e2ecd-dd16-4853-95b6-1434c425a1fb",
          "display": "Helene Andresen"
        },
        "effectiveDateTime": "2020-10-31T22:53:36Z",
        "specimen": {
          "reference": "urn:uuid:627b6c4e-f0f1-465a-845f-1b6b5813b393"
        }
      }
    },
    {
      "fullUrl": "urn:uuid:ce55cfe4-ded6-4d08-938e-c272ead3bd02",
      "resource": {
        "resourceType": "Observation",
        "id": "ce55cfe4-ded6-4d08-938e-c272ead3bd02",
        "meta": {
          "profile": [
            "http://hl7.eu/fhir/laboratory/StructureDefinition/Observation-resultslab-eu-lab"
          ]
        },
        "performer": [
          {
            "display": "The Central European Lab"
          }
        ],
        "category": [
          {
            "coding": [
              {
                "system": "http://terminology.hl7.org/CodeSystem/observation-category",
                "code": "laboratory"
              }
            ]
          }
        ],
        "code": {
          "coding": [
            {
              "code": "2069-3",
              "system": "http://loinc.org",
              "display": "Chloride [Moles/volume] in Blood"
            }
          ],
          "text": "Chloride [Moles/volume] in Blood"
        },
        "valueQuantity": {
          "system": "http://unitsofmeasure.org",
          "value": 106.7,
          "unit": "mmol/L",
          "code": "mmol/L"
        },
        "referenceRange": [
          {
            "low": {
              "value": 98,
              "code": "mmol/L",
              "system": "http://unitsofmeasure.org"
            }
          },
          {
            "high": {
              "value": 108,
              "code": "mmol/L",
              "system": "http://unitsofmeasure.org"
            }
          }
        ],
        "text": {
          "status": "generated",
          "div": "<div xmlns=\"http://www.w3.org/1999/xhtml\"><table class=\"hl7__eu__lab__report\"><tr><th>Test</th><th>31-Oct-2020</th><th>Reference&#xA0;Range</th><th>Unit</th></tr><tr><td>Chloride [Moles/volume] in Blood</td><td>106.7</td><td>98 - 108</td><td></td><td>mmol/L</td></tr></table></div>"
        },
        "status": "final",
        "subject": {
          "reference": "urn:uuid:2d8e2ecd-dd16-4853-95b6-1434c425a1fb",
          "display": "Helene Andresen"
        },
        "effectiveDateTime": "2020-10-31T22:53:36Z",
        "specimen": {
          "reference": "urn:uuid:627b6c4e-f0f1-465a-845f-1b6b5813b393"
        }
      }
    },
    {
      "fullUrl": "urn:uuid:7af47917-510f-419d-acf6-f8fc53992f53",
      "resource": {
        "resourceType": "Observation",
        "id": "7af47917-510f-419d-acf6-f8fc53992f53",
        "meta": {
          "profile": [
            "http://hl7.eu/fhir/laboratory/StructureDefinition/Observation-resultslab-eu-lab"
          ]
        },
        "performer": [
          {
            "display": "The Central European Lab"
          }
        ],
        "category": [
          {
            "coding": [
              {
                "system": "http://terminology.hl7.org/CodeSystem/observation-category",
                "code": "laboratory"
              }
            ]
          }
        ],
        "code": {
          "coding": [
            {
              "code": "20565-8",
              "system": "http://loinc.org",
              "display": "Carbon dioxide, total [Moles/volume] in Blood"
            }
          ],
          "text": "Carbon dioxide, total [Moles/volume] in Blood"
        },
        "valueQuantity": {
          "system": "http://unitsofmeasure.org",
          "value": 27.8,
          "unit": "mmol/L",
          "code": "mmol/L"
        },
        "referenceRange": [
          {
            "low": {
              "value": 22,
              "code": "mmol/L",
              "system": "http://unitsofmeasure.org"
            }
          },
          {
            "high": {
              "value": 32,
              "code": "mmol/L",
              "system": "http://unitsofmeasure.org"
            }
          }
        ],
        "text": {
          "status": "generated",
          "div": "<div xmlns=\"http://www.w3.org/1999/xhtml\"><table class=\"hl7__eu__lab__report\"><tr><th>Test</th><th>31-Oct-2020</th><th>Reference&#xA0;Range</th><th>Unit</th></tr><tr><td>Carbon dioxide, total [Moles/volume] in Blood</td><td>27.8</td><td>22 - 32</td><td></td><td>mmol/L</td></tr></table></div>"
        },
        "status": "final",
        "subject": {
          "reference": "urn:uuid:2d8e2ecd-dd16-4853-95b6-1434c425a1fb",
          "display": "Helene Andresen"
        },
        "effectiveDateTime": "2020-10-31T22:53:36Z",
        "specimen": {
          "reference": "urn:uuid:627b6c4e-f0f1-465a-845f-1b6b5813b393"
        }
      }
    },
    {
      "fullUrl": "urn:uuid:e7b6f39c-d6d6-49c3-b4fa-9bc1f8f12181",
      "resource": {
        "resourceType": "Observation",
        "id": "e7b6f39c-d6d6-49c3-b4fa-9bc1f8f12181",
        "meta": {
          "profile": [
            "http://hl7.eu/fhir/laboratory/StructureDefinition/Observation-resultslab-eu-lab"
          ]
        },
        "performer": [
          {
            "display": "The Central European Lab"
          }
        ],
        "category": [
          {
            "coding": [
              {
                "system": "http://terminology.hl7.org/CodeSystem/observation-category",
                "code": "laboratory"
              }
            ]
          }
        ],
        "code": {
          "coding": [
            {
              "code": "6690-2",
              "system": "http://loinc.org",
              "display": "Leukocytes [#/volume] in Blood by Automated count"
            }
          ],
          "text": "Leukocytes [#/volume] in Blood by Automated count"
        },
        "valueQuantity": {
          "system": "http://unitsofmeasure.org",
          "value": 8.1,
          "unit": "10*3/uL",
          "code": "10*3/uL"
        },
        "referenceRange": [
          {
            "low": {
              "value": 3.4,
              "code": "10*3/uL",
              "system": "http://unitsofmeasure.org"
            }
          },
          {
            "high": {
              "value": 10.6,
              "code": "10*3/uL",
              "system": "http://unitsofmeasure.org"
            }
          }
        ],
        "text": {
          "status": "generated",
          "div": "<div xmlns=\"http://www.w3.org/1999/xhtml\"><table class=\"hl7__eu__lab__report\"><tr><th>Test</th><th>31-Oct-2020</th><th>Reference&#xA0;Range</th><th>Unit</th></tr><tr><td>Leukocytes [#/volume] in Blood by Automated count</td><td>8.1</td><td>3.4 - 10.6</td><td></td><td>10*3/uL</td></tr></table></div>"
        },
        "status": "final",
        "subject": {
          "reference": "urn:uuid:2d8e2ecd-dd16-4853-95b6-1434c425a1fb",
          "display": "Helene Andresen"
        },
        "effectiveDateTime": "2020-10-31T22:53:36Z",
        "specimen": {
          "reference": "urn:uuid:627b6c4e-f0f1-465a-845f-1b6b5813b393"
        }
      }
    },
    {
      "fullUrl": "urn:uuid:239e9301-5a80-43c6-877e-7fcd04016bab",
      "resource": {
        "resourceType": "Observation",
        "id": "239e9301-5a80-43c6-877e-7fcd04016bab",
        "meta": {
          "profile": [
            "http://hl7.eu/fhir/laboratory/StructureDefinition/Observation-resultslab-eu-lab"
          ]
        },
        "performer": [
          {
            "display": "The Central European Lab"
          }
        ],
        "category": [
          {
            "coding": [
              {
                "system": "http://terminology.hl7.org/CodeSystem/observation-category",
                "code": "laboratory"
              }
            ]
          }
        ],
        "code": {
          "coding": [
            {
              "code": "789-8",
              "system": "http://loinc.org",
              "display": "Erythrocytes [#/volume] in Blood by Automated count"
            }
          ],
          "text": "Erythrocytes [#/volume] in Blood by Automated count"
        },
        "valueQuantity": {
          "system": "http://unitsofmeasure.org",
          "value": 4.9,
          "unit": "10*6/uL",
          "code": "10*6/uL"
        },
        "referenceRange": [
          {
            "low": {
              "value": 4.7,
              "code": "10*6/uL",
              "system": "http://unitsofmeasure.org"
            }
          },
          {
            "high": {
              "value": 5.2,
              "code": "10*6/uL",
              "system": "http://unitsofmeasure.org"
            }
          }
        ],
        "text": {
          "status": "generated",
          "div": "<div xmlns=\"http://www.w3.org/1999/xhtml\"><table class=\"hl7__eu__lab__report\"><tr><th>Test</th><th>31-Oct-2020</th><th>Reference&#xA0;Range</th><th>Unit</th></tr><tr><td>Erythrocytes [#/volume] in Blood by Automated count</td><td>4.9</td><td>4.7 - 5.2</td><td></td><td>10*6/uL</td></tr></table></div>"
        },
        "status": "final",
        "subject": {
          "reference": "urn:uuid:2d8e2ecd-dd16-4853-95b6-1434c425a1fb",
          "display": "Helene Andresen"
        },
        "effectiveDateTime": "2020-10-31T22:53:36Z",
        "specimen": {
          "reference": "urn:uuid:627b6c4e-f0f1-465a-845f-1b6b5813b393"
        }
      }
    },
    {
      "fullUrl": "urn:uuid:2df7f34f-cd27-42b6-a7c2-772aca0fb1a6",
      "resource": {
        "resourceType": "Observation",
        "id": "2df7f34f-cd27-42b6-a7c2-772aca0fb1a6",
        "meta": {
          "profile": [
            "http://hl7.eu/fhir/laboratory/StructureDefinition/Observation-resultslab-eu-lab"
          ]
        },
        "performer": [
          {
            "display": "The Central European Lab"
          }
        ],
        "category": [
          {
            "coding": [
              {
                "system": "http://terminology.hl7.org/CodeSystem/observation-category",
                "code": "laboratory"
              }
            ]
          }
        ],
        "code": {
          "coding": [
            {
              "code": "718-7",
              "system": "http://loinc.org",
              "display": "Hemoglobin [Mass/volume] in Blood"
            }
          ],
          "text": "Hemoglobin [Mass/volume] in Blood"
        },
        "valueQuantity": {
          "system": "http://unitsofmeasure.org",
          "value": 14,
          "unit": "g/dL",
          "code": "g/dL"
        },
        "referenceRange": [
          {
            "low": {
              "value": 11.5,
              "code": "g/dL",
              "system": "http://unitsofmeasure.org"
            }
          },
          {
            "high": {
              "value": 16,
              "code": "g/dL",
              "system": "http://unitsofmeasure.org"
            }
          }
        ],
        "text": {
          "status": "generated",
          "div": "<div xmlns=\"http://www.w3.org/1999/xhtml\"><table class=\"hl7__eu__lab__report\"><tr><th>Test</th><th>31-Oct-2020</th><th>Reference&#xA0;Range</th><th>Unit</th></tr><tr><td>Hemoglobin [Mass/volume] in Blood</td><td>14.0</td><td>11.5 - 16</td><td></td><td>g/dL</td></tr></table></div>"
        },
        "status": "final",
        "subject": {
          "reference": "urn:uuid:2d8e2ecd-dd16-4853-95b6-1434c425a1fb",
          "display": "Helene Andresen"
        },
        "effectiveDateTime": "2020-10-31T22:53:36Z",
        "specimen": {
          "reference": "urn:uuid:627b6c4e-f0f1-465a-845f-1b6b5813b393"
        }
      }
    },
    {
      "fullUrl": "urn:uuid:22e4d827-4180-4f42-a71b-acb3e383f9d8",
      "resource": {
        "resourceType": "Observation",
        "id": "22e4d827-4180-4f42-a71b-acb3e383f9d8",
        "meta": {
          "profile": [
            "http://hl7.eu/fhir/laboratory/StructureDefinition/Observation-resultslab-eu-lab"
          ]
        },
        "performer": [
          {
            "display": "The Central European Lab"
          }
        ],
        "category": [
          {
            "coding": [
              {
                "system": "http://terminology.hl7.org/CodeSystem/observation-category",
                "code": "laboratory"
              }
            ]
          }
        ],
        "code": {
          "coding": [
            {
              "code": "4544-3",
              "system": "http://loinc.org",
              "display": "Hematocrit [Volume Fraction] of Blood by Automated count"
            }
          ],
          "text": "Hematocrit [Volume Fraction] of Blood by Automated count"
        },
        "valueQuantity": {
          "system": "http://unitsofmeasure.org",
          "value": 49.1,
          "unit": "%",
          "code": "%"
        },
        "referenceRange": [
          {
            "low": {
              "value": 38,
              "code": "%",
              "system": "http://unitsofmeasure.org"
            }
          },
          {
            "high": {
              "value": 56,
              "code": "%",
              "system": "http://unitsofmeasure.org"
            }
          }
        ],
        "text": {
          "status": "generated",
          "div": "<div xmlns=\"http://www.w3.org/1999/xhtml\"><table class=\"hl7__eu__lab__report\"><tr><th>Test</th><th>31-Oct-2020</th><th>Reference&#xA0;Range</th><th>Unit</th></tr><tr><td>Hematocrit [Volume Fraction] of Blood by Automated count</td><td>49.1</td><td>38 - 56</td><td></td><td>%</td></tr></table></div>"
        },
        "status": "final",
        "subject": {
          "reference": "urn:uuid:2d8e2ecd-dd16-4853-95b6-1434c425a1fb",
          "display": "Helene Andresen"
        },
        "effectiveDateTime": "2020-10-31T22:53:36Z",
        "specimen": {
          "reference": "urn:uuid:627b6c4e-f0f1-465a-845f-1b6b5813b393"
        }
      }
    },
    {
      "fullUrl": "urn:uuid:7008d345-7f22-498d-9a6b-b18dcea9789c",
      "resource": {
        "resourceType": "Observation",
        "id": "7008d345-7f22-498d-9a6b-b18dcea9789c",
        "meta": {
          "profile": [
            "http://hl7.eu/fhir/laboratory/StructureDefinition/Observation-resultslab-eu-lab"
          ]
        },
        "performer": [
          {
            "display": "The Central European Lab"
          }
        ],
        "category": [
          {
            "coding": [
              {
                "system": "http://terminology.hl7.org/CodeSystem/observation-category",
                "code": "laboratory"
              }
            ]
          }
        ],
        "code": {
          "coding": [
            {
              "code": "787-2",
              "system": "http://loinc.org",
              "display": "MCV [Entitic volume] by Automated count"
            }
          ],
          "text": "MCV [Entitic volume] by Automated count"
        },
        "valueQuantity": {
          "system": "http://unitsofmeasure.org",
          "value": 88.3,
          "unit": "fL",
          "code": "fL"
        },
        "referenceRange": [
          {
            "low": {
              "value": 78,
              "code": "fL",
              "system": "http://unitsofmeasure.org"
            }
          },
          {
            "high": {
              "value": 98,
              "code": "fL",
              "system": "http://unitsofmeasure.org"
            }
          }
        ],
        "text": {
          "status": "generated",
          "div": "<div xmlns=\"http://www.w3.org/1999/xhtml\"><table class=\"hl7__eu__lab__report\"><tr><th>Test</th><th>31-Oct-2020</th><th>Reference&#xA0;Range</th><th>Unit</th></tr><tr><td>MCV [Entitic volume] by Automated count</td><td>88.3</td><td>78 - 98</td><td></td><td>fL</td></tr></table></div>"
        },
        "status": "final",
        "subject": {
          "reference": "urn:uuid:2d8e2ecd-dd16-4853-95b6-1434c425a1fb",
          "display": "Helene Andresen"
        },
        "effectiveDateTime": "2020-10-31T22:53:36Z",
        "specimen": {
          "reference": "urn:uuid:627b6c4e-f0f1-465a-845f-1b6b5813b393"
        }
      }
    },
    {
      "fullUrl": "urn:uuid:e0360ea0-338d-4c0e-a485-8793c64f9e4f",
      "resource": {
        "resourceType": "Observation",
        "id": "e0360ea0-338d-4c0e-a485-8793c64f9e4f",
        "meta": {
          "profile": [
            "http://hl7.eu/fhir/laboratory/StructureDefinition/Observation-resultslab-eu-lab"
          ]
        },
        "performer": [
          {
            "display": "The Central European Lab"
          }
        ],
        "category": [
          {
            "coding": [
              {
                "system": "http://terminology.hl7.org/CodeSystem/observation-category",
                "code": "laboratory"
              }
            ]
          }
        ],
        "code": {
          "coding": [
            {
              "code": "785-6",
              "system": "http://loinc.org",
              "display": "MCH [Entitic mass] by Automated count"
            }
          ],
          "text": "MCH [Entitic mass] by Automated count"
        },
        "valueQuantity": {
          "system": "http://unitsofmeasure.org",
          "value": 31.7,
          "unit": "pg",
          "code": "pg"
        },
        "referenceRange": [
          {
            "low": {
              "value": 27,
              "code": "pg",
              "system": "http://unitsofmeasure.org"
            }
          },
          {
            "high": {
              "value": 34,
              "code": "pg",
              "system": "http://unitsofmeasure.org"
            }
          }
        ],
        "text": {
          "status": "generated",
          "div": "<div xmlns=\"http://www.w3.org/1999/xhtml\"><table class=\"hl7__eu__lab__report\"><tr><th>Test</th><th>31-Oct-2020</th><th>Reference&#xA0;Range</th><th>Unit</th></tr><tr><td>MCH [Entitic mass] by Automated count</td><td>31.7</td><td>27 - 34</td><td></td><td>pg</td></tr></table></div>"
        },
        "status": "final",
        "subject": {
          "reference": "urn:uuid:2d8e2ecd-dd16-4853-95b6-1434c425a1fb",
          "display": "Helene Andresen"
        },
        "effectiveDateTime": "2020-10-31T22:53:36Z",
        "specimen": {
          "reference": "urn:uuid:627b6c4e-f0f1-465a-845f-1b6b5813b393"
        }
      }
    },
    {
      "fullUrl": "urn:uuid:fc78ebca-56cd-4885-b425-e1e69478fb41",
      "resource": {
        "resourceType": "Observation",
        "id": "fc78ebca-56cd-4885-b425-e1e69478fb41",
        "meta": {
          "profile": [
            "http://hl7.eu/fhir/laboratory/StructureDefinition/Observation-resultslab-eu-lab"
          ]
        },
        "performer": [
          {
            "display": "The Central European Lab"
          }
        ],
        "category": [
          {
            "coding": [
              {
                "system": "http://terminology.hl7.org/CodeSystem/observation-category",
                "code": "laboratory"
              }
            ]
          }
        ],
        "code": {
          "coding": [
            {
              "code": "786-4",
              "system": "http://loinc.org",
              "display": "MCHC [Mass/volume] by Automated count"
            }
          ],
          "text": "MCHC [Mass/volume] by Automated count"
        },
        "valueQuantity": {
          "system": "http://unitsofmeasure.org",
          "value": 35.6,
          "unit": "g/dL",
          "code": "g/dL"
        },
        "referenceRange": [
          {
            "low": {
              "value": 31,
              "code": "g/dL",
              "system": "http://unitsofmeasure.org"
            }
          },
          {
            "high": {
              "value": 36,
              "code": "g/dL",
              "system": "http://unitsofmeasure.org"
            }
          }
        ],
        "text": {
          "status": "generated",
          "div": "<div xmlns=\"http://www.w3.org/1999/xhtml\"><table class=\"hl7__eu__lab__report\"><tr><th>Test</th><th>31-Oct-2020</th><th>Reference&#xA0;Range</th><th>Unit</th></tr><tr><td>MCHC [Mass/volume] by Automated count</td><td>35.6</td><td>31 - 36</td><td></td><td>g/dL</td></tr></table></div>"
        },
        "status": "final",
        "subject": {
          "reference": "urn:uuid:2d8e2ecd-dd16-4853-95b6-1434c425a1fb",
          "display": "Helene Andresen"
        },
        "effectiveDateTime": "2020-10-31T22:53:36Z",
        "specimen": {
          "reference": "urn:uuid:627b6c4e-f0f1-465a-845f-1b6b5813b393"
        }
      }
    },
    {
      "fullUrl": "urn:uuid:f91bc5c7-f75a-4754-800a-ca433a8fab97",
      "resource": {
        "resourceType": "Observation",
        "id": "f91bc5c7-f75a-4754-800a-ca433a8fab97",
        "meta": {
          "profile": [
            "http://hl7.eu/fhir/laboratory/StructureDefinition/Observation-resultslab-eu-lab"
          ]
        },
        "performer": [
          {
            "display": "The Central European Lab"
          }
        ],
        "category": [
          {
            "coding": [
              {
                "system": "http://terminology.hl7.org/CodeSystem/observation-category",
                "code": "laboratory"
              }
            ]
          }
        ],
        "code": {
          "coding": [
            {
              "code": "21000-5",
              "system": "http://loinc.org",
              "display": "Erythrocyte distribution width [Entitic volume] by Automated count"
            }
          ],
          "text": "Erythrocyte distribution width [Entitic volume] by Automated count"
        },
        "valueQuantity": {
          "system": "http://unitsofmeasure.org",
          "value": 44.7,
          "unit": "fL",
          "code": "fL"
        },
        "referenceRange": [
          {
            "low": {
              "value": 36,
              "code": "fL",
              "system": "http://unitsofmeasure.org"
            }
          },
          {
            "high": {
              "value": 55,
              "code": "fL",
              "system": "http://unitsofmeasure.org"
            }
          }
        ],
        "text": {
          "status": "generated",
          "div": "<div xmlns=\"http://www.w3.org/1999/xhtml\"><table class=\"hl7__eu__lab__report\"><tr><th>Test</th><th>31-Oct-2020</th><th>Reference&#xA0;Range</th><th>Unit</th></tr><tr><td>Erythrocyte distribution width [Entitic volume] by Automated count</td><td>44.7</td><td>36 - 55</td><td></td><td>fL</td></tr></table></div>"
        },
        "status": "final",
        "subject": {
          "reference": "urn:uuid:2d8e2ecd-dd16-4853-95b6-1434c425a1fb",
          "display": "Helene Andresen"
        },
        "effectiveDateTime": "2020-10-31T22:53:36Z",
        "specimen": {
          "reference": "urn:uuid:627b6c4e-f0f1-465a-845f-1b6b5813b393"
        }
      }
    },
    {
      "fullUrl": "urn:uuid:729881d5-4162-42f2-9f83-bf237412a2d0",
      "resource": {
        "resourceType": "Observation",
        "id": "729881d5-4162-42f2-9f83-bf237412a2d0",
        "meta": {
          "profile": [
            "http://hl7.eu/fhir/laboratory/StructureDefinition/Observation-resultslab-eu-lab"
          ]
        },
        "performer": [
          {
            "display": "The Central European Lab"
          }
        ],
        "category": [
          {
            "coding": [
              {
                "system": "http://terminology.hl7.org/CodeSystem/observation-category",
                "code": "laboratory"
              }
            ]
          }
        ],
        "code": {
          "coding": [
            {
              "code": "777-3",
              "system": "http://loinc.org",
              "display": "Platelets [#/volume] in Blood by Automated count"
            }
          ],
          "text": "Platelets [#/volume] in Blood by Automated count"
        },
        "valueQuantity": {
          "system": "http://unitsofmeasure.org",
          "value": 439.8,
          "unit": "10*3/uL",
          "code": "10*3/uL"
        },
        "referenceRange": [
          {
            "low": {
              "value": 150,
              "code": "10*3/uL",
              "system": "http://unitsofmeasure.org"
            }
          },
          {
            "high": {
              "value": 450,
              "code": "10*3/uL",
              "system": "http://unitsofmeasure.org"
            }
          }
        ],
        "text": {
          "status": "generated",
          "div": "<div xmlns=\"http://www.w3.org/1999/xhtml\"><table class=\"hl7__eu__lab__report\"><tr><th>Test</th><th>31-Oct-2020</th><th>Reference&#xA0;Range</th><th>Unit</th></tr><tr><td>Platelets [#/volume] in Blood by Automated count</td><td>439.8</td><td>150 - 450</td><td></td><td>10*3/uL</td></tr></table></div>"
        },
        "status": "final",
        "subject": {
          "reference": "urn:uuid:2d8e2ecd-dd16-4853-95b6-1434c425a1fb",
          "display": "Helene Andresen"
        },
        "effectiveDateTime": "2020-10-31T22:53:36Z",
        "specimen": {
          "reference": "urn:uuid:627b6c4e-f0f1-465a-845f-1b6b5813b393"
        }
      }
    },
    {
      "fullUrl": "urn:uuid:a63d411a-d91a-4510-a253-dd047a722f25",
      "resource": {
        "resourceType": "Observation",
        "id": "a63d411a-d91a-4510-a253-dd047a722f25",
        "meta": {
          "profile": [
            "http://hl7.eu/fhir/laboratory/StructureDefinition/Observation-resultslab-eu-lab"
          ]
        },
        "performer": [
          {
            "display": "The Central European Lab"
          }
        ],
        "category": [
          {
            "coding": [
              {
                "system": "http://terminology.hl7.org/CodeSystem/observation-category",
                "code": "laboratory"
              }
            ]
          }
        ],
        "code": {
          "coding": [
            {
              "code": "32207-3",
              "system": "http://loinc.org",
              "display": "Platelet distribution width [Entitic volume] in Blood by Automated count"
            }
          ],
          "text": "Platelet distribution width [Entitic volume] in Blood by Automated count"
        },
        "valueQuantity": {
          "system": "http://unitsofmeasure.org",
          "value": 321.2,
          "unit": "fL",
          "code": "fL"
        },
        "referenceRange": [
          {
            "low": {
              "value": 11.6,
              "code": "fL",
              "system": "http://unitsofmeasure.org"
            }
          },
          {
            "high": {
              "value": 17.4,
              "code": "fL",
              "system": "http://unitsofmeasure.org"
            }
          }
        ],
        "interpretation": [
          {
            "coding": [
              {
                "code": "H",
                "system": "http://terminology.hl7.org/CodeSystem/v3-ObservationInterpretation",
                "display": "High"
              }
            ]
          }
        ],
        "text": {
          "status": "generated",
          "div": "<div xmlns=\"http://www.w3.org/1999/xhtml\"><table class=\"hl7__eu__lab__report\"><tr><th>Test</th><th>31-Oct-2020</th><th>Reference&#xA0;Range</th><th>Unit</th></tr><tr><td>Platelet distribution width [Entitic volume] in Blood by Automated count</td><td>321.2</td><td>11.6 - 17.4</td><td>H</td><td>fL</td></tr></table></div>"
        },
        "status": "final",
        "subject": {
          "reference": "urn:uuid:2d8e2ecd-dd16-4853-95b6-1434c425a1fb",
          "display": "Helene Andresen"
        },
        "effectiveDateTime": "2020-10-31T22:53:36Z",
        "specimen": {
          "reference": "urn:uuid:627b6c4e-f0f1-465a-845f-1b6b5813b393"
        }
      }
    },
    {
      "fullUrl": "urn:uuid:5de4566d-d5dd-469f-96a3-3b280a1ef94a",
      "resource": {
        "resourceType": "Observation",
        "id": "5de4566d-d5dd-469f-96a3-3b280a1ef94a",
        "meta": {
          "profile": [
            "http://hl7.eu/fhir/laboratory/StructureDefinition/Observation-resultslab-eu-lab"
          ]
        },
        "performer": [
          {
            "display": "The Central European Lab"
          }
        ],
        "category": [
          {
            "coding": [
              {
                "system": "http://terminology.hl7.org/CodeSystem/observation-category",
                "code": "laboratory"
              }
            ]
          }
        ],
        "code": {
          "coding": [
            {
              "code": "32623-1",
              "system": "http://loinc.org",
              "display": "Platelet mean volume [Entitic volume] in Blood by Automated count"
            }
          ],
          "text": "Platelet mean volume [Entitic volume] in Blood by Automated count"
        },
        "valueQuantity": {
          "system": "http://unitsofmeasure.org",
          "value": 12.3,
          "unit": "fL",
          "code": "fL"
        },
        "referenceRange": [
          {
            "low": {
              "value": 7.2,
              "code": "fL",
              "system": "http://unitsofmeasure.org"
            }
          },
          {
            "high": {
              "value": 13.5,
              "code": "fL",
              "system": "http://unitsofmeasure.org"
            }
          }
        ],
        "text": {
          "status": "generated",
          "div": "<div xmlns=\"http://www.w3.org/1999/xhtml\"><table class=\"hl7__eu__lab__report\"><tr><th>Test</th><th>31-Oct-2020</th><th>Reference&#xA0;Range</th><th>Unit</th></tr><tr><td>Platelet mean volume [Entitic volume] in Blood by Automated count</td><td>12.3</td><td>7.2 - 13.5</td><td></td><td>fL</td></tr></table></div>"
        },
        "status": "final",
        "subject": {
          "reference": "urn:uuid:2d8e2ecd-dd16-4853-95b6-1434c425a1fb",
          "display": "Helene Andresen"
        },
        "effectiveDateTime": "2020-10-31T22:53:36Z",
        "specimen": {
          "reference": "urn:uuid:627b6c4e-f0f1-465a-845f-1b6b5813b393"
        }
      }
    },
    {
      "fullUrl": "urn:uuid:325dfada-1777-45e9-b376-616296f86f7f",
      "resource": {
        "resourceType": "Device",
        "id": "325dfada-1777-45e9-b376-616296f86f7f",
        "deviceName": [
          {
            "name": "SYNDERAI Synthetic Generator",
            "type": "manufacturer-name"
          }
        ],
        "version": [
          {
            "value": "5.0"
          }
        ],
        "text": {
          "status": "generated",
          "div": "<div xmlns=\"http://www.w3.org/1999/xhtml\">SYNDERAI Synthetic Generator v5.0</div>"
        },
        "status": "active\"",
        "distinctIdentifier": "synderai-generator-50",
        "manufacturer": "SYNDERAI Project"
      }
    },
    {
      "fullUrl": "urn:uuid:e07ceae1-9dbf-485f-b5bd-dc0660b06711",
      "resource": {
        "resourceType": "Provenance",
        "id": "e07ceae1-9dbf-485f-b5bd-dc0660b06711",
        "target": [
          {
            "reference": "Patient/2d8e2ecd-dd16-4853-95b6-1434c425a1fb"
          },
          {
            "reference": "Bundle/0fca5569-ff31-458d-af5f-b91746ee0aed"
          },
          {
            "reference": "Composition/2f41595c-681d-48ff-9384-61c07e31b24f"
          },
          {
            "reference": "PractitionerRole/122af476-1649-4f0e-8f4b-4aa1414601ea"
          },
          {
            "reference": "Practitioner/db3c9715-0494-47ea-bd94-572fb425f4b9"
          },
          {
            "reference": "PractitionerRole/2c2a1511-be9c-4b0b-b374-138c59cd090b"
          },
          {
            "reference": "Organization/5eab4e79-c5bd-48a8-9c1a-9295bded3c38"
          }
        ],
        "activity": {
          "text": "Synthetic Example Data Generation"
        },
        "policy": [
          "https://synderai.net/synderai-synthetic-data-policy"
        ],
        "agent": [
          {
            "type": {
              "text": "author"
            },
            "who": {
              "reference": "Device/325dfada-1777-45e9-b376-616296f86f7f"
            }
          }
        ],
        "reason": [
          {
            "text": "Interoperability Testing and Training (non-clinical use)"
          }
        ],
        "text": {
          "status": "generated",
          "div": "<div xmlns=\"http://www.w3.org/1999/xhtml\">Provenance for SYNDERAI Synthetic Example Data Resource</div>"
        },
        "recorded": "2020-10-31T23:53:36Z"
      }
    },
    {
      "fullUrl": "urn:uuid:122af476-1649-4f0e-8f4b-4aa1414601ea",
      "resource": {
        "resourceType": "PractitionerRole",
        "id": "122af476-1649-4f0e-8f4b-4aa1414601ea",
        "meta": {
          "profile": [
            "http://hl7.eu/fhir/base/StructureDefinition/practitionerRole-eu"
          ]
        },
        "text": {
          "status": "generated",
          "div": "<div xmlns=\"http://www.w3.org/1999/xhtml\">Laboratory Role Id: 122af476-1649-4f0e-8f4b-4aa1414601ea</div>"
        },
        "practitioner": {
          "reference": "urn:uuid:db3c9715-0494-47ea-bd94-572fb425f4b9"
        }
      }
    },
    {
      "fullUrl": "urn:uuid:db3c9715-0494-47ea-bd94-572fb425f4b9",
      "resource": {
        "resourceType": "Practitioner",
        "id": "db3c9715-0494-47ea-bd94-572fb425f4b9",
        "meta": {
          "profile": [
            "http://hl7.eu/fhir/base/StructureDefinition/practitioner-eu"
          ]
        },
        "identifier": [
          {
            "assigner": {
              "display": "HL7 Europe"
            },
            "system": "urn:oid:2.16.840.1.113883.2.51.999",
            "value": "5b4a82fb-7595-4ec5-b6a0-cc70b58abfd0"
          }
        ],
        "name": [
          {
            "prefix": [
              "dr"
            ],
            "given": [
              "Ex"
            ],
            "family": "Ample"
          }
        ],
        "address": [
          {
            "line": [
              "Laboratoire Central Européenne",
              "Boulevard du Jardin Botanique 32"
            ],
            "postalCode": "1000",
            "city": "Brussels",
            "country": "Belgium"
          }
        ],
        "text": {
          "status": "generated",
          "div": "<div xmlns=\"http://www.w3.org/1999/xhtml\">Laboratory: Laboratoire Central Européenne, 1000 Brussels, Belgium</div>"
        }
      }
    }
  ],
  "type": "document",
  "timestamp": "2020-10-31T23:53:36Z"
}
