{
  "resourceType": "Bundle",
  "id": "32645170-d360-431e-933d-8a42e8f13d40",
  "meta": {
    "profile": [
      "http://hl7.eu/fhir/laboratory/StructureDefinition/Bundle-eu-lab"
    ]
  },
  "identifier": {
    "assigner": {
      "display": "HL7 Europe"
    },
    "system": "urn:oid:2.16.840.1.113883.2.51.999",
    "value": "3cda72f0-75a6-4d48-a536-39440c10930a"
  },
  "entry": [
    {
      "fullUrl": "urn:uuid:433790a8-9c44-4e90-9e16-c86fef9c8c2c",
      "resource": {
        "resourceType": "Composition",
        "id": "433790a8-9c44-4e90-9e16-c86fef9c8c2c",
        "meta": {
          "profile": [
            "http://hl7.eu/fhir/laboratory/StructureDefinition/Composition-eu-lab"
          ]
        },
        "identifier": {
          "assigner": {
            "display": "HL7 Europe"
          },
          "system": "urn:oid:2.16.840.1.113883.2.51.999",
          "value": "ef040006-5a79-4ca1-b9a9-b89f777d6a90"
        },
        "author": [
          {
            "reference": "urn:uuid:67965fd6-77d2-49f8-8ed9-60f273e7c14b"
          }
        ],
        "category": [
          {
            "coding": [
              {
                "code": "26436-6",
                "system": "http://loinc.org",
                "display": "Laboratory studies (set)"
              }
            ]
          }
        ],
        "type": {
          "coding": [
            {
              "code": "11502-2",
              "system": "http://loinc.org",
              "display": "Laboratory report"
            }
          ],
          "text": "Laboratory Report"
        },
        "section": [
          {
            "code": {
              "coding": [
                {
                  "code": "26436-6",
                  "system": "http://loinc.org",
                  "display": "Laboratory studies (set)"
                }
              ],
              "text": "Laboratory studies"
            },
            "section": [
              {
                "code": {
                  "coding": [
                    {
                      "code": "$18723-7",
                      "system": "http://loinc.org",
                      "display": "Hematology studies (set)"
                    }
                  ],
                  "text": "Hematology"
                },
                "entry": [
                  {
                    "reference": "urn:uuid:09d81079-2319-419e-9dfe-88e5ea2f018d"
                  },
                  {
                    "reference": "urn:uuid:d21e8d2a-d318-42b2-9002-d6ed30454839"
                  },
                  {
                    "reference": "urn:uuid:93acabe0-6049-456e-b4cf-5494a9c9ee4c"
                  },
                  {
                    "reference": "urn:uuid:f8e616a3-c9dd-4940-b36c-edb7d6ed2e46"
                  },
                  {
                    "reference": "urn:uuid:4494ed95-21e0-4c16-b7c9-837f06724929"
                  },
                  {
                    "reference": "urn:uuid:fc56cd23-f65a-4a79-957e-4d4d147d4a64"
                  },
                  {
                    "reference": "urn:uuid:eb8cf850-1db4-4764-b299-d9ad13fb5587"
                  },
                  {
                    "reference": "urn:uuid:dbdda21b-3270-4636-852f-f64dc2bcfbde"
                  },
                  {
                    "reference": "urn:uuid:4367ffa1-27a1-4464-bb92-86e36092b0d9"
                  },
                  {
                    "reference": "urn:uuid:24486f60-6f96-4a68-a3ea-033211f81f23"
                  },
                  {
                    "reference": "urn:uuid:72c4e55b-3efa-4c44-9a66-9fdc70c9f15a"
                  }
                ],
                "text": {
                  "status": "generated",
                  "div": "<div xmlns=\"http://www.w3.org/1999/xhtml\"><h3>Hematology</h3><table class=\"hl7__eu__lab__report\"><thead><tr><th>Test</th><th>29-MAY-2023</th><th>Reference&#xA0;Range</th><th>Unit</th></tr></thead><tbody><tr><td>Hemoglobin [Mass/volume] in Blood</td><td><strong>11.6 L</strong></td><td>13.5 - 17.5</td><td>g/dL</td></tr><tr><td>Hematocrit [Volume Fraction] of Blood</td><td><strong>31.3 L</strong></td><td>39 - 53</td><td>%</td></tr><tr><td>Leukocytes [#/volume] in Blood by Automated count</td><td>9.1</td><td>3.4 - 10.6</td><td>10*3/uL</td></tr><tr><td>Erythrocytes [#/volume] in Blood by Automated count</td><td><strong>4.0 L</strong></td><td>4.2 - 6.2</td><td>10*6/uL</td></tr><tr><td>MCV [Entitic volume] by Automated count</td><td>90.1</td><td>82 - 98</td><td>fL</td></tr><tr><td>MCH [Entitic mass] by Automated count</td><td>28.7</td><td>27 - 33</td><td>pg</td></tr><tr><td>MCHC [Mass/volume] by Automated count</td><td>33.2</td><td>31 - 35</td><td>g/dL</td></tr><tr><td>Erythrocyte distribution width [Entitic volume] by Automated count</td><td>43.7</td><td>39 - 55</td><td>fL</td></tr><tr><td>Platelets [#/volume] in Blood by Automated count</td><td>207.3</td><td>140 - 363</td><td>10*3/uL</td></tr><tr><td>Platelet distribution width [Entitic volume] in Blood by Automated count</td><td><strong>516.4 H</strong></td><td>13.4 - 17.4</td><td>fL</td></tr><tr><td>Platelet mean volume [Entitic volume] in Blood by Automated count</td><td>10.7</td><td>7.4 - 12</td><td>fL</td></tr></tbody></table></div>"
                },
                "title": "Hematology"
              }
            ],
            "title": "Laboratory Report"
          },
          {
            "text": {
              "status": "generated",
              "div": "<div xmlns=\"http://www.w3.org/1999/xhtml\"><h3>Annotation</h3><table class=\"hl7__eu__lab__report\"><tr><th>Conclusion and Recommendations based on this report and previous findings known to us</th></tr><tr><td>The patient shows mild normocytic, normochromic anemia (low hemoglobin, hematocrit, and erythrocyte count with normal MCV and MCH), which may suggest chronic disease or early iron deficiency. Platelet count is normal, but platelet distribution width is elevated, possibly indicating increased platelet size variability, which can be seen in various reactive or hematologic conditions. Further clinical correlation and investigation are recommended.</td></tr></table></div>"
            },
            "code": {
              "coding": [
                {
                  "system": "http://loinc.org",
                  "code": "48767-8",
                  "display": "Annotation comment"
                }
              ]
            },
            "title": "Annotation comment"
          }
        ],
        "status": "final",
        "subject": {
          "reference": "urn:uuid:b7611c99-19ae-4784-9b0d-011f5bd6aad9",
          "display": "Gioele Fabbri"
        },
        "date": "2023-05-29T17:46:20Z",
        "title": "Laboratory Report",
        "confidentiality": "N"
      }
    },
    {
      "fullUrl": "urn:uuid:d853c240-db51-448c-ba53-3985c5d66407",
      "resource": {
        "resourceType": "DiagnosticReport",
        "id": "d853c240-db51-448c-ba53-3985c5d66407",
        "meta": {
          "profile": [
            "http://hl7.eu/fhir/laboratory/StructureDefinition/DiagnosticReport-eu-lab"
          ]
        },
        "identifier": [
          {
            "assigner": {
              "display": "HL7 Europe"
            },
            "system": "urn:oid:2.16.840.1.113883.2.51.999",
            "value": "b4da60bc-f542-47ca-b8f2-19924b54f526"
          }
        ],
        "extension": [
          {
            "url": "http://hl7.org/fhir/5.0/StructureDefinition/extension-DiagnosticReport.composition",
            "valueReference": {
              "reference": "urn:uuid:ef040006-5a79-4ca1-b9a9-b89f777d6a90"
            }
          }
        ],
        "category": [
          {
            "coding": [
              {
                "code": "26436-6",
                "system": "http://loinc.org",
                "display": "Laboratory studies (set)"
              }
            ]
          }
        ],
        "specimen": [
          {
            "reference": "urn:uuid:e0ecf640-cd56-4631-9b0b-bde42c4b31fa"
          },
          {
            "reference": "urn:uuid:e0ecf640-cd56-4631-9b0b-bde42c4b31fa"
          }
        ],
        "result": [
          {
            "reference": "urn:uuid:09d81079-2319-419e-9dfe-88e5ea2f018d"
          },
          {
            "reference": "urn:uuid:d21e8d2a-d318-42b2-9002-d6ed30454839"
          },
          {
            "reference": "urn:uuid:93acabe0-6049-456e-b4cf-5494a9c9ee4c"
          },
          {
            "reference": "urn:uuid:f8e616a3-c9dd-4940-b36c-edb7d6ed2e46"
          },
          {
            "reference": "urn:uuid:4494ed95-21e0-4c16-b7c9-837f06724929"
          },
          {
            "reference": "urn:uuid:fc56cd23-f65a-4a79-957e-4d4d147d4a64"
          },
          {
            "reference": "urn:uuid:eb8cf850-1db4-4764-b299-d9ad13fb5587"
          },
          {
            "reference": "urn:uuid:dbdda21b-3270-4636-852f-f64dc2bcfbde"
          },
          {
            "reference": "urn:uuid:4367ffa1-27a1-4464-bb92-86e36092b0d9"
          },
          {
            "reference": "urn:uuid:24486f60-6f96-4a68-a3ea-033211f81f23"
          },
          {
            "reference": "urn:uuid:72c4e55b-3efa-4c44-9a66-9fdc70c9f15a"
          }
        ],
        "status": "registered",
        "code": {
          "coding": [
            {
              "code": "11502-2",
              "system": "http://loinc.org",
              "display": "Laboratory report"
            }
          ]
        },
        "subject": {
          "reference": "urn:uuid:b7611c99-19ae-4784-9b0d-011f5bd6aad9",
          "display": "Gioele Fabbri"
        }
      }
    },
    {
      "fullUrl": "urn:uuid:b7611c99-19ae-4784-9b0d-011f5bd6aad9",
      "resource": {
        "resourceType": "Patient",
        "id": "b7611c99-19ae-4784-9b0d-011f5bd6aad9",
        "meta": {
          "security": [
            {
              "system": "http://terminology.hl7.org/CodeSystem/v3-ActReason",
              "code": "HTEST"
            },
            {
              "system": "http://terminology.hl7.org/CodeSystem/v3-ActReason",
              "code": "TRAIN"
            }
          ],
          "tag": [
            {
              "system": "https://synderai.net/fhir/CodeSystem/tags",
              "code": "synthetic",
              "display": "SYNDERAI Synthetic data"
            }
          ],
          "profile": [
            "http://hl7.eu/fhir/base/StructureDefinition/patient-eu-core"
          ]
        },
        "identifier": [
          {
            "type": {
              "coding": [
                {
                  "code": "PT",
                  "system": "http://terminology.hl7.org/CodeSystem/v2-0203"
                }
              ]
            },
            "system": "http://ec.europa.eu/identifier/eci",
            "value": "3631-767680-1"
          },
          {
            "type": {
              "coding": [
                {
                  "code": "MR",
                  "system": "http://terminology.hl7.org/CodeSystem/v2-0203"
                }
              ]
            },
            "system": "http://local.setting.eu/identifier",
            "value": "0a14935e-e0f7-2e1e-46fa-42b10e75d1f9"
          }
        ],
        "name": [
          {
            "family": "Fabbri"
          },
          {
            "given": [
              "Gioele"
            ]
          },
          {
            "text": "Gioele Fabbri"
          }
        ],
        "address": [
          {
            "line": [
              "Canale Armani, 25"
            ],
            "use": "home",
            "type": "physical",
            "postalCode": "23887",
            "city": "Revislate",
            "country": "Italy"
          }
        ],
        "telecom": [
          {
            "system": "phone",
            "value": "+39 0423197768"
          }
        ],
        "extension": [
          {
            "url": "http://hl7.org/fhir/StructureDefinition/patient-nationality",
            "valueCodeableConcept": {
              "coding": [
                {
                  "code": "IT",
                  "system": "http://hl7.org/fhir/ValueSet/country"
                }
              ]
            }
          }
        ],
        "text": {
          "status": "generated",
          "div": "<div xmlns=\"http://www.w3.org/1999/xhtml\"><table class=\"hl7__ips\"><tr><td>Gioele Fabbri</td><td>male</td><td>12-Sep-1972</td></tr></table></div>"
        },
        "gender": "male",
        "birthDate": "1972-09-12"
      }
    },
    {
      "fullUrl": "urn:uuid:4dea8cdb-18d3-46ac-9f30-0594a6dd48e2",
      "resource": {
        "resourceType": "ServiceRequest",
        "id": "4dea8cdb-18d3-46ac-9f30-0594a6dd48e2",
        "meta": {
          "profile": [
            "http://hl7.eu/fhir/laboratory/StructureDefinition/ServiceRequest-eu-lab"
          ]
        },
        "identifier": [
          {
            "system": "http://example.org",
            "value": "fb3c5a8a-ead5-473d-9018-6b8e1a88a423"
          }
        ],
        "specimen": [
          {
            "reference": "urn:uuid:e0ecf640-cd56-4631-9b0b-bde42c4b31fa"
          }
        ],
        "reasonCode": [
          {
            "coding": [
              {
                "code": "271737000",
                "system": "http://snomed.info/sct",
                "display": "Anemia"
              }
            ]
          },
          {
            "coding": [
              {
                "code": "15777000",
                "system": "http://snomed.info/sct",
                "display": "Prediabetes"
              }
            ]
          },
          {
            "coding": [
              {
                "code": "713197008",
                "system": "http://snomed.info/sct",
                "display": "Recurrent rectal polyp"
              }
            ]
          },
          {
            "coding": [
              {
                "code": "68496003",
                "system": "http://snomed.info/sct",
                "display": "Polyp of colon"
              }
            ]
          },
          {
            "coding": [
              {
                "code": "55822004",
                "system": "http://snomed.info/sct",
                "display": "Hyperlipidemia"
              }
            ]
          },
          {
            "coding": [
              {
                "code": "124171000119105",
                "system": "http://snomed.info/sct",
                "display": "Chronic intractable migraine without aura"
              }
            ]
          }
        ],
        "status": "active",
        "intent": "order",
        "code": {
          "coding": [
            {
              "code": "108252007",
              "system": "http://snomed.info/sct",
              "display": "Laboratory procedure"
            }
          ]
        },
        "subject": {
          "reference": "urn:uuid:b7611c99-19ae-4784-9b0d-011f5bd6aad9",
          "display": "Gioele Fabbri"
        },
        "requester": {
          "reference": "urn:uuid:8228c12e-5199-4254-84e6-99fb04dedbfe"
        }
      }
    },
    {
      "fullUrl": "urn:uuid:8228c12e-5199-4254-84e6-99fb04dedbfe",
      "resource": {
        "resourceType": "PractitionerRole",
        "id": "8228c12e-5199-4254-84e6-99fb04dedbfe",
        "meta": {
          "profile": [
            "http://hl7.eu/fhir/base/StructureDefinition/practitionerRole-eu"
          ]
        },
        "text": {
          "status": "generated",
          "div": "<div xmlns=\"http://www.w3.org/1999/xhtml\">Provider Role Id: 8228c12e-5199-4254-84e6-99fb04dedbfe</div>"
        },
        "organization": {
          "reference": "urn:uuid:4d5ce4c8-1fbf-4c1d-aaaa-f847c7d44dcb"
        }
      }
    },
    {
      "fullUrl": "urn:uuid:4d5ce4c8-1fbf-4c1d-aaaa-f847c7d44dcb",
      "resource": {
        "resourceType": "Organization",
        "id": "4d5ce4c8-1fbf-4c1d-aaaa-f847c7d44dcb",
        "meta": {
          "profile": [
            "http://hl7.eu/fhir/base/StructureDefinition/organization-eu"
          ]
        },
        "identifier": [
          {
            "assigner": {
              "display": "HL7 Europe"
            },
            "system": "urn:oid:2.16.840.1.113883.2.51.999",
            "value": "9d78bc41-7004-4634-8e4a-5f022d7f042e"
          }
        ],
        "address": [
          {
            "line": [
              "Piazza Ospedale 3"
            ],
            "city": "Calcinate",
            "postalCode": "24050",
            "country": "Italy"
          }
        ],
        "text": {
          "status": "generated",
          "div": "<div xmlns=\"http://www.w3.org/1999/xhtml\">Provider Organization: Ospedale di Calcinate &quot;F.M. Passi&quot;</div>"
        },
        "name": "Ospedale di Calcinate &quot;F.M. Passi&quot;"
      }
    },
    {
      "fullUrl": "urn:uuid:e0ecf640-cd56-4631-9b0b-bde42c4b31fa",
      "resource": {
        "resourceType": "Specimen",
        "id": "e0ecf640-cd56-4631-9b0b-bde42c4b31fa",
        "meta": {
          "profile": [
            "http://hl7.eu/fhir/laboratory/StructureDefinition/Specimen-eu-lab"
          ]
        },
        "collection": {
          "collectedDateTime": "2023-05-29"
        },
        "text": {
          "status": "generated",
          "div": "<div xmlns=\"http://www.w3.org/1999/xhtml\"><table class=\"hl7__eu__lab__report\"><tr><th>Specimen</th><th>Collection Date</th></tr><tr><td>Whole blood specimen (specimen)</td><td><span class=\"nb\">29-May-2023</span></td></tr></table></div>"
        },
        "type": {
          "coding": [
            {
              "code": "258580003",
              "system": "http://snomed.info/sct",
              "display": "Whole blood specimen (specimen)"
            }
          ]
        }
      }
    },
    {
      "fullUrl": "urn:uuid:e0ecf640-cd56-4631-9b0b-bde42c4b31fa",
      "resource": {
        "resourceType": "Specimen",
        "id": "e0ecf640-cd56-4631-9b0b-bde42c4b31fa",
        "meta": {
          "profile": [
            "http://hl7.eu/fhir/laboratory/StructureDefinition/Specimen-eu-lab"
          ]
        },
        "collection": {
          "collectedDateTime": "2023-05-29"
        },
        "text": {
          "status": "generated",
          "div": "<div xmlns=\"http://www.w3.org/1999/xhtml\"><table class=\"hl7__eu__lab__report\"><tr><th>Specimen</th><th>Collection Date</th></tr><tr><td>Whole blood specimen (specimen)</td><td><span class=\"nb\">29-May-2023</span></td></tr></table></div>"
        },
        "type": {
          "coding": [
            {
              "code": "258580003",
              "system": "http://snomed.info/sct",
              "display": "Whole blood specimen (specimen)"
            }
          ]
        }
      }
    },
    {
      "fullUrl": "urn:uuid:09d81079-2319-419e-9dfe-88e5ea2f018d",
      "resource": {
        "resourceType": "Observation",
        "id": "09d81079-2319-419e-9dfe-88e5ea2f018d",
        "meta": {
          "profile": [
            "http://hl7.eu/fhir/laboratory/StructureDefinition/Observation-resultslab-eu-lab"
          ]
        },
        "performer": [
          {
            "display": "The Central European Lab"
          }
        ],
        "category": [
          {
            "coding": [
              {
                "system": "http://terminology.hl7.org/CodeSystem/observation-category",
                "code": "laboratory"
              }
            ]
          }
        ],
        "code": {
          "coding": [
            {
              "code": "718-7",
              "system": "http://loinc.org",
              "display": "Hemoglobin [Mass/volume] in Blood"
            }
          ],
          "text": "Hemoglobin [Mass/volume] in Blood"
        },
        "valueQuantity": {
          "system": "http://unitsofmeasure.org",
          "value": 11.6,
          "unit": "g/dL",
          "code": "g/dL"
        },
        "referenceRange": [
          {
            "low": {
              "value": 13.5,
              "code": "g/dL",
              "system": "http://unitsofmeasure.org"
            }
          },
          {
            "high": {
              "value": 17.5,
              "code": "g/dL",
              "system": "http://unitsofmeasure.org"
            }
          }
        ],
        "interpretation": [
          {
            "coding": [
              {
                "code": "L",
                "system": "http://terminology.hl7.org/CodeSystem/v3-ObservationInterpretation",
                "display": "Low"
              }
            ]
          }
        ],
        "text": {
          "status": "generated",
          "div": "<div xmlns=\"http://www.w3.org/1999/xhtml\"><table class=\"hl7__eu__lab__report\"><tr><th>Test</th><th>29-May-2023</th><th>Reference&#xA0;Range</th><th>Unit</th></tr><tr><td>Hemoglobin [Mass/volume] in Blood</td><td>11.6</td><td>13.5 - 17.5</td><td>L</td><td>g/dL</td></tr></table></div>"
        },
        "status": "final",
        "subject": {
          "reference": "urn:uuid:b7611c99-19ae-4784-9b0d-011f5bd6aad9",
          "display": "Gioele Fabbri"
        },
        "effectiveDateTime": "2023-05-29T15:46:20Z",
        "specimen": {
          "reference": "urn:uuid:e0ecf640-cd56-4631-9b0b-bde42c4b31fa"
        }
      }
    },
    {
      "fullUrl": "urn:uuid:d21e8d2a-d318-42b2-9002-d6ed30454839",
      "resource": {
        "resourceType": "Observation",
        "id": "d21e8d2a-d318-42b2-9002-d6ed30454839",
        "meta": {
          "profile": [
            "http://hl7.eu/fhir/laboratory/StructureDefinition/Observation-resultslab-eu-lab"
          ]
        },
        "performer": [
          {
            "display": "The Central European Lab"
          }
        ],
        "category": [
          {
            "coding": [
              {
                "system": "http://terminology.hl7.org/CodeSystem/observation-category",
                "code": "laboratory"
              }
            ]
          }
        ],
        "code": {
          "coding": [
            {
              "code": "20570-8",
              "system": "http://loinc.org",
              "display": "Hematocrit [Volume Fraction] of Blood"
            }
          ],
          "text": "Hematocrit [Volume Fraction] of Blood"
        },
        "valueQuantity": {
          "system": "http://unitsofmeasure.org",
          "value": 31.3,
          "unit": "%",
          "code": "%"
        },
        "referenceRange": [
          {
            "low": {
              "value": 39,
              "code": "%",
              "system": "http://unitsofmeasure.org"
            }
          },
          {
            "high": {
              "value": 53,
              "code": "%",
              "system": "http://unitsofmeasure.org"
            }
          }
        ],
        "interpretation": [
          {
            "coding": [
              {
                "code": "L",
                "system": "http://terminology.hl7.org/CodeSystem/v3-ObservationInterpretation",
                "display": "Low"
              }
            ]
          }
        ],
        "text": {
          "status": "generated",
          "div": "<div xmlns=\"http://www.w3.org/1999/xhtml\"><table class=\"hl7__eu__lab__report\"><tr><th>Test</th><th>29-May-2023</th><th>Reference&#xA0;Range</th><th>Unit</th></tr><tr><td>Hematocrit [Volume Fraction] of Blood</td><td>31.3</td><td>39 - 53</td><td>L</td><td>%</td></tr></table></div>"
        },
        "status": "final",
        "subject": {
          "reference": "urn:uuid:b7611c99-19ae-4784-9b0d-011f5bd6aad9",
          "display": "Gioele Fabbri"
        },
        "effectiveDateTime": "2023-05-29T15:46:20Z",
        "specimen": {
          "reference": "urn:uuid:e0ecf640-cd56-4631-9b0b-bde42c4b31fa"
        }
      }
    },
    {
      "fullUrl": "urn:uuid:93acabe0-6049-456e-b4cf-5494a9c9ee4c",
      "resource": {
        "resourceType": "Observation",
        "id": "93acabe0-6049-456e-b4cf-5494a9c9ee4c",
        "meta": {
          "profile": [
            "http://hl7.eu/fhir/laboratory/StructureDefinition/Observation-resultslab-eu-lab"
          ]
        },
        "performer": [
          {
            "display": "The Central European Lab"
          }
        ],
        "category": [
          {
            "coding": [
              {
                "system": "http://terminology.hl7.org/CodeSystem/observation-category",
                "code": "laboratory"
              }
            ]
          }
        ],
        "code": {
          "coding": [
            {
              "code": "6690-2",
              "system": "http://loinc.org",
              "display": "Leukocytes [#/volume] in Blood by Automated count"
            }
          ],
          "text": "Leukocytes [#/volume] in Blood by Automated count"
        },
        "valueQuantity": {
          "system": "http://unitsofmeasure.org",
          "value": 9.1,
          "unit": "10*3/uL",
          "code": "10*3/uL"
        },
        "referenceRange": [
          {
            "low": {
              "value": 3.4,
              "code": "10*3/uL",
              "system": "http://unitsofmeasure.org"
            }
          },
          {
            "high": {
              "value": 10.6,
              "code": "10*3/uL",
              "system": "http://unitsofmeasure.org"
            }
          }
        ],
        "text": {
          "status": "generated",
          "div": "<div xmlns=\"http://www.w3.org/1999/xhtml\"><table class=\"hl7__eu__lab__report\"><tr><th>Test</th><th>29-May-2023</th><th>Reference&#xA0;Range</th><th>Unit</th></tr><tr><td>Leukocytes [#/volume] in Blood by Automated count</td><td>9.1</td><td>3.4 - 10.6</td><td></td><td>10*3/uL</td></tr></table></div>"
        },
        "status": "final",
        "subject": {
          "reference": "urn:uuid:b7611c99-19ae-4784-9b0d-011f5bd6aad9",
          "display": "Gioele Fabbri"
        },
        "effectiveDateTime": "2023-05-29T15:46:20Z",
        "specimen": {
          "reference": "urn:uuid:e0ecf640-cd56-4631-9b0b-bde42c4b31fa"
        }
      }
    },
    {
      "fullUrl": "urn:uuid:f8e616a3-c9dd-4940-b36c-edb7d6ed2e46",
      "resource": {
        "resourceType": "Observation",
        "id": "f8e616a3-c9dd-4940-b36c-edb7d6ed2e46",
        "meta": {
          "profile": [
            "http://hl7.eu/fhir/laboratory/StructureDefinition/Observation-resultslab-eu-lab"
          ]
        },
        "performer": [
          {
            "display": "The Central European Lab"
          }
        ],
        "category": [
          {
            "coding": [
              {
                "system": "http://terminology.hl7.org/CodeSystem/observation-category",
                "code": "laboratory"
              }
            ]
          }
        ],
        "code": {
          "coding": [
            {
              "code": "789-8",
              "system": "http://loinc.org",
              "display": "Erythrocytes [#/volume] in Blood by Automated count"
            }
          ],
          "text": "Erythrocytes [#/volume] in Blood by Automated count"
        },
        "valueQuantity": {
          "system": "http://unitsofmeasure.org",
          "value": 4,
          "unit": "10*6/uL",
          "code": "10*6/uL"
        },
        "referenceRange": [
          {
            "low": {
              "value": 4.2,
              "code": "10*6/uL",
              "system": "http://unitsofmeasure.org"
            }
          },
          {
            "high": {
              "value": 6.2,
              "code": "10*6/uL",
              "system": "http://unitsofmeasure.org"
            }
          }
        ],
        "interpretation": [
          {
            "coding": [
              {
                "code": "L",
                "system": "http://terminology.hl7.org/CodeSystem/v3-ObservationInterpretation",
                "display": "Low"
              }
            ]
          }
        ],
        "text": {
          "status": "generated",
          "div": "<div xmlns=\"http://www.w3.org/1999/xhtml\"><table class=\"hl7__eu__lab__report\"><tr><th>Test</th><th>29-May-2023</th><th>Reference&#xA0;Range</th><th>Unit</th></tr><tr><td>Erythrocytes [#/volume] in Blood by Automated count</td><td>4.0</td><td>4.2 - 6.2</td><td>L</td><td>10*6/uL</td></tr></table></div>"
        },
        "status": "final",
        "subject": {
          "reference": "urn:uuid:b7611c99-19ae-4784-9b0d-011f5bd6aad9",
          "display": "Gioele Fabbri"
        },
        "effectiveDateTime": "2023-05-29T15:46:20Z",
        "specimen": {
          "reference": "urn:uuid:e0ecf640-cd56-4631-9b0b-bde42c4b31fa"
        }
      }
    },
    {
      "fullUrl": "urn:uuid:4494ed95-21e0-4c16-b7c9-837f06724929",
      "resource": {
        "resourceType": "Observation",
        "id": "4494ed95-21e0-4c16-b7c9-837f06724929",
        "meta": {
          "profile": [
            "http://hl7.eu/fhir/laboratory/StructureDefinition/Observation-resultslab-eu-lab"
          ]
        },
        "performer": [
          {
            "display": "The Central European Lab"
          }
        ],
        "category": [
          {
            "coding": [
              {
                "system": "http://terminology.hl7.org/CodeSystem/observation-category",
                "code": "laboratory"
              }
            ]
          }
        ],
        "code": {
          "coding": [
            {
              "code": "787-2",
              "system": "http://loinc.org",
              "display": "MCV [Entitic volume] by Automated count"
            }
          ],
          "text": "MCV [Entitic volume] by Automated count"
        },
        "valueQuantity": {
          "system": "http://unitsofmeasure.org",
          "value": 90.1,
          "unit": "fL",
          "code": "fL"
        },
        "referenceRange": [
          {
            "low": {
              "value": 82,
              "code": "fL",
              "system": "http://unitsofmeasure.org"
            }
          },
          {
            "high": {
              "value": 98,
              "code": "fL",
              "system": "http://unitsofmeasure.org"
            }
          }
        ],
        "text": {
          "status": "generated",
          "div": "<div xmlns=\"http://www.w3.org/1999/xhtml\"><table class=\"hl7__eu__lab__report\"><tr><th>Test</th><th>29-May-2023</th><th>Reference&#xA0;Range</th><th>Unit</th></tr><tr><td>MCV [Entitic volume] by Automated count</td><td>90.1</td><td>82 - 98</td><td></td><td>fL</td></tr></table></div>"
        },
        "status": "final",
        "subject": {
          "reference": "urn:uuid:b7611c99-19ae-4784-9b0d-011f5bd6aad9",
          "display": "Gioele Fabbri"
        },
        "effectiveDateTime": "2023-05-29T15:46:20Z",
        "specimen": {
          "reference": "urn:uuid:e0ecf640-cd56-4631-9b0b-bde42c4b31fa"
        }
      }
    },
    {
      "fullUrl": "urn:uuid:fc56cd23-f65a-4a79-957e-4d4d147d4a64",
      "resource": {
        "resourceType": "Observation",
        "id": "fc56cd23-f65a-4a79-957e-4d4d147d4a64",
        "meta": {
          "profile": [
            "http://hl7.eu/fhir/laboratory/StructureDefinition/Observation-resultslab-eu-lab"
          ]
        },
        "performer": [
          {
            "display": "The Central European Lab"
          }
        ],
        "category": [
          {
            "coding": [
              {
                "system": "http://terminology.hl7.org/CodeSystem/observation-category",
                "code": "laboratory"
              }
            ]
          }
        ],
        "code": {
          "coding": [
            {
              "code": "785-6",
              "system": "http://loinc.org",
              "display": "MCH [Entitic mass] by Automated count"
            }
          ],
          "text": "MCH [Entitic mass] by Automated count"
        },
        "valueQuantity": {
          "system": "http://unitsofmeasure.org",
          "value": 28.7,
          "unit": "pg",
          "code": "pg"
        },
        "referenceRange": [
          {
            "low": {
              "value": 27,
              "code": "pg",
              "system": "http://unitsofmeasure.org"
            }
          },
          {
            "high": {
              "value": 33,
              "code": "pg",
              "system": "http://unitsofmeasure.org"
            }
          }
        ],
        "text": {
          "status": "generated",
          "div": "<div xmlns=\"http://www.w3.org/1999/xhtml\"><table class=\"hl7__eu__lab__report\"><tr><th>Test</th><th>29-May-2023</th><th>Reference&#xA0;Range</th><th>Unit</th></tr><tr><td>MCH [Entitic mass] by Automated count</td><td>28.7</td><td>27 - 33</td><td></td><td>pg</td></tr></table></div>"
        },
        "status": "final",
        "subject": {
          "reference": "urn:uuid:b7611c99-19ae-4784-9b0d-011f5bd6aad9",
          "display": "Gioele Fabbri"
        },
        "effectiveDateTime": "2023-05-29T15:46:20Z",
        "specimen": {
          "reference": "urn:uuid:e0ecf640-cd56-4631-9b0b-bde42c4b31fa"
        }
      }
    },
    {
      "fullUrl": "urn:uuid:eb8cf850-1db4-4764-b299-d9ad13fb5587",
      "resource": {
        "resourceType": "Observation",
        "id": "eb8cf850-1db4-4764-b299-d9ad13fb5587",
        "meta": {
          "profile": [
            "http://hl7.eu/fhir/laboratory/StructureDefinition/Observation-resultslab-eu-lab"
          ]
        },
        "performer": [
          {
            "display": "The Central European Lab"
          }
        ],
        "category": [
          {
            "coding": [
              {
                "system": "http://terminology.hl7.org/CodeSystem/observation-category",
                "code": "laboratory"
              }
            ]
          }
        ],
        "code": {
          "coding": [
            {
              "code": "786-4",
              "system": "http://loinc.org",
              "display": "MCHC [Mass/volume] by Automated count"
            }
          ],
          "text": "MCHC [Mass/volume] by Automated count"
        },
        "valueQuantity": {
          "system": "http://unitsofmeasure.org",
          "value": 33.2,
          "unit": "g/dL",
          "code": "g/dL"
        },
        "referenceRange": [
          {
            "low": {
              "value": 31,
              "code": "g/dL",
              "system": "http://unitsofmeasure.org"
            }
          },
          {
            "high": {
              "value": 35,
              "code": "g/dL",
              "system": "http://unitsofmeasure.org"
            }
          }
        ],
        "text": {
          "status": "generated",
          "div": "<div xmlns=\"http://www.w3.org/1999/xhtml\"><table class=\"hl7__eu__lab__report\"><tr><th>Test</th><th>29-May-2023</th><th>Reference&#xA0;Range</th><th>Unit</th></tr><tr><td>MCHC [Mass/volume] by Automated count</td><td>33.2</td><td>31 - 35</td><td></td><td>g/dL</td></tr></table></div>"
        },
        "status": "final",
        "subject": {
          "reference": "urn:uuid:b7611c99-19ae-4784-9b0d-011f5bd6aad9",
          "display": "Gioele Fabbri"
        },
        "effectiveDateTime": "2023-05-29T15:46:20Z",
        "specimen": {
          "reference": "urn:uuid:e0ecf640-cd56-4631-9b0b-bde42c4b31fa"
        }
      }
    },
    {
      "fullUrl": "urn:uuid:dbdda21b-3270-4636-852f-f64dc2bcfbde",
      "resource": {
        "resourceType": "Observation",
        "id": "dbdda21b-3270-4636-852f-f64dc2bcfbde",
        "meta": {
          "profile": [
            "http://hl7.eu/fhir/laboratory/StructureDefinition/Observation-resultslab-eu-lab"
          ]
        },
        "performer": [
          {
            "display": "The Central European Lab"
          }
        ],
        "category": [
          {
            "coding": [
              {
                "system": "http://terminology.hl7.org/CodeSystem/observation-category",
                "code": "laboratory"
              }
            ]
          }
        ],
        "code": {
          "coding": [
            {
              "code": "21000-5",
              "system": "http://loinc.org",
              "display": "Erythrocyte distribution width [Entitic volume] by Automated count"
            }
          ],
          "text": "Erythrocyte distribution width [Entitic volume] by Automated count"
        },
        "valueQuantity": {
          "system": "http://unitsofmeasure.org",
          "value": 43.7,
          "unit": "fL",
          "code": "fL"
        },
        "referenceRange": [
          {
            "low": {
              "value": 39,
              "code": "fL",
              "system": "http://unitsofmeasure.org"
            }
          },
          {
            "high": {
              "value": 55,
              "code": "fL",
              "system": "http://unitsofmeasure.org"
            }
          }
        ],
        "text": {
          "status": "generated",
          "div": "<div xmlns=\"http://www.w3.org/1999/xhtml\"><table class=\"hl7__eu__lab__report\"><tr><th>Test</th><th>29-May-2023</th><th>Reference&#xA0;Range</th><th>Unit</th></tr><tr><td>Erythrocyte distribution width [Entitic volume] by Automated count</td><td>43.7</td><td>39 - 55</td><td></td><td>fL</td></tr></table></div>"
        },
        "status": "final",
        "subject": {
          "reference": "urn:uuid:b7611c99-19ae-4784-9b0d-011f5bd6aad9",
          "display": "Gioele Fabbri"
        },
        "effectiveDateTime": "2023-05-29T15:46:20Z",
        "specimen": {
          "reference": "urn:uuid:e0ecf640-cd56-4631-9b0b-bde42c4b31fa"
        }
      }
    },
    {
      "fullUrl": "urn:uuid:4367ffa1-27a1-4464-bb92-86e36092b0d9",
      "resource": {
        "resourceType": "Observation",
        "id": "4367ffa1-27a1-4464-bb92-86e36092b0d9",
        "meta": {
          "profile": [
            "http://hl7.eu/fhir/laboratory/StructureDefinition/Observation-resultslab-eu-lab"
          ]
        },
        "performer": [
          {
            "display": "The Central European Lab"
          }
        ],
        "category": [
          {
            "coding": [
              {
                "system": "http://terminology.hl7.org/CodeSystem/observation-category",
                "code": "laboratory"
              }
            ]
          }
        ],
        "code": {
          "coding": [
            {
              "code": "777-3",
              "system": "http://loinc.org",
              "display": "Platelets [#/volume] in Blood by Automated count"
            }
          ],
          "text": "Platelets [#/volume] in Blood by Automated count"
        },
        "valueQuantity": {
          "system": "http://unitsofmeasure.org",
          "value": 207.3,
          "unit": "10*3/uL",
          "code": "10*3/uL"
        },
        "referenceRange": [
          {
            "low": {
              "value": 140,
              "code": "10*3/uL",
              "system": "http://unitsofmeasure.org"
            }
          },
          {
            "high": {
              "value": 363,
              "code": "10*3/uL",
              "system": "http://unitsofmeasure.org"
            }
          }
        ],
        "text": {
          "status": "generated",
          "div": "<div xmlns=\"http://www.w3.org/1999/xhtml\"><table class=\"hl7__eu__lab__report\"><tr><th>Test</th><th>29-May-2023</th><th>Reference&#xA0;Range</th><th>Unit</th></tr><tr><td>Platelets [#/volume] in Blood by Automated count</td><td>207.3</td><td>140 - 363</td><td></td><td>10*3/uL</td></tr></table></div>"
        },
        "status": "final",
        "subject": {
          "reference": "urn:uuid:b7611c99-19ae-4784-9b0d-011f5bd6aad9",
          "display": "Gioele Fabbri"
        },
        "effectiveDateTime": "2023-05-29T15:46:20Z",
        "specimen": {
          "reference": "urn:uuid:e0ecf640-cd56-4631-9b0b-bde42c4b31fa"
        }
      }
    },
    {
      "fullUrl": "urn:uuid:24486f60-6f96-4a68-a3ea-033211f81f23",
      "resource": {
        "resourceType": "Observation",
        "id": "24486f60-6f96-4a68-a3ea-033211f81f23",
        "meta": {
          "profile": [
            "http://hl7.eu/fhir/laboratory/StructureDefinition/Observation-resultslab-eu-lab"
          ]
        },
        "performer": [
          {
            "display": "The Central European Lab"
          }
        ],
        "category": [
          {
            "coding": [
              {
                "system": "http://terminology.hl7.org/CodeSystem/observation-category",
                "code": "laboratory"
              }
            ]
          }
        ],
        "code": {
          "coding": [
            {
              "code": "32207-3",
              "system": "http://loinc.org",
              "display": "Platelet distribution width [Entitic volume] in Blood by Automated count"
            }
          ],
          "text": "Platelet distribution width [Entitic volume] in Blood by Automated count"
        },
        "valueQuantity": {
          "system": "http://unitsofmeasure.org",
          "value": 516.4,
          "unit": "fL",
          "code": "fL"
        },
        "referenceRange": [
          {
            "low": {
              "value": 13.4,
              "code": "fL",
              "system": "http://unitsofmeasure.org"
            }
          },
          {
            "high": {
              "value": 17.4,
              "code": "fL",
              "system": "http://unitsofmeasure.org"
            }
          }
        ],
        "interpretation": [
          {
            "coding": [
              {
                "code": "H",
                "system": "http://terminology.hl7.org/CodeSystem/v3-ObservationInterpretation",
                "display": "High"
              }
            ]
          }
        ],
        "text": {
          "status": "generated",
          "div": "<div xmlns=\"http://www.w3.org/1999/xhtml\"><table class=\"hl7__eu__lab__report\"><tr><th>Test</th><th>29-May-2023</th><th>Reference&#xA0;Range</th><th>Unit</th></tr><tr><td>Platelet distribution width [Entitic volume] in Blood by Automated count</td><td>516.4</td><td>13.4 - 17.4</td><td>H</td><td>fL</td></tr></table></div>"
        },
        "status": "final",
        "subject": {
          "reference": "urn:uuid:b7611c99-19ae-4784-9b0d-011f5bd6aad9",
          "display": "Gioele Fabbri"
        },
        "effectiveDateTime": "2023-05-29T15:46:20Z",
        "specimen": {
          "reference": "urn:uuid:e0ecf640-cd56-4631-9b0b-bde42c4b31fa"
        }
      }
    },
    {
      "fullUrl": "urn:uuid:72c4e55b-3efa-4c44-9a66-9fdc70c9f15a",
      "resource": {
        "resourceType": "Observation",
        "id": "72c4e55b-3efa-4c44-9a66-9fdc70c9f15a",
        "meta": {
          "profile": [
            "http://hl7.eu/fhir/laboratory/StructureDefinition/Observation-resultslab-eu-lab"
          ]
        },
        "performer": [
          {
            "display": "The Central European Lab"
          }
        ],
        "category": [
          {
            "coding": [
              {
                "system": "http://terminology.hl7.org/CodeSystem/observation-category",
                "code": "laboratory"
              }
            ]
          }
        ],
        "code": {
          "coding": [
            {
              "code": "32623-1",
              "system": "http://loinc.org",
              "display": "Platelet mean volume [Entitic volume] in Blood by Automated count"
            }
          ],
          "text": "Platelet mean volume [Entitic volume] in Blood by Automated count"
        },
        "valueQuantity": {
          "system": "http://unitsofmeasure.org",
          "value": 10.7,
          "unit": "fL",
          "code": "fL"
        },
        "referenceRange": [
          {
            "low": {
              "value": 7.4,
              "code": "fL",
              "system": "http://unitsofmeasure.org"
            }
          },
          {
            "high": {
              "value": 12,
              "code": "fL",
              "system": "http://unitsofmeasure.org"
            }
          }
        ],
        "text": {
          "status": "generated",
          "div": "<div xmlns=\"http://www.w3.org/1999/xhtml\"><table class=\"hl7__eu__lab__report\"><tr><th>Test</th><th>29-May-2023</th><th>Reference&#xA0;Range</th><th>Unit</th></tr><tr><td>Platelet mean volume [Entitic volume] in Blood by Automated count</td><td>10.7</td><td>7.4 - 12</td><td></td><td>fL</td></tr></table></div>"
        },
        "status": "final",
        "subject": {
          "reference": "urn:uuid:b7611c99-19ae-4784-9b0d-011f5bd6aad9",
          "display": "Gioele Fabbri"
        },
        "effectiveDateTime": "2023-05-29T15:46:20Z",
        "specimen": {
          "reference": "urn:uuid:e0ecf640-cd56-4631-9b0b-bde42c4b31fa"
        }
      }
    },
    {
      "fullUrl": "urn:uuid:a47bc4d6-0245-42c1-ad45-8e03efed7b2d",
      "resource": {
        "resourceType": "Device",
        "id": "a47bc4d6-0245-42c1-ad45-8e03efed7b2d",
        "deviceName": [
          {
            "name": "SYNDERAI Synthetic Generator",
            "type": "manufacturer-name"
          }
        ],
        "version": [
          {
            "value": "5.0"
          }
        ],
        "text": {
          "status": "generated",
          "div": "<div xmlns=\"http://www.w3.org/1999/xhtml\">SYNDERAI Synthetic Generator v5.0</div>"
        },
        "status": "active\"",
        "distinctIdentifier": "synderai-generator-50",
        "manufacturer": "SYNDERAI Project"
      }
    },
    {
      "fullUrl": "urn:uuid:0cfa156f-17fa-4b66-abe2-eea4c69e484e",
      "resource": {
        "resourceType": "Provenance",
        "id": "0cfa156f-17fa-4b66-abe2-eea4c69e484e",
        "target": [
          {
            "reference": "Patient/b7611c99-19ae-4784-9b0d-011f5bd6aad9"
          },
          {
            "reference": "Bundle/32645170-d360-431e-933d-8a42e8f13d40"
          },
          {
            "reference": "Composition/433790a8-9c44-4e90-9e16-c86fef9c8c2c"
          },
          {
            "reference": "PractitionerRole/67965fd6-77d2-49f8-8ed9-60f273e7c14b"
          },
          {
            "reference": "Practitioner/b5684d03-fac4-4963-81f2-7d7cf7f3b661"
          },
          {
            "reference": "PractitionerRole/8228c12e-5199-4254-84e6-99fb04dedbfe"
          },
          {
            "reference": "Organization/4d5ce4c8-1fbf-4c1d-aaaa-f847c7d44dcb"
          }
        ],
        "activity": {
          "text": "Synthetic Example Data Generation"
        },
        "policy": [
          "https://synderai.net/synderai-synthetic-data-policy"
        ],
        "agent": [
          {
            "type": {
              "text": "author"
            },
            "who": {
              "reference": "Device/a47bc4d6-0245-42c1-ad45-8e03efed7b2d"
            }
          }
        ],
        "reason": [
          {
            "text": "Interoperability Testing and Training (non-clinical use)"
          }
        ],
        "text": {
          "status": "generated",
          "div": "<div xmlns=\"http://www.w3.org/1999/xhtml\">Provenance for SYNDERAI Synthetic Example Data Resource</div>"
        },
        "recorded": "2023-05-29T17:46:20Z"
      }
    },
    {
      "fullUrl": "urn:uuid:67965fd6-77d2-49f8-8ed9-60f273e7c14b",
      "resource": {
        "resourceType": "PractitionerRole",
        "id": "67965fd6-77d2-49f8-8ed9-60f273e7c14b",
        "meta": {
          "profile": [
            "http://hl7.eu/fhir/base/StructureDefinition/practitionerRole-eu"
          ]
        },
        "text": {
          "status": "generated",
          "div": "<div xmlns=\"http://www.w3.org/1999/xhtml\">Laboratory Role Id: 67965fd6-77d2-49f8-8ed9-60f273e7c14b</div>"
        },
        "practitioner": {
          "reference": "urn:uuid:b5684d03-fac4-4963-81f2-7d7cf7f3b661"
        }
      }
    },
    {
      "fullUrl": "urn:uuid:b5684d03-fac4-4963-81f2-7d7cf7f3b661",
      "resource": {
        "resourceType": "Practitioner",
        "id": "b5684d03-fac4-4963-81f2-7d7cf7f3b661",
        "meta": {
          "profile": [
            "http://hl7.eu/fhir/base/StructureDefinition/practitioner-eu"
          ]
        },
        "identifier": [
          {
            "assigner": {
              "display": "HL7 Europe"
            },
            "system": "urn:oid:2.16.840.1.113883.2.51.999",
            "value": "b0424a01-f358-43a9-849d-80248adabad9"
          }
        ],
        "name": [
          {
            "prefix": [
              "dr"
            ],
            "given": [
              "Ex"
            ],
            "family": "Ample"
          }
        ],
        "address": [
          {
            "line": [
              "Laboratoire Central Européenne",
              "Boulevard du Jardin Botanique 32"
            ],
            "postalCode": "1000",
            "city": "Brussels",
            "country": "Belgium"
          }
        ],
        "text": {
          "status": "generated",
          "div": "<div xmlns=\"http://www.w3.org/1999/xhtml\">Laboratory: Laboratoire Central Européenne, 1000 Brussels, Belgium</div>"
        }
      }
    }
  ],
  "type": "document",
  "timestamp": "2023-05-29T17:46:20Z"
}
