<Bundle xmlns="http://hl7.org/fhir">
   <id value="871b5ace-c6ff-4a02-b649-e827be5effbf"/>
   <meta>
      <profile value="http://hl7.eu/fhir/laboratory/StructureDefinition/Bundle-eu-lab"/>
   </meta>
   <identifier>
      <system value="urn:oid:2.16.840.1.113883.2.51.999"/>
      <value value="fe49aa3d-a4a4-4ec2-a54b-e20505f5dfce"/>
      <assigner>
         <display value="HL7 Europe"/>
      </assigner>
   </identifier>
   <type value="document"/>
   <timestamp value="2021-03-28T05:55:50Z"/>
   <entry>
      <fullUrl value="urn:uuid:321a0467-d289-479f-8256-8bb6727403de"/>
      <resource>
         <Composition>
            <id value="321a0467-d289-479f-8256-8bb6727403de"/>
            <meta>
               <profile value="http://hl7.eu/fhir/laboratory/StructureDefinition/Composition-eu-lab"/>
            </meta>
            <identifier>
               <system value="urn:oid:2.16.840.1.113883.2.51.999"/>
               <value value="f3954eae-c513-4c2c-bf53-a6531d8d7039"/>
               <assigner>
                  <display value="HL7 Europe"/>
               </assigner>
            </identifier>
            <status value="final"/>
            <type>
               <coding>
                  <system value="http://loinc.org"/>
                  <code value="11502-2"/>
                  <display value="Laboratory report"/>
               </coding>
               <text value="Laboratory Report"/>
            </type>
            <category>
               <coding>
                  <system value="http://loinc.org"/>
                  <code value="26436-6"/>
                  <display value="Laboratory studies (set)"/>
               </coding>
            </category>
            <subject>
               <reference value="urn:uuid:ad186ffa-258c-4e69-bdf9-18d7cc747d08"/>
               <display value="Olga Bąbel"/>
            </subject>
            <date value="2021-03-28T05:55:50Z"/>
            <author>
               <reference value="urn:uuid:eb7eeead-94ca-42d0-a03f-8c345dd40c73"/>
            </author>
            <title value="Laboratory Report"/>
            <confidentiality value="N"/>
            <section>
               <title value="Laboratory Report"/>
               <code>
                  <coding>
                     <system value="http://loinc.org"/>
                     <code value="26436-6"/>
                     <display value="Laboratory studies (set)"/>
                  </coding>
                  <text value="Laboratory studies"/>
               </code>
               <section>
                  <title value="Chemistry"/>
                  <code>
                     <coding>
                        <system value="http://loinc.org"/>
                        <code value="$18719-5"/>
                        <display value="Chemistry studies (set)"/>
                     </coding>
                     <text value="Chemistry"/>
                  </code>
                  <text>
                     <status value="generated"/>
                     <div xmlns="http://www.w3.org/1999/xhtml">
                        <h3>Chemistry</h3>
                        <table class="hl7__eu__lab__report">
                           <thead>
                              <tr>
                                 <th>Test</th>
                                 <th>28-MAR-2021</th>
                                 <th>Reference Range</th>
                                 <th>Unit</th>
                              </tr>
                           </thead>
                           <tbody>
                              <tr>
                                 <td>Cholesterol [Mass/volume] in Serum or Plasma</td>
                                 <td>178.7</td>
                                 <td>125 - 200</td>
                                 <td>mg/dL</td>
                              </tr>
                              <tr>
                                 <td>Triglyceride [Mass/volume] in Serum or Plasma</td>
                                 <td>121.5</td>
                                 <td>35 - 150</td>
                                 <td>mg/dL</td>
                              </tr>
                              <tr>
                                 <td>Cholesterol in LDL [Mass/volume] in Serum or Plasma by Direct assay</td>
                                 <td>95.8</td>
                                 <td>0 - 130</td>
                                 <td>mg/dL</td>
                              </tr>
                              <tr>
                                 <td>Cholesterol in HDL [Mass/volume] in Serum or Plasma</td>
                                 <td>58.6</td>
                                 <td>35 - 82</td>
                                 <td>mg/dL</td>
                              </tr>
                           </tbody>
                        </table>
                     </div>
                  </text>
                  <entry>
                     <reference value="urn:uuid:f2dfdd62-d1dc-466c-90b2-33037a062c76"/>
                  </entry>
                  <entry>
                     <reference value="urn:uuid:3e6e4b68-161b-4029-b5cf-64490a919e75"/>
                  </entry>
                  <entry>
                     <reference value="urn:uuid:a15e4777-bf45-4d7f-9101-50522632c342"/>
                  </entry>
                  <entry>
                     <reference value="urn:uuid:07c882e4-690b-44ba-a85c-6cba4dea175a"/>
                  </entry>
               </section>
            </section>
            <section>
               <title value="Annotation comment"/>
               <code>
                  <coding>
                     <system value="http://loinc.org"/>
                     <code value="48767-8"/>
                     <display value="Annotation comment"/>
                  </coding>
               </code>
               <text>
                  <status value="generated"/>
                  <div xmlns="http://www.w3.org/1999/xhtml">
                     <h3>Annotation</h3>
                     <table class="hl7__eu__lab__report">
                        <tr>
                           <th>Conclusion and Recommendations based on this report and previous findings known to us</th>
                        </tr>
                        <tr>
                           <td>All lipid parameters (total cholesterol, triglycerides, LDL, and HDL) are within normal limits. No dyslipidemia is detected. These results indicate a favorable lipid profile with no current laboratory evidence of increased cardiovascular risk. No further action required from a laboratory perspective.</td>
                        </tr>
                     </table>
                  </div>
               </text>
            </section>
         </Composition>
      </resource>
   </entry>
   <entry>
      <fullUrl value="urn:uuid:a7d9000c-0888-4ebc-850a-9e74e491489c"/>
      <resource>
         <DiagnosticReport>
            <id value="a7d9000c-0888-4ebc-850a-9e74e491489c"/>
            <meta>
               <profile value="http://hl7.eu/fhir/laboratory/StructureDefinition/DiagnosticReport-eu-lab"/>
            </meta>
            <extension url="http://hl7.org/fhir/5.0/StructureDefinition/extension-DiagnosticReport.composition">
               <valueReference>
                  <reference value="urn:uuid:f3954eae-c513-4c2c-bf53-a6531d8d7039"/>
               </valueReference>
            </extension>
            <identifier>
               <system value="urn:oid:2.16.840.1.113883.2.51.999"/>
               <value value="0b36892e-2131-461d-9ee8-4303e033a71f"/>
               <assigner>
                  <display value="HL7 Europe"/>
               </assigner>
            </identifier>
            <status value="registered"/>
            <category>
               <coding>
                  <system value="http://loinc.org"/>
                  <code value="26436-6"/>
                  <display value="Laboratory studies (set)"/>
               </coding>
            </category>
            <code>
               <coding>
                  <system value="http://loinc.org"/>
                  <code value="11502-2"/>
                  <display value="Laboratory report"/>
               </coding>
            </code>
            <subject>
               <reference value="urn:uuid:ad186ffa-258c-4e69-bdf9-18d7cc747d08"/>
               <display value="Olga Bąbel"/>
            </subject>
            <specimen>
               <reference value="urn:uuid:a1ab1197-b26e-41b3-9790-ae6aedc5d9ba"/>
            </specimen>
            <result>
               <reference value="urn:uuid:f2dfdd62-d1dc-466c-90b2-33037a062c76"/>
            </result>
            <result>
               <reference value="urn:uuid:3e6e4b68-161b-4029-b5cf-64490a919e75"/>
            </result>
            <result>
               <reference value="urn:uuid:a15e4777-bf45-4d7f-9101-50522632c342"/>
            </result>
            <result>
               <reference value="urn:uuid:07c882e4-690b-44ba-a85c-6cba4dea175a"/>
            </result>
         </DiagnosticReport>
      </resource>
   </entry>
   <entry>
      <fullUrl value="urn:uuid:ad186ffa-258c-4e69-bdf9-18d7cc747d08"/>
      <resource>
         <Patient>
            <id value="ad186ffa-258c-4e69-bdf9-18d7cc747d08"/>
            <meta>
               <profile value="http://hl7.eu/fhir/base/StructureDefinition/patient-eu-core"/>
               <security>
                  <system value="http://terminology.hl7.org/CodeSystem/v3-ActReason"/>
                  <code value="HTEST"/>
               </security>
               <security>
                  <system value="http://terminology.hl7.org/CodeSystem/v3-ActReason"/>
                  <code value="TRAIN"/>
               </security>
               <tag>
                  <system value="https://synderai.net/fhir/CodeSystem/tags"/>
                  <code value="synthetic"/>
                  <display value="SYNDERAI Synthetic data"/>
               </tag>
            </meta>
            <text>
               <status value="generated"/>
               <div xmlns="http://www.w3.org/1999/xhtml">
                  <table class="hl7__ips">
                     <tr>
                        <td>Olga Bąbel</td>
                        <td>female</td>
                        <td>05-Jun-1993</td>
                     </tr>
                  </table>
               </div>
            </text>
            <extension url="http://hl7.org/fhir/StructureDefinition/patient-nationality">
               <valueCodeableConcept>
                  <coding>
                     <system value="http://hl7.org/fhir/ValueSet/country"/>
                     <code value="PL"/>
                  </coding>
               </valueCodeableConcept>
            </extension>
            <identifier>
               <type>
                  <coding>
                     <system value="http://terminology.hl7.org/CodeSystem/v2-0203"/>
                     <code value="PT"/>
                  </coding>
               </type>
               <system value="http://ec.europa.eu/identifier/eci"/>
               <value value="5030-866518-6"/>
            </identifier>
            <identifier>
               <type>
                  <coding>
                     <system value="http://terminology.hl7.org/CodeSystem/v2-0203"/>
                     <code value="MR"/>
                  </coding>
               </type>
               <system value="http://local.setting.eu/identifier"/>
               <value value="90f4ce41-5cb2-20e8-d5ac-80001edd2b41"/>
            </identifier>
            <name>
               <family value="Bąbel"/>
            </name>
            <name>
               <given value="Olga"/>
            </name>
            <name>
               <text value="Olga Bąbel"/>
            </name>
            <telecom>
               <system value="phone"/>
               <value value="+48 506 354 073"/>
            </telecom>
            <gender value="female"/>
            <birthDate value="1993-06-05"/>
            <address>
               <use value="home"/>
               <type value="physical"/>
               <line value="ul. Podleśna 13/38"/>
               <city value="Wołomin"/>
               <postalCode value="05-200"/>
               <country value="Poland"/>
            </address>
         </Patient>
      </resource>
   </entry>
   <entry>
      <fullUrl value="urn:uuid:327691b5-b05e-419d-81ab-2405ddf18254"/>
      <resource>
         <ServiceRequest>
            <id value="327691b5-b05e-419d-81ab-2405ddf18254"/>
            <meta>
               <profile value="http://hl7.eu/fhir/laboratory/StructureDefinition/ServiceRequest-eu-lab"/>
            </meta>
            <identifier>
               <system value="http://example.org"/>
               <value value="8650f59c-a5f8-4782-83ee-80cc9e4e99b0"/>
            </identifier>
            <status value="active"/>
            <intent value="order"/>
            <code>
               <coding>
                  <system value="http://snomed.info/sct"/>
                  <code value="108252007"/>
                  <display value="Laboratory procedure"/>
               </coding>
            </code>
            <subject>
               <reference value="urn:uuid:ad186ffa-258c-4e69-bdf9-18d7cc747d08"/>
               <display value="Olga Bąbel"/>
            </subject>
            <requester>
               <reference value="urn:uuid:e76cc81a-f6e3-4f0e-a487-066f471ed18b"/>
            </requester>
            <reasonCode>
               <coding>
                  <system value="http://snomed.info/sct"/>
                  <code value="15777000"/>
                  <display value="Prediabetes"/>
               </coding>
            </reasonCode>
            <reasonCode>
               <coding>
                  <system value="http://snomed.info/sct"/>
                  <code value="271737000"/>
                  <display value="Anemia"/>
               </coding>
            </reasonCode>
            <specimen>
               <reference value="urn:uuid:a1ab1197-b26e-41b3-9790-ae6aedc5d9ba"/>
            </specimen>
         </ServiceRequest>
      </resource>
   </entry>
   <entry>
      <fullUrl value="urn:uuid:e76cc81a-f6e3-4f0e-a487-066f471ed18b"/>
      <resource>
         <PractitionerRole>
            <id value="e76cc81a-f6e3-4f0e-a487-066f471ed18b"/>
            <meta>
               <profile value="http://hl7.eu/fhir/base/StructureDefinition/practitionerRole-eu"/>
            </meta>
            <text>
               <status value="generated"/>
               <div xmlns="http://www.w3.org/1999/xhtml">Provider Role Id: e76cc81a-f6e3-4f0e-a487-066f471ed18b</div>
            </text>
            <organization>
               <reference value="urn:uuid:84b7a740-9247-4506-85e9-b6bee0bfb022"/>
            </organization>
         </PractitionerRole>
      </resource>
   </entry>
   <entry>
      <fullUrl value="urn:uuid:84b7a740-9247-4506-85e9-b6bee0bfb022"/>
      <resource>
         <Organization>
            <id value="84b7a740-9247-4506-85e9-b6bee0bfb022"/>
            <meta>
               <profile value="http://hl7.eu/fhir/base/StructureDefinition/organization-eu"/>
            </meta>
            <text>
               <status value="generated"/>
               <div xmlns="http://www.w3.org/1999/xhtml">Provider Organization: Miejski Samodzielny Publiczny Zakład Opieki Zdrowotnej Nr 1</div>
            </text>
            <identifier>
               <system value="urn:oid:2.16.840.1.113883.2.51.999"/>
               <value value="2b1d1334-95f1-40f7-9526-7ecacc7310e9"/>
               <assigner>
                  <display value="HL7 Europe"/>
               </assigner>
            </identifier>
            <name value="Miejski Samodzielny Publiczny Zakład Opieki Zdrowotnej Nr 1"/>
            <address>
               <line value="Ignacego Prądzyńskiego 11"/>
               <city value="Wołomin"/>
               <postalCode value="05-200"/>
               <country value="Poland"/>
            </address>
         </Organization>
      </resource>
   </entry>
   <entry>
      <fullUrl value="urn:uuid:a1ab1197-b26e-41b3-9790-ae6aedc5d9ba"/>
      <resource>
         <Specimen>
            <id value="a1ab1197-b26e-41b3-9790-ae6aedc5d9ba"/>
            <meta>
               <profile value="http://hl7.eu/fhir/laboratory/StructureDefinition/Specimen-eu-lab"/>
            </meta>
            <text>
               <status value="generated"/>
               <div xmlns="http://www.w3.org/1999/xhtml">
                  <table class="hl7__eu__lab__report">
                     <tr>
                        <th>Specimen</th>
                        <th>Collection Date</th>
                     </tr>
                     <tr>
                        <td>Acellular blood (serum or plasma) specimen</td>
                        <td>
                           <span class="nb">28-Mar-2021</span>
                        </td>
                     </tr>
                  </table>
               </div>
            </text>
            <type>
               <coding>
                  <system value="http://snomed.info/sct"/>
                  <code value="122592007"/>
                  <display value="Acellular blood (serum or plasma) specimen"/>
               </coding>
            </type>
            <collection>
               <collectedDateTime value="2021-03-28"/>
            </collection>
         </Specimen>
      </resource>
   </entry>
   <entry>
      <fullUrl value="urn:uuid:f2dfdd62-d1dc-466c-90b2-33037a062c76"/>
      <resource>
         <Observation>
            <id value="f2dfdd62-d1dc-466c-90b2-33037a062c76"/>
            <meta>
               <profile value="http://hl7.eu/fhir/laboratory/StructureDefinition/Observation-resultslab-eu-lab"/>
            </meta>
            <text>
               <status value="generated"/>
               <div xmlns="http://www.w3.org/1999/xhtml">
                  <table class="hl7__eu__lab__report">
                     <tr>
                        <th>Test</th>
                        <th>28-Mar-2021</th>
                        <th>Reference Range</th>
                        <th>Unit</th>
                     </tr>
                     <tr>
                        <td>Cholesterol [Mass/volume] in Serum or Plasma</td>
                        <td>178.7</td>
                        <td>125 - 200</td>
                        <td/>
                        <td>mg/dL</td>
                     </tr>
                  </table>
               </div>
            </text>
            <status value="final"/>
            <category>
               <coding>
                  <system value="http://terminology.hl7.org/CodeSystem/observation-category"/>
                  <code value="laboratory"/>
               </coding>
            </category>
            <code>
               <coding>
                  <system value="http://loinc.org"/>
                  <code value="2093-3"/>
                  <display value="Cholesterol [Mass/volume] in Serum or Plasma"/>
               </coding>
               <text value="Cholesterol [Mass/volume] in Serum or Plasma"/>
            </code>
            <subject>
               <reference value="urn:uuid:ad186ffa-258c-4e69-bdf9-18d7cc747d08"/>
               <display value="Olga Bąbel"/>
            </subject>
            <effectiveDateTime value="2021-03-28T03:55:50Z"/>
            <performer>
               <display value="The Central European Lab"/>
            </performer>
            <valueQuantity>
               <value value="178.7"/>
               <unit value="mg/dL"/>
               <system value="http://unitsofmeasure.org"/>
               <code value="mg/dL"/>
            </valueQuantity>
            <specimen>
               <reference value="urn:uuid:a1ab1197-b26e-41b3-9790-ae6aedc5d9ba"/>
            </specimen>
            <referenceRange>
               <low>
                  <value value="125"/>
                  <system value="http://unitsofmeasure.org"/>
                  <code value="mg/dL"/>
               </low>
            </referenceRange>
            <referenceRange>
               <high>
                  <value value="200"/>
                  <system value="http://unitsofmeasure.org"/>
                  <code value="mg/dL"/>
               </high>
            </referenceRange>
         </Observation>
      </resource>
   </entry>
   <entry>
      <fullUrl value="urn:uuid:3e6e4b68-161b-4029-b5cf-64490a919e75"/>
      <resource>
         <Observation>
            <id value="3e6e4b68-161b-4029-b5cf-64490a919e75"/>
            <meta>
               <profile value="http://hl7.eu/fhir/laboratory/StructureDefinition/Observation-resultslab-eu-lab"/>
            </meta>
            <text>
               <status value="generated"/>
               <div xmlns="http://www.w3.org/1999/xhtml">
                  <table class="hl7__eu__lab__report">
                     <tr>
                        <th>Test</th>
                        <th>28-Mar-2021</th>
                        <th>Reference Range</th>
                        <th>Unit</th>
                     </tr>
                     <tr>
                        <td>Triglyceride [Mass/volume] in Serum or Plasma</td>
                        <td>121.5</td>
                        <td>35 - 150</td>
                        <td/>
                        <td>mg/dL</td>
                     </tr>
                  </table>
               </div>
            </text>
            <status value="final"/>
            <category>
               <coding>
                  <system value="http://terminology.hl7.org/CodeSystem/observation-category"/>
                  <code value="laboratory"/>
               </coding>
            </category>
            <code>
               <coding>
                  <system value="http://loinc.org"/>
                  <code value="2571-8"/>
                  <display value="Triglyceride [Mass/volume] in Serum or Plasma"/>
               </coding>
               <text value="Triglyceride [Mass/volume] in Serum or Plasma"/>
            </code>
            <subject>
               <reference value="urn:uuid:ad186ffa-258c-4e69-bdf9-18d7cc747d08"/>
               <display value="Olga Bąbel"/>
            </subject>
            <effectiveDateTime value="2021-03-28T03:55:50Z"/>
            <performer>
               <display value="The Central European Lab"/>
            </performer>
            <valueQuantity>
               <value value="121.5"/>
               <unit value="mg/dL"/>
               <system value="http://unitsofmeasure.org"/>
               <code value="mg/dL"/>
            </valueQuantity>
            <specimen>
               <reference value="urn:uuid:a1ab1197-b26e-41b3-9790-ae6aedc5d9ba"/>
            </specimen>
            <referenceRange>
               <low>
                  <value value="35"/>
                  <system value="http://unitsofmeasure.org"/>
                  <code value="mg/dL"/>
               </low>
            </referenceRange>
            <referenceRange>
               <high>
                  <value value="150"/>
                  <system value="http://unitsofmeasure.org"/>
                  <code value="mg/dL"/>
               </high>
            </referenceRange>
         </Observation>
      </resource>
   </entry>
   <entry>
      <fullUrl value="urn:uuid:a15e4777-bf45-4d7f-9101-50522632c342"/>
      <resource>
         <Observation>
            <id value="a15e4777-bf45-4d7f-9101-50522632c342"/>
            <meta>
               <profile value="http://hl7.eu/fhir/laboratory/StructureDefinition/Observation-resultslab-eu-lab"/>
            </meta>
            <text>
               <status value="generated"/>
               <div xmlns="http://www.w3.org/1999/xhtml">
                  <table class="hl7__eu__lab__report">
                     <tr>
                        <th>Test</th>
                        <th>28-Mar-2021</th>
                        <th>Reference Range</th>
                        <th>Unit</th>
                     </tr>
                     <tr>
                        <td>Cholesterol in LDL [Mass/volume] in Serum or Plasma by Direct assay</td>
                        <td>95.8</td>
                        <td>0 - 130</td>
                        <td/>
                        <td>mg/dL</td>
                     </tr>
                  </table>
               </div>
            </text>
            <status value="final"/>
            <category>
               <coding>
                  <system value="http://terminology.hl7.org/CodeSystem/observation-category"/>
                  <code value="laboratory"/>
               </coding>
            </category>
            <code>
               <coding>
                  <system value="http://loinc.org"/>
                  <code value="18262-6"/>
                  <display value="Cholesterol in LDL [Mass/volume] in Serum or Plasma by Direct assay"/>
               </coding>
               <text value="Cholesterol in LDL [Mass/volume] in Serum or Plasma by Direct assay"/>
            </code>
            <subject>
               <reference value="urn:uuid:ad186ffa-258c-4e69-bdf9-18d7cc747d08"/>
               <display value="Olga Bąbel"/>
            </subject>
            <effectiveDateTime value="2021-03-28T03:55:50Z"/>
            <performer>
               <display value="The Central European Lab"/>
            </performer>
            <valueQuantity>
               <value value="95.8"/>
               <unit value="mg/dL"/>
               <system value="http://unitsofmeasure.org"/>
               <code value="mg/dL"/>
            </valueQuantity>
            <specimen>
               <reference value="urn:uuid:a1ab1197-b26e-41b3-9790-ae6aedc5d9ba"/>
            </specimen>
            <referenceRange>
               <low>
                  <value value="0"/>
                  <system value="http://unitsofmeasure.org"/>
                  <code value="mg/dL"/>
               </low>
            </referenceRange>
            <referenceRange>
               <high>
                  <value value="130"/>
                  <system value="http://unitsofmeasure.org"/>
                  <code value="mg/dL"/>
               </high>
            </referenceRange>
         </Observation>
      </resource>
   </entry>
   <entry>
      <fullUrl value="urn:uuid:07c882e4-690b-44ba-a85c-6cba4dea175a"/>
      <resource>
         <Observation>
            <id value="07c882e4-690b-44ba-a85c-6cba4dea175a"/>
            <meta>
               <profile value="http://hl7.eu/fhir/laboratory/StructureDefinition/Observation-resultslab-eu-lab"/>
            </meta>
            <text>
               <status value="generated"/>
               <div xmlns="http://www.w3.org/1999/xhtml">
                  <table class="hl7__eu__lab__report">
                     <tr>
                        <th>Test</th>
                        <th>28-Mar-2021</th>
                        <th>Reference Range</th>
                        <th>Unit</th>
                     </tr>
                     <tr>
                        <td>Cholesterol in HDL [Mass/volume] in Serum or Plasma</td>
                        <td>58.6</td>
                        <td>35 - 82</td>
                        <td/>
                        <td>mg/dL</td>
                     </tr>
                  </table>
               </div>
            </text>
            <status value="final"/>
            <category>
               <coding>
                  <system value="http://terminology.hl7.org/CodeSystem/observation-category"/>
                  <code value="laboratory"/>
               </coding>
            </category>
            <code>
               <coding>
                  <system value="http://loinc.org"/>
                  <code value="2085-9"/>
                  <display value="Cholesterol in HDL [Mass/volume] in Serum or Plasma"/>
               </coding>
               <text value="Cholesterol in HDL [Mass/volume] in Serum or Plasma"/>
            </code>
            <subject>
               <reference value="urn:uuid:ad186ffa-258c-4e69-bdf9-18d7cc747d08"/>
               <display value="Olga Bąbel"/>
            </subject>
            <effectiveDateTime value="2021-03-28T03:55:50Z"/>
            <performer>
               <display value="The Central European Lab"/>
            </performer>
            <valueQuantity>
               <value value="58.6"/>
               <unit value="mg/dL"/>
               <system value="http://unitsofmeasure.org"/>
               <code value="mg/dL"/>
            </valueQuantity>
            <specimen>
               <reference value="urn:uuid:a1ab1197-b26e-41b3-9790-ae6aedc5d9ba"/>
            </specimen>
            <referenceRange>
               <low>
                  <value value="35"/>
                  <system value="http://unitsofmeasure.org"/>
                  <code value="mg/dL"/>
               </low>
            </referenceRange>
            <referenceRange>
               <high>
                  <value value="82"/>
                  <system value="http://unitsofmeasure.org"/>
                  <code value="mg/dL"/>
               </high>
            </referenceRange>
         </Observation>
      </resource>
   </entry>
   <entry>
      <fullUrl value="urn:uuid:82363c47-d2db-4144-979c-12e519d4e9de"/>
      <resource>
         <Device>
            <id value="82363c47-d2db-4144-979c-12e519d4e9de"/>
            <text>
               <status value="generated"/>
               <div xmlns="http://www.w3.org/1999/xhtml">SYNDERAI Synthetic Generator v5.0</div>
            </text>
            <status value="active&#34;"/>
            <distinctIdentifier value="synderai-generator-50"/>
            <manufacturer value="SYNDERAI Project"/>
            <deviceName>
               <name value="SYNDERAI Synthetic Generator"/>
               <type value="manufacturer-name"/>
            </deviceName>
            <version>
               <value value="5.0"/>
            </version>
         </Device>
      </resource>
   </entry>
   <entry>
      <fullUrl value="urn:uuid:98242502-e697-4218-a337-8a37ea040d78"/>
      <resource>
         <Provenance>
            <id value="98242502-e697-4218-a337-8a37ea040d78"/>
            <text>
               <status value="generated"/>
               <div xmlns="http://www.w3.org/1999/xhtml">Provenance for SYNDERAI Synthetic Example Data Resource</div>
            </text>
            <target>
               <reference value="Patient/ad186ffa-258c-4e69-bdf9-18d7cc747d08"/>
            </target>
            <target>
               <reference value="Bundle/871b5ace-c6ff-4a02-b649-e827be5effbf"/>
            </target>
            <target>
               <reference value="Composition/321a0467-d289-479f-8256-8bb6727403de"/>
            </target>
            <target>
               <reference value="PractitionerRole/eb7eeead-94ca-42d0-a03f-8c345dd40c73"/>
            </target>
            <target>
               <reference value="Practitioner/0ad90a41-38d6-42b1-bb56-9644c5148155"/>
            </target>
            <target>
               <reference value="PractitionerRole/e76cc81a-f6e3-4f0e-a487-066f471ed18b"/>
            </target>
            <target>
               <reference value="Organization/84b7a740-9247-4506-85e9-b6bee0bfb022"/>
            </target>
            <recorded value="2021-03-28T05:55:50Z"/>
            <policy value="https://synderai.net/synderai-synthetic-data-policy"/>
            <reason>
               <text value="Interoperability Testing and Training (non-clinical use)"/>
            </reason>
            <activity>
               <text value="Synthetic Example Data Generation"/>
            </activity>
            <agent>
               <type>
                  <text value="author"/>
               </type>
               <who>
                  <reference value="Device/82363c47-d2db-4144-979c-12e519d4e9de"/>
               </who>
            </agent>
         </Provenance>
      </resource>
   </entry>
   <entry>
      <fullUrl value="urn:uuid:eb7eeead-94ca-42d0-a03f-8c345dd40c73"/>
      <resource>
         <PractitionerRole>
            <id value="eb7eeead-94ca-42d0-a03f-8c345dd40c73"/>
            <meta>
               <profile value="http://hl7.eu/fhir/base/StructureDefinition/practitionerRole-eu"/>
            </meta>
            <text>
               <status value="generated"/>
               <div xmlns="http://www.w3.org/1999/xhtml">Laboratory Role Id: eb7eeead-94ca-42d0-a03f-8c345dd40c73</div>
            </text>
            <practitioner>
               <reference value="urn:uuid:0ad90a41-38d6-42b1-bb56-9644c5148155"/>
            </practitioner>
         </PractitionerRole>
      </resource>
   </entry>
   <entry>
      <fullUrl value="urn:uuid:0ad90a41-38d6-42b1-bb56-9644c5148155"/>
      <resource>
         <Practitioner>
            <id value="0ad90a41-38d6-42b1-bb56-9644c5148155"/>
            <meta>
               <profile value="http://hl7.eu/fhir/base/StructureDefinition/practitioner-eu"/>
            </meta>
            <text>
               <status value="generated"/>
               <div xmlns="http://www.w3.org/1999/xhtml">Laboratory: Laboratoire Central Européenne, 1000 Brussels, Belgium</div>
            </text>
            <identifier>
               <system value="urn:oid:2.16.840.1.113883.2.51.999"/>
               <value value="92f09186-30ed-4850-b743-005e85c0403b"/>
               <assigner>
                  <display value="HL7 Europe"/>
               </assigner>
            </identifier>
            <name>
               <family value="Ample"/>
               <given value="Ex"/>
               <prefix value="dr"/>
            </name>
            <address>
               <line value="Laboratoire Central Européenne"/>
               <line value="Boulevard du Jardin Botanique 32"/>
               <city value="Brussels"/>
               <postalCode value="1000"/>
               <country value="Belgium"/>
            </address>
         </Practitioner>
      </resource>
   </entry>
</Bundle>