{
  "resourceType": "Bundle",
  "id": "efca36f9-9f8d-45e6-a08e-6ba53d40ac44",
  "meta": {
    "profile": [
      "http://hl7.eu/fhir/laboratory/StructureDefinition/Bundle-eu-lab"
    ]
  },
  "identifier": {
    "assigner": {
      "display": "HL7 Europe"
    },
    "system": "urn:oid:2.16.840.1.113883.2.51.999",
    "value": "a3a0e935-26cf-4a9a-a097-e1878efa1779"
  },
  "entry": [
    {
      "fullUrl": "urn:uuid:4fb5b4dc-0439-4bc3-9d74-54cc94f2838e",
      "resource": {
        "resourceType": "Composition",
        "id": "4fb5b4dc-0439-4bc3-9d74-54cc94f2838e",
        "meta": {
          "profile": [
            "http://hl7.eu/fhir/laboratory/StructureDefinition/Composition-eu-lab"
          ]
        },
        "identifier": {
          "assigner": {
            "display": "HL7 Europe"
          },
          "system": "urn:oid:2.16.840.1.113883.2.51.999",
          "value": "bbd3dd27-14a3-49f1-ac66-2b295900fd97"
        },
        "author": [
          {
            "reference": "urn:uuid:a7098a00-955c-4787-8309-9cc1710d6fe8"
          }
        ],
        "category": [
          {
            "coding": [
              {
                "code": "26436-6",
                "system": "http://loinc.org",
                "display": "Laboratory studies (set)"
              }
            ]
          }
        ],
        "type": {
          "coding": [
            {
              "code": "11502-2",
              "system": "http://loinc.org",
              "display": "Laboratory report"
            }
          ],
          "text": "Laboratory Report"
        },
        "section": [
          {
            "code": {
              "coding": [
                {
                  "code": "26436-6",
                  "system": "http://loinc.org",
                  "display": "Laboratory studies (set)"
                }
              ],
              "text": "Laboratory studies"
            },
            "section": [
              {
                "code": {
                  "coding": [
                    {
                      "code": "$18719-5",
                      "system": "http://loinc.org",
                      "display": "Chemistry studies (set)"
                    }
                  ],
                  "text": "Chemistry"
                },
                "entry": [
                  {
                    "reference": "urn:uuid:6888b305-220d-4f4c-8771-b4e8729a4982"
                  },
                  {
                    "reference": "urn:uuid:89c5774c-1912-4e09-b303-f38744a8b610"
                  },
                  {
                    "reference": "urn:uuid:309f4e84-0d57-4ebb-89c5-50ad61f531c0"
                  },
                  {
                    "reference": "urn:uuid:d5cb4e06-d6ef-4f32-9b77-fc117e9f3b97"
                  },
                  {
                    "reference": "urn:uuid:14197f8c-e98d-415a-a1d1-8c2d3c56bf2e"
                  },
                  {
                    "reference": "urn:uuid:9a071705-9652-4a30-8891-e007e9f3cc23"
                  },
                  {
                    "reference": "urn:uuid:539f55b8-fa22-4959-8075-6e56de77cf70"
                  },
                  {
                    "reference": "urn:uuid:75d5b954-3458-45ee-94c4-82333e984ce1"
                  },
                  {
                    "reference": "urn:uuid:edc2f9d3-b3dc-4f48-bc1a-662d068b4623"
                  }
                ],
                "text": {
                  "status": "generated",
                  "div": "<div xmlns=\"http://www.w3.org/1999/xhtml\"><h3>Chemistry</h3><table class=\"hl7__eu__lab__report\"><thead><tr><th>Test</th><th>28-JAN-2025</th><th>Reference&#xA0;Range</th><th>Unit</th></tr></thead><tbody><tr><td>Glucose [Mass/volume] in Serum or Plasma</td><td>81.0</td><td>70 - 139</td><td>mg/dL</td></tr><tr><td>Urea nitrogen [Mass/volume] in Serum or Plasma</td><td>15.3</td><td>7 - 20</td><td>mg/dL</td></tr><tr><td>Creatinine [Mass/volume] in Serum or Plasma</td><td><strong>2.0 H</strong></td><td>0.6 - 1.1</td><td>mg/dL</td></tr><tr><td>Calcium [Mass/volume] in Serum or Plasma</td><td>10.0</td><td>8.5 - 10.4</td><td>mg/dL</td></tr><tr><td>Sodium [Moles/volume] in Serum or Plasma</td><td>137.1</td><td>135 - 145</td><td>mmol/L</td></tr><tr><td>Potassium [Moles/volume] in Serum or Plasma</td><td>4.2</td><td>3.5 - 5.1</td><td>mmol/L</td></tr><tr><td>Chloride [Moles/volume] in Serum or Plasma</td><td>109.3</td><td>98 - 110</td><td>mmol/L</td></tr><tr><td>Carbon dioxide, total [Moles/volume] in Serum or Plasma</td><td>25.2</td><td>22 - 32</td><td>mmol/L</td></tr><tr><td>Ketones [Presence] in Urine by Test strip</td><td>Urine ketone test = +</td><td></td><td></td></tr></tbody></table></div>"
                },
                "title": "Chemistry"
              },
              {
                "code": {
                  "coding": [
                    {
                      "code": "$18729-4",
                      "system": "http://loinc.org",
                      "display": "Urinalysis studies (set)"
                    }
                  ],
                  "text": "Urinalysis"
                },
                "entry": [
                  {
                    "reference": "urn:uuid:aec90cc1-9088-4761-95e2-cdfffcea8109"
                  },
                  {
                    "reference": "urn:uuid:e4eaea4a-2b19-4e78-9153-35c95558e4b0"
                  },
                  {
                    "reference": "urn:uuid:ab10ac23-0b96-4e73-8363-7d623ac460ea"
                  },
                  {
                    "reference": "urn:uuid:ea408418-d69a-4be3-83d0-e52fc243bed1"
                  },
                  {
                    "reference": "urn:uuid:b5dd9c90-50f3-4b87-ab12-92ed760e46c6"
                  },
                  {
                    "reference": "urn:uuid:f5ca3834-f6b8-4208-9527-601d7687601c"
                  },
                  {
                    "reference": "urn:uuid:a8168591-77b5-4248-bc45-28397c912078"
                  },
                  {
                    "reference": "urn:uuid:9472b997-be0d-4f6f-9319-642fa32ca3b3"
                  },
                  {
                    "reference": "urn:uuid:3a2dfbad-52f7-4b83-8318-effb3b218f62"
                  },
                  {
                    "reference": "urn:uuid:98a14daf-6b74-4da5-a0c0-a720d0127b76"
                  },
                  {
                    "reference": "urn:uuid:18f75704-9954-4289-803a-26273dd27dcf"
                  },
                  {
                    "reference": "urn:uuid:81b21165-26e4-47c1-928b-42b2d7a07ebd"
                  }
                ],
                "text": {
                  "status": "generated",
                  "div": "<div xmlns=\"http://www.w3.org/1999/xhtml\"><h3>Urinalysis</h3><table class=\"hl7__eu__lab__report\"><thead><tr><th>Test</th><th>28-JAN-2025</th><th>Reference&#xA0;Range</th><th>Unit</th></tr></thead><tbody><tr><td>Glucose [Mass/volume] in Urine by Test strip</td><td><strong>0.6 H</strong></td><td>0 - 0</td><td>mg/dL</td></tr><tr><td>Glucose [Presence] in Urine by Test strip</td><td>++</td><td></td><td></td></tr><tr><td>Bilirubin.total [Mass/volume] in Urine by Test strip</td><td>0.7</td><td>0 - 1.6</td><td>mg/dL</td></tr><tr><td>Bilirubin.total [Presence] in Urine by Test strip</td><td>Finding of bilirubin in urine</td><td></td><td></td></tr><tr><td>Ketones [Mass/volume] in Urine by Test strip</td><td><strong>7.7 H</strong></td><td>0 - 0.5</td><td>mg/dL</td></tr><tr><td>Specific gravity of Urine by Test strip</td><td><strong>1.0 L</strong></td><td>1.005 - 1.03</td><td>{nominal}</td></tr><tr><td>pH of Urine by Test strip</td><td>6.0</td><td>4.5 - 7.5</td><td>pH</td></tr><tr><td>Protein [Mass/volume] in Urine by Test strip</td><td><strong>177.2 H</strong></td><td>0 - 15</td><td>mg/dL</td></tr><tr><td>Protein [Presence] in Urine by Test strip</td><td>Urine protein test = ++</td><td></td><td></td></tr><tr><td>Nitrite [Presence] in Urine by Test strip</td><td>Urine nitrite negative</td><td></td><td></td></tr><tr><td>Hemoglobin [Presence] in Urine by Test strip</td><td>Urine blood test = negative</td><td></td><td></td></tr><tr><td>Leukocyte esterase [Presence] in Urine by Test strip</td><td>Urine leukocyte test negative</td><td></td><td></td></tr></tbody></table></div>"
                },
                "title": "Urinalysis"
              },
              {
                "code": {
                  "coding": [
                    {
                      "code": "$LP7846-1",
                      "system": "http://loinc.org",
                      "display": "Specimen information"
                    }
                  ],
                  "text": "Specimen information"
                },
                "entry": [
                  {
                    "reference": "urn:uuid:6a6b1e99-2830-4201-ae8c-34aebf915c2a"
                  },
                  {
                    "reference": "urn:uuid:260974a9-3e86-4d11-85c0-ed4c85b67042"
                  },
                  {
                    "reference": "urn:uuid:934e7c9e-09a7-4d92-9a9f-5e42460f09f7"
                  },
                  {
                    "reference": "urn:uuid:7096669c-2180-4265-b983-483ab8ebd3b0"
                  }
                ],
                "text": {
                  "status": "generated",
                  "div": "<div xmlns=\"http://www.w3.org/1999/xhtml\"><h3>Specimen information</h3><table class=\"hl7__eu__lab__report\"><thead><tr><th>Test</th><th>28-JAN-2025</th><th>Specimen</th><th></th></tr></thead><tbody><tr><td>Appearance of Urine</td><td>Cloudy urine</td><td>Urine</td><td></td></tr><tr><td>Odor of Urine</td><td>Urine smell ammoniacal</td><td>Urine</td><td></td></tr><tr><td>Clarity of Urine</td><td>Translucent</td><td>Urine</td><td></td></tr><tr><td>Color of Urine</td><td>Brown color</td><td>Urine</td><td></td></tr></tbody></table></div>"
                },
                "title": "Specimen information"
              }
            ],
            "title": "Laboratory Report"
          },
          {
            "text": {
              "status": "generated",
              "div": "<div xmlns=\"http://www.w3.org/1999/xhtml\"><h3>Annotation</h3><table class=\"hl7__eu__lab__report\"><tr><th>Conclusion and Recommendations based on this report and previous findings known to us</th></tr><tr><td>The patient shows elevated serum creatinine, indicating impaired renal function. Urinalysis reveals significant proteinuria, glucosuria, and ketonuria, with low specific gravity and abnormal urine appearance (cloudy, brown, ammoniacal odor), but no evidence of infection (negative nitrites/leukocytes). Findings suggest possible diabetic nephropathy or another form of renal dysfunction with impaired concentrating ability. Further nephrological evaluation is recommended.</td></tr></table></div>"
            },
            "code": {
              "coding": [
                {
                  "system": "http://loinc.org",
                  "code": "48767-8",
                  "display": "Annotation comment"
                }
              ]
            },
            "title": "Annotation comment"
          }
        ],
        "status": "final",
        "subject": {
          "reference": "urn:uuid:e32aa8d5-c723-4e29-bf26-e181c320f8d5",
          "display": "Hortense Gallet"
        },
        "date": "2025-01-28T21:16:45Z",
        "title": "Laboratory Report",
        "confidentiality": "N"
      }
    },
    {
      "fullUrl": "urn:uuid:093487ee-1737-4cee-a1b3-cf2ef56b07ab",
      "resource": {
        "resourceType": "DiagnosticReport",
        "id": "093487ee-1737-4cee-a1b3-cf2ef56b07ab",
        "meta": {
          "profile": [
            "http://hl7.eu/fhir/laboratory/StructureDefinition/DiagnosticReport-eu-lab"
          ]
        },
        "identifier": [
          {
            "assigner": {
              "display": "HL7 Europe"
            },
            "system": "urn:oid:2.16.840.1.113883.2.51.999",
            "value": "331c3ac1-f06c-4a55-afd4-a7ff45758264"
          }
        ],
        "extension": [
          {
            "url": "http://hl7.org/fhir/5.0/StructureDefinition/extension-DiagnosticReport.composition",
            "valueReference": {
              "reference": "urn:uuid:bbd3dd27-14a3-49f1-ac66-2b295900fd97"
            }
          }
        ],
        "category": [
          {
            "coding": [
              {
                "code": "26436-6",
                "system": "http://loinc.org",
                "display": "Laboratory studies (set)"
              }
            ]
          }
        ],
        "specimen": [
          {
            "reference": "urn:uuid:8549565a-219f-420b-8a0d-175fc94127f5"
          },
          {
            "reference": "urn:uuid:d13e7fb3-5d56-448f-a11a-6e1e8bfc52ef"
          }
        ],
        "result": [
          {
            "reference": "urn:uuid:6888b305-220d-4f4c-8771-b4e8729a4982"
          },
          {
            "reference": "urn:uuid:89c5774c-1912-4e09-b303-f38744a8b610"
          },
          {
            "reference": "urn:uuid:309f4e84-0d57-4ebb-89c5-50ad61f531c0"
          },
          {
            "reference": "urn:uuid:d5cb4e06-d6ef-4f32-9b77-fc117e9f3b97"
          },
          {
            "reference": "urn:uuid:14197f8c-e98d-415a-a1d1-8c2d3c56bf2e"
          },
          {
            "reference": "urn:uuid:9a071705-9652-4a30-8891-e007e9f3cc23"
          },
          {
            "reference": "urn:uuid:539f55b8-fa22-4959-8075-6e56de77cf70"
          },
          {
            "reference": "urn:uuid:75d5b954-3458-45ee-94c4-82333e984ce1"
          },
          {
            "reference": "urn:uuid:6a6b1e99-2830-4201-ae8c-34aebf915c2a"
          },
          {
            "reference": "urn:uuid:260974a9-3e86-4d11-85c0-ed4c85b67042"
          },
          {
            "reference": "urn:uuid:934e7c9e-09a7-4d92-9a9f-5e42460f09f7"
          },
          {
            "reference": "urn:uuid:7096669c-2180-4265-b983-483ab8ebd3b0"
          },
          {
            "reference": "urn:uuid:aec90cc1-9088-4761-95e2-cdfffcea8109"
          },
          {
            "reference": "urn:uuid:e4eaea4a-2b19-4e78-9153-35c95558e4b0"
          },
          {
            "reference": "urn:uuid:ab10ac23-0b96-4e73-8363-7d623ac460ea"
          },
          {
            "reference": "urn:uuid:ea408418-d69a-4be3-83d0-e52fc243bed1"
          },
          {
            "reference": "urn:uuid:b5dd9c90-50f3-4b87-ab12-92ed760e46c6"
          },
          {
            "reference": "urn:uuid:edc2f9d3-b3dc-4f48-bc1a-662d068b4623"
          },
          {
            "reference": "urn:uuid:f5ca3834-f6b8-4208-9527-601d7687601c"
          },
          {
            "reference": "urn:uuid:a8168591-77b5-4248-bc45-28397c912078"
          },
          {
            "reference": "urn:uuid:9472b997-be0d-4f6f-9319-642fa32ca3b3"
          },
          {
            "reference": "urn:uuid:3a2dfbad-52f7-4b83-8318-effb3b218f62"
          },
          {
            "reference": "urn:uuid:98a14daf-6b74-4da5-a0c0-a720d0127b76"
          },
          {
            "reference": "urn:uuid:18f75704-9954-4289-803a-26273dd27dcf"
          },
          {
            "reference": "urn:uuid:81b21165-26e4-47c1-928b-42b2d7a07ebd"
          }
        ],
        "status": "registered",
        "code": {
          "coding": [
            {
              "code": "11502-2",
              "system": "http://loinc.org",
              "display": "Laboratory report"
            }
          ]
        },
        "subject": {
          "reference": "urn:uuid:e32aa8d5-c723-4e29-bf26-e181c320f8d5",
          "display": "Hortense Gallet"
        }
      }
    },
    {
      "fullUrl": "urn:uuid:e32aa8d5-c723-4e29-bf26-e181c320f8d5",
      "resource": {
        "resourceType": "Patient",
        "id": "e32aa8d5-c723-4e29-bf26-e181c320f8d5",
        "meta": {
          "security": [
            {
              "system": "http://terminology.hl7.org/CodeSystem/v3-ActReason",
              "code": "HTEST"
            },
            {
              "system": "http://terminology.hl7.org/CodeSystem/v3-ActReason",
              "code": "TRAIN"
            }
          ],
          "tag": [
            {
              "system": "https://synderai.net/fhir/CodeSystem/tags",
              "code": "synthetic",
              "display": "SYNDERAI Synthetic data"
            }
          ],
          "profile": [
            "http://hl7.eu/fhir/base/StructureDefinition/patient-eu-core"
          ]
        },
        "identifier": [
          {
            "type": {
              "coding": [
                {
                  "code": "PT",
                  "system": "http://terminology.hl7.org/CodeSystem/v2-0203"
                }
              ]
            },
            "system": "http://ec.europa.eu/identifier/eci",
            "value": "7727-126450-7"
          },
          {
            "type": {
              "coding": [
                {
                  "code": "MR",
                  "system": "http://terminology.hl7.org/CodeSystem/v2-0203"
                }
              ]
            },
            "system": "http://local.setting.eu/identifier",
            "value": "7f40b956-404d-dd5b-92ca-442ee97c8277"
          }
        ],
        "name": [
          {
            "family": "Gallet"
          },
          {
            "given": [
              "Hortense"
            ]
          },
          {
            "text": "Hortense Gallet"
          }
        ],
        "address": [
          {
            "line": [
              "98, boulevard de Faure"
            ],
            "use": "home",
            "type": "physical",
            "postalCode": "03210",
            "city": "Besson",
            "country": "France"
          }
        ],
        "telecom": [
          {
            "system": "phone",
            "value": "03 26 87 89 04"
          }
        ],
        "extension": [
          {
            "url": "http://hl7.org/fhir/StructureDefinition/patient-nationality",
            "valueCodeableConcept": {
              "coding": [
                {
                  "code": "FR",
                  "system": "http://hl7.org/fhir/ValueSet/country"
                }
              ]
            }
          }
        ],
        "text": {
          "status": "generated",
          "div": "<div xmlns=\"http://www.w3.org/1999/xhtml\"><table class=\"hl7__ips\"><tr><td>Hortense Gallet</td><td>female</td><td>14-Feb-1967</td></tr></table></div>"
        },
        "gender": "female",
        "birthDate": "1967-02-14"
      }
    },
    {
      "fullUrl": "urn:uuid:ffb07e37-25ad-4ced-bc47-33bf99fb884b",
      "resource": {
        "resourceType": "ServiceRequest",
        "id": "ffb07e37-25ad-4ced-bc47-33bf99fb884b",
        "meta": {
          "profile": [
            "http://hl7.eu/fhir/laboratory/StructureDefinition/ServiceRequest-eu-lab"
          ]
        },
        "identifier": [
          {
            "system": "http://example.org",
            "value": "87e1584f-5cd4-4569-9d87-57e0ebd72403"
          }
        ],
        "specimen": [
          {
            "reference": "urn:uuid:8549565a-219f-420b-8a0d-175fc94127f5"
          },
          {
            "reference": "urn:uuid:d13e7fb3-5d56-448f-a11a-6e1e8bfc52ef"
          }
        ],
        "reasonCode": [
          {
            "coding": [
              {
                "code": "431856006",
                "system": "http://snomed.info/sct",
                "display": "Chronic kidney disease stage 2"
              }
            ]
          },
          {
            "coding": [
              {
                "code": "90781000119102",
                "system": "http://snomed.info/sct",
                "display": "Microalbuminuria due to type 2 diabetes mellitus"
              }
            ]
          },
          {
            "coding": [
              {
                "code": "127013003",
                "system": "http://snomed.info/sct",
                "display": "Disorder of kidney due to diabetes mellitus"
              }
            ]
          },
          {
            "coding": [
              {
                "code": "431855005",
                "system": "http://snomed.info/sct",
                "display": "Chronic kidney disease stage 1"
              }
            ]
          },
          {
            "coding": [
              {
                "code": "59621000",
                "system": "http://snomed.info/sct",
                "display": "Essential hypertension"
              }
            ]
          }
        ],
        "status": "active",
        "intent": "order",
        "code": {
          "coding": [
            {
              "code": "108252007",
              "system": "http://snomed.info/sct",
              "display": "Laboratory procedure"
            }
          ]
        },
        "subject": {
          "reference": "urn:uuid:e32aa8d5-c723-4e29-bf26-e181c320f8d5",
          "display": "Hortense Gallet"
        },
        "requester": {
          "reference": "urn:uuid:a65243fd-e7f4-487f-b652-a894e1a5902e"
        }
      }
    },
    {
      "fullUrl": "urn:uuid:a65243fd-e7f4-487f-b652-a894e1a5902e",
      "resource": {
        "resourceType": "PractitionerRole",
        "id": "a65243fd-e7f4-487f-b652-a894e1a5902e",
        "meta": {
          "profile": [
            "http://hl7.eu/fhir/base/StructureDefinition/practitionerRole-eu"
          ]
        },
        "text": {
          "status": "generated",
          "div": "<div xmlns=\"http://www.w3.org/1999/xhtml\">Provider Role Id: a65243fd-e7f4-487f-b652-a894e1a5902e</div>"
        },
        "organization": {
          "reference": "urn:uuid:c2e9183f-badc-451b-90ce-248d5f5dd41c"
        }
      }
    },
    {
      "fullUrl": "urn:uuid:c2e9183f-badc-451b-90ce-248d5f5dd41c",
      "resource": {
        "resourceType": "Organization",
        "id": "c2e9183f-badc-451b-90ce-248d5f5dd41c",
        "meta": {
          "profile": [
            "http://hl7.eu/fhir/base/StructureDefinition/organization-eu"
          ]
        },
        "identifier": [
          {
            "assigner": {
              "display": "HL7 Europe"
            },
            "system": "urn:oid:2.16.840.1.113883.2.51.999",
            "value": "b0b6b961-1c97-4aa3-8322-253697e41855"
          }
        ],
        "address": [
          {
            "line": [
              "Rue Jean Jaurès 140"
            ],
            "city": "Vichy",
            "postalCode": "03200",
            "country": "France"
          }
        ],
        "text": {
          "status": "generated",
          "div": "<div xmlns=\"http://www.w3.org/1999/xhtml\">Provider Organization: Centre La Chrysalide</div>"
        },
        "name": "Centre La Chrysalide"
      }
    },
    {
      "fullUrl": "urn:uuid:8549565a-219f-420b-8a0d-175fc94127f5",
      "resource": {
        "resourceType": "Specimen",
        "id": "8549565a-219f-420b-8a0d-175fc94127f5",
        "meta": {
          "profile": [
            "http://hl7.eu/fhir/laboratory/StructureDefinition/Specimen-eu-lab"
          ]
        },
        "collection": {
          "collectedDateTime": "2025-01-28"
        },
        "text": {
          "status": "generated",
          "div": "<div xmlns=\"http://www.w3.org/1999/xhtml\"><table class=\"hl7__eu__lab__report\"><tr><th>Specimen</th><th>Collection Date</th></tr><tr><td>Acellular blood (serum or plasma) specimen</td><td><span class=\"nb\">28-Jan-2025</span></td></tr></table></div>"
        },
        "type": {
          "coding": [
            {
              "code": "122592007",
              "system": "http://snomed.info/sct",
              "display": "Acellular blood (serum or plasma) specimen"
            }
          ]
        }
      }
    },
    {
      "fullUrl": "urn:uuid:d13e7fb3-5d56-448f-a11a-6e1e8bfc52ef",
      "resource": {
        "resourceType": "Specimen",
        "id": "d13e7fb3-5d56-448f-a11a-6e1e8bfc52ef",
        "meta": {
          "profile": [
            "http://hl7.eu/fhir/laboratory/StructureDefinition/Specimen-eu-lab"
          ]
        },
        "collection": {
          "collectedDateTime": "2025-01-28"
        },
        "text": {
          "status": "generated",
          "div": "<div xmlns=\"http://www.w3.org/1999/xhtml\"><table class=\"hl7__eu__lab__report\"><tr><th>Specimen</th><th>Collection Date</th></tr><tr><td>Urine specimen</td><td><span class=\"nb\">28-Jan-2025</span></td></tr></table></div>"
        },
        "type": {
          "coding": [
            {
              "code": "122575003",
              "system": "http://snomed.info/sct",
              "display": "Urine specimen"
            }
          ]
        }
      }
    },
    {
      "fullUrl": "urn:uuid:6888b305-220d-4f4c-8771-b4e8729a4982",
      "resource": {
        "resourceType": "Observation",
        "id": "6888b305-220d-4f4c-8771-b4e8729a4982",
        "meta": {
          "profile": [
            "http://hl7.eu/fhir/laboratory/StructureDefinition/Observation-resultslab-eu-lab"
          ]
        },
        "performer": [
          {
            "display": "The Central European Lab"
          }
        ],
        "category": [
          {
            "coding": [
              {
                "system": "http://terminology.hl7.org/CodeSystem/observation-category",
                "code": "laboratory"
              }
            ]
          }
        ],
        "code": {
          "coding": [
            {
              "code": "2345-7",
              "system": "http://loinc.org",
              "display": "Glucose [Mass/volume] in Serum or Plasma"
            }
          ],
          "text": "Glucose [Mass/volume] in Serum or Plasma"
        },
        "valueQuantity": {
          "system": "http://unitsofmeasure.org",
          "value": 81,
          "unit": "mg/dL",
          "code": "mg/dL"
        },
        "referenceRange": [
          {
            "low": {
              "value": 70,
              "code": "mg/dL",
              "system": "http://unitsofmeasure.org"
            }
          },
          {
            "high": {
              "value": 139,
              "code": "mg/dL",
              "system": "http://unitsofmeasure.org"
            }
          }
        ],
        "text": {
          "status": "generated",
          "div": "<div xmlns=\"http://www.w3.org/1999/xhtml\"><table class=\"hl7__eu__lab__report\"><tr><th>Test</th><th>28-Jan-2025</th><th>Reference&#xA0;Range</th><th>Unit</th></tr><tr><td>Glucose [Mass/volume] in Serum or Plasma</td><td>81.0</td><td>70 - 139</td><td></td><td>mg/dL</td></tr></table></div>"
        },
        "status": "final",
        "subject": {
          "reference": "urn:uuid:e32aa8d5-c723-4e29-bf26-e181c320f8d5",
          "display": "Hortense Gallet"
        },
        "effectiveDateTime": "2025-01-28T20:16:45Z",
        "specimen": {
          "reference": "urn:uuid:8549565a-219f-420b-8a0d-175fc94127f5"
        }
      }
    },
    {
      "fullUrl": "urn:uuid:89c5774c-1912-4e09-b303-f38744a8b610",
      "resource": {
        "resourceType": "Observation",
        "id": "89c5774c-1912-4e09-b303-f38744a8b610",
        "meta": {
          "profile": [
            "http://hl7.eu/fhir/laboratory/StructureDefinition/Observation-resultslab-eu-lab"
          ]
        },
        "performer": [
          {
            "display": "The Central European Lab"
          }
        ],
        "category": [
          {
            "coding": [
              {
                "system": "http://terminology.hl7.org/CodeSystem/observation-category",
                "code": "laboratory"
              }
            ]
          }
        ],
        "code": {
          "coding": [
            {
              "code": "3094-0",
              "system": "http://loinc.org",
              "display": "Urea nitrogen [Mass/volume] in Serum or Plasma"
            }
          ],
          "text": "Urea nitrogen [Mass/volume] in Serum or Plasma"
        },
        "valueQuantity": {
          "system": "http://unitsofmeasure.org",
          "value": 15.3,
          "unit": "mg/dL",
          "code": "mg/dL"
        },
        "referenceRange": [
          {
            "low": {
              "value": 7,
              "code": "mg/dL",
              "system": "http://unitsofmeasure.org"
            }
          },
          {
            "high": {
              "value": 20,
              "code": "mg/dL",
              "system": "http://unitsofmeasure.org"
            }
          }
        ],
        "text": {
          "status": "generated",
          "div": "<div xmlns=\"http://www.w3.org/1999/xhtml\"><table class=\"hl7__eu__lab__report\"><tr><th>Test</th><th>28-Jan-2025</th><th>Reference&#xA0;Range</th><th>Unit</th></tr><tr><td>Urea nitrogen [Mass/volume] in Serum or Plasma</td><td>15.3</td><td>7 - 20</td><td></td><td>mg/dL</td></tr></table></div>"
        },
        "status": "final",
        "subject": {
          "reference": "urn:uuid:e32aa8d5-c723-4e29-bf26-e181c320f8d5",
          "display": "Hortense Gallet"
        },
        "effectiveDateTime": "2025-01-28T20:16:45Z",
        "specimen": {
          "reference": "urn:uuid:8549565a-219f-420b-8a0d-175fc94127f5"
        }
      }
    },
    {
      "fullUrl": "urn:uuid:309f4e84-0d57-4ebb-89c5-50ad61f531c0",
      "resource": {
        "resourceType": "Observation",
        "id": "309f4e84-0d57-4ebb-89c5-50ad61f531c0",
        "meta": {
          "profile": [
            "http://hl7.eu/fhir/laboratory/StructureDefinition/Observation-resultslab-eu-lab"
          ]
        },
        "performer": [
          {
            "display": "The Central European Lab"
          }
        ],
        "category": [
          {
            "coding": [
              {
                "system": "http://terminology.hl7.org/CodeSystem/observation-category",
                "code": "laboratory"
              }
            ]
          }
        ],
        "code": {
          "coding": [
            {
              "code": "2160-0",
              "system": "http://loinc.org",
              "display": "Creatinine [Mass/volume] in Serum or Plasma"
            }
          ],
          "text": "Creatinine [Mass/volume] in Serum or Plasma"
        },
        "valueQuantity": {
          "system": "http://unitsofmeasure.org",
          "value": 2,
          "unit": "mg/dL",
          "code": "mg/dL"
        },
        "referenceRange": [
          {
            "low": {
              "value": 0.6,
              "code": "mg/dL",
              "system": "http://unitsofmeasure.org"
            }
          },
          {
            "high": {
              "value": 1.1,
              "code": "mg/dL",
              "system": "http://unitsofmeasure.org"
            }
          }
        ],
        "interpretation": [
          {
            "coding": [
              {
                "code": "H",
                "system": "http://terminology.hl7.org/CodeSystem/v3-ObservationInterpretation",
                "display": "High"
              }
            ]
          }
        ],
        "text": {
          "status": "generated",
          "div": "<div xmlns=\"http://www.w3.org/1999/xhtml\"><table class=\"hl7__eu__lab__report\"><tr><th>Test</th><th>28-Jan-2025</th><th>Reference&#xA0;Range</th><th>Unit</th></tr><tr><td>Creatinine [Mass/volume] in Serum or Plasma</td><td>2.0</td><td>0.6 - 1.1</td><td>H</td><td>mg/dL</td></tr></table></div>"
        },
        "status": "final",
        "subject": {
          "reference": "urn:uuid:e32aa8d5-c723-4e29-bf26-e181c320f8d5",
          "display": "Hortense Gallet"
        },
        "effectiveDateTime": "2025-01-28T20:16:45Z",
        "specimen": {
          "reference": "urn:uuid:8549565a-219f-420b-8a0d-175fc94127f5"
        }
      }
    },
    {
      "fullUrl": "urn:uuid:d5cb4e06-d6ef-4f32-9b77-fc117e9f3b97",
      "resource": {
        "resourceType": "Observation",
        "id": "d5cb4e06-d6ef-4f32-9b77-fc117e9f3b97",
        "meta": {
          "profile": [
            "http://hl7.eu/fhir/laboratory/StructureDefinition/Observation-resultslab-eu-lab"
          ]
        },
        "performer": [
          {
            "display": "The Central European Lab"
          }
        ],
        "category": [
          {
            "coding": [
              {
                "system": "http://terminology.hl7.org/CodeSystem/observation-category",
                "code": "laboratory"
              }
            ]
          }
        ],
        "code": {
          "coding": [
            {
              "code": "17861-6",
              "system": "http://loinc.org",
              "display": "Calcium [Mass/volume] in Serum or Plasma"
            }
          ],
          "text": "Calcium [Mass/volume] in Serum or Plasma"
        },
        "valueQuantity": {
          "system": "http://unitsofmeasure.org",
          "value": 10,
          "unit": "mg/dL",
          "code": "mg/dL"
        },
        "referenceRange": [
          {
            "low": {
              "value": 8.5,
              "code": "mg/dL",
              "system": "http://unitsofmeasure.org"
            }
          },
          {
            "high": {
              "value": 10.4,
              "code": "mg/dL",
              "system": "http://unitsofmeasure.org"
            }
          }
        ],
        "text": {
          "status": "generated",
          "div": "<div xmlns=\"http://www.w3.org/1999/xhtml\"><table class=\"hl7__eu__lab__report\"><tr><th>Test</th><th>28-Jan-2025</th><th>Reference&#xA0;Range</th><th>Unit</th></tr><tr><td>Calcium [Mass/volume] in Serum or Plasma</td><td>10.0</td><td>8.5 - 10.4</td><td></td><td>mg/dL</td></tr></table></div>"
        },
        "status": "final",
        "subject": {
          "reference": "urn:uuid:e32aa8d5-c723-4e29-bf26-e181c320f8d5",
          "display": "Hortense Gallet"
        },
        "effectiveDateTime": "2025-01-28T20:16:45Z",
        "specimen": {
          "reference": "urn:uuid:8549565a-219f-420b-8a0d-175fc94127f5"
        }
      }
    },
    {
      "fullUrl": "urn:uuid:14197f8c-e98d-415a-a1d1-8c2d3c56bf2e",
      "resource": {
        "resourceType": "Observation",
        "id": "14197f8c-e98d-415a-a1d1-8c2d3c56bf2e",
        "meta": {
          "profile": [
            "http://hl7.eu/fhir/laboratory/StructureDefinition/Observation-resultslab-eu-lab"
          ]
        },
        "performer": [
          {
            "display": "The Central European Lab"
          }
        ],
        "category": [
          {
            "coding": [
              {
                "system": "http://terminology.hl7.org/CodeSystem/observation-category",
                "code": "laboratory"
              }
            ]
          }
        ],
        "code": {
          "coding": [
            {
              "code": "2951-2",
              "system": "http://loinc.org",
              "display": "Sodium [Moles/volume] in Serum or Plasma"
            }
          ],
          "text": "Sodium [Moles/volume] in Serum or Plasma"
        },
        "valueQuantity": {
          "system": "http://unitsofmeasure.org",
          "value": 137.1,
          "unit": "mmol/L",
          "code": "mmol/L"
        },
        "referenceRange": [
          {
            "low": {
              "value": 135,
              "code": "mmol/L",
              "system": "http://unitsofmeasure.org"
            }
          },
          {
            "high": {
              "value": 145,
              "code": "mmol/L",
              "system": "http://unitsofmeasure.org"
            }
          }
        ],
        "text": {
          "status": "generated",
          "div": "<div xmlns=\"http://www.w3.org/1999/xhtml\"><table class=\"hl7__eu__lab__report\"><tr><th>Test</th><th>28-Jan-2025</th><th>Reference&#xA0;Range</th><th>Unit</th></tr><tr><td>Sodium [Moles/volume] in Serum or Plasma</td><td>137.1</td><td>135 - 145</td><td></td><td>mmol/L</td></tr></table></div>"
        },
        "status": "final",
        "subject": {
          "reference": "urn:uuid:e32aa8d5-c723-4e29-bf26-e181c320f8d5",
          "display": "Hortense Gallet"
        },
        "effectiveDateTime": "2025-01-28T20:16:45Z",
        "specimen": {
          "reference": "urn:uuid:8549565a-219f-420b-8a0d-175fc94127f5"
        }
      }
    },
    {
      "fullUrl": "urn:uuid:9a071705-9652-4a30-8891-e007e9f3cc23",
      "resource": {
        "resourceType": "Observation",
        "id": "9a071705-9652-4a30-8891-e007e9f3cc23",
        "meta": {
          "profile": [
            "http://hl7.eu/fhir/laboratory/StructureDefinition/Observation-resultslab-eu-lab"
          ]
        },
        "performer": [
          {
            "display": "The Central European Lab"
          }
        ],
        "category": [
          {
            "coding": [
              {
                "system": "http://terminology.hl7.org/CodeSystem/observation-category",
                "code": "laboratory"
              }
            ]
          }
        ],
        "code": {
          "coding": [
            {
              "code": "2823-3",
              "system": "http://loinc.org",
              "display": "Potassium [Moles/volume] in Serum or Plasma"
            }
          ],
          "text": "Potassium [Moles/volume] in Serum or Plasma"
        },
        "valueQuantity": {
          "system": "http://unitsofmeasure.org",
          "value": 4.2,
          "unit": "mmol/L",
          "code": "mmol/L"
        },
        "referenceRange": [
          {
            "low": {
              "value": 3.5,
              "code": "mmol/L",
              "system": "http://unitsofmeasure.org"
            }
          },
          {
            "high": {
              "value": 5.1,
              "code": "mmol/L",
              "system": "http://unitsofmeasure.org"
            }
          }
        ],
        "text": {
          "status": "generated",
          "div": "<div xmlns=\"http://www.w3.org/1999/xhtml\"><table class=\"hl7__eu__lab__report\"><tr><th>Test</th><th>28-Jan-2025</th><th>Reference&#xA0;Range</th><th>Unit</th></tr><tr><td>Potassium [Moles/volume] in Serum or Plasma</td><td>4.2</td><td>3.5 - 5.1</td><td></td><td>mmol/L</td></tr></table></div>"
        },
        "status": "final",
        "subject": {
          "reference": "urn:uuid:e32aa8d5-c723-4e29-bf26-e181c320f8d5",
          "display": "Hortense Gallet"
        },
        "effectiveDateTime": "2025-01-28T20:16:45Z",
        "specimen": {
          "reference": "urn:uuid:8549565a-219f-420b-8a0d-175fc94127f5"
        }
      }
    },
    {
      "fullUrl": "urn:uuid:539f55b8-fa22-4959-8075-6e56de77cf70",
      "resource": {
        "resourceType": "Observation",
        "id": "539f55b8-fa22-4959-8075-6e56de77cf70",
        "meta": {
          "profile": [
            "http://hl7.eu/fhir/laboratory/StructureDefinition/Observation-resultslab-eu-lab"
          ]
        },
        "performer": [
          {
            "display": "The Central European Lab"
          }
        ],
        "category": [
          {
            "coding": [
              {
                "system": "http://terminology.hl7.org/CodeSystem/observation-category",
                "code": "laboratory"
              }
            ]
          }
        ],
        "code": {
          "coding": [
            {
              "code": "2075-0",
              "system": "http://loinc.org",
              "display": "Chloride [Moles/volume] in Serum or Plasma"
            }
          ],
          "text": "Chloride [Moles/volume] in Serum or Plasma"
        },
        "valueQuantity": {
          "system": "http://unitsofmeasure.org",
          "value": 109.3,
          "unit": "mmol/L",
          "code": "mmol/L"
        },
        "referenceRange": [
          {
            "low": {
              "value": 98,
              "code": "mmol/L",
              "system": "http://unitsofmeasure.org"
            }
          },
          {
            "high": {
              "value": 110,
              "code": "mmol/L",
              "system": "http://unitsofmeasure.org"
            }
          }
        ],
        "text": {
          "status": "generated",
          "div": "<div xmlns=\"http://www.w3.org/1999/xhtml\"><table class=\"hl7__eu__lab__report\"><tr><th>Test</th><th>28-Jan-2025</th><th>Reference&#xA0;Range</th><th>Unit</th></tr><tr><td>Chloride [Moles/volume] in Serum or Plasma</td><td>109.3</td><td>98 - 110</td><td></td><td>mmol/L</td></tr></table></div>"
        },
        "status": "final",
        "subject": {
          "reference": "urn:uuid:e32aa8d5-c723-4e29-bf26-e181c320f8d5",
          "display": "Hortense Gallet"
        },
        "effectiveDateTime": "2025-01-28T20:16:45Z",
        "specimen": {
          "reference": "urn:uuid:8549565a-219f-420b-8a0d-175fc94127f5"
        }
      }
    },
    {
      "fullUrl": "urn:uuid:75d5b954-3458-45ee-94c4-82333e984ce1",
      "resource": {
        "resourceType": "Observation",
        "id": "75d5b954-3458-45ee-94c4-82333e984ce1",
        "meta": {
          "profile": [
            "http://hl7.eu/fhir/laboratory/StructureDefinition/Observation-resultslab-eu-lab"
          ]
        },
        "performer": [
          {
            "display": "The Central European Lab"
          }
        ],
        "category": [
          {
            "coding": [
              {
                "system": "http://terminology.hl7.org/CodeSystem/observation-category",
                "code": "laboratory"
              }
            ]
          }
        ],
        "code": {
          "coding": [
            {
              "code": "2028-9",
              "system": "http://loinc.org",
              "display": "Carbon dioxide, total [Moles/volume] in Serum or Plasma"
            }
          ],
          "text": "Carbon dioxide, total [Moles/volume] in Serum or Plasma"
        },
        "valueQuantity": {
          "system": "http://unitsofmeasure.org",
          "value": 25.2,
          "unit": "mmol/L",
          "code": "mmol/L"
        },
        "referenceRange": [
          {
            "low": {
              "value": 22,
              "code": "mmol/L",
              "system": "http://unitsofmeasure.org"
            }
          },
          {
            "high": {
              "value": 32,
              "code": "mmol/L",
              "system": "http://unitsofmeasure.org"
            }
          }
        ],
        "text": {
          "status": "generated",
          "div": "<div xmlns=\"http://www.w3.org/1999/xhtml\"><table class=\"hl7__eu__lab__report\"><tr><th>Test</th><th>28-Jan-2025</th><th>Reference&#xA0;Range</th><th>Unit</th></tr><tr><td>Carbon dioxide, total [Moles/volume] in Serum or Plasma</td><td>25.2</td><td>22 - 32</td><td></td><td>mmol/L</td></tr></table></div>"
        },
        "status": "final",
        "subject": {
          "reference": "urn:uuid:e32aa8d5-c723-4e29-bf26-e181c320f8d5",
          "display": "Hortense Gallet"
        },
        "effectiveDateTime": "2025-01-28T20:16:45Z",
        "specimen": {
          "reference": "urn:uuid:8549565a-219f-420b-8a0d-175fc94127f5"
        }
      }
    },
    {
      "fullUrl": "urn:uuid:6a6b1e99-2830-4201-ae8c-34aebf915c2a",
      "resource": {
        "resourceType": "Observation",
        "id": "6a6b1e99-2830-4201-ae8c-34aebf915c2a",
        "meta": {
          "profile": [
            "http://hl7.eu/fhir/laboratory/StructureDefinition/Observation-resultslab-eu-lab"
          ]
        },
        "performer": [
          {
            "display": "The Central European Lab"
          }
        ],
        "category": [
          {
            "coding": [
              {
                "system": "http://terminology.hl7.org/CodeSystem/observation-category",
                "code": "laboratory"
              }
            ]
          }
        ],
        "code": {
          "coding": [
            {
              "code": "5767-9",
              "system": "http://loinc.org",
              "display": "Appearance of Urine"
            }
          ],
          "text": "Appearance of Urine"
        },
        "text": {
          "status": "generated",
          "div": "<div xmlns=\"http://www.w3.org/1999/xhtml\"><table class=\"hl7__eu__lab__report\"><tr><th>Test</th><th>28-Jan-2025</th><th>Reference&#xA0;Range</th><th>Unit</th></tr><tr><td>Appearance of Urine</td></tr></table></div>"
        },
        "status": "final",
        "subject": {
          "reference": "urn:uuid:e32aa8d5-c723-4e29-bf26-e181c320f8d5",
          "display": "Hortense Gallet"
        },
        "effectiveDateTime": "2025-01-28T20:16:45Z",
        "specimen": {
          "reference": "urn:uuid:d13e7fb3-5d56-448f-a11a-6e1e8bfc52ef"
        }
      }
    },
    {
      "fullUrl": "urn:uuid:260974a9-3e86-4d11-85c0-ed4c85b67042",
      "resource": {
        "resourceType": "Observation",
        "id": "260974a9-3e86-4d11-85c0-ed4c85b67042",
        "meta": {
          "profile": [
            "http://hl7.eu/fhir/laboratory/StructureDefinition/Observation-resultslab-eu-lab"
          ]
        },
        "performer": [
          {
            "display": "The Central European Lab"
          }
        ],
        "category": [
          {
            "coding": [
              {
                "system": "http://terminology.hl7.org/CodeSystem/observation-category",
                "code": "laboratory"
              }
            ]
          }
        ],
        "code": {
          "coding": [
            {
              "code": "34533-0",
              "system": "http://loinc.org",
              "display": "Odor of Urine"
            }
          ],
          "text": "Odor of Urine"
        },
        "text": {
          "status": "generated",
          "div": "<div xmlns=\"http://www.w3.org/1999/xhtml\"><table class=\"hl7__eu__lab__report\"><tr><th>Test</th><th>28-Jan-2025</th><th>Reference&#xA0;Range</th><th>Unit</th></tr><tr><td>Odor of Urine</td></tr></table></div>"
        },
        "status": "final",
        "subject": {
          "reference": "urn:uuid:e32aa8d5-c723-4e29-bf26-e181c320f8d5",
          "display": "Hortense Gallet"
        },
        "effectiveDateTime": "2025-01-28T20:16:45Z",
        "specimen": {
          "reference": "urn:uuid:d13e7fb3-5d56-448f-a11a-6e1e8bfc52ef"
        }
      }
    },
    {
      "fullUrl": "urn:uuid:934e7c9e-09a7-4d92-9a9f-5e42460f09f7",
      "resource": {
        "resourceType": "Observation",
        "id": "934e7c9e-09a7-4d92-9a9f-5e42460f09f7",
        "meta": {
          "profile": [
            "http://hl7.eu/fhir/laboratory/StructureDefinition/Observation-resultslab-eu-lab"
          ]
        },
        "performer": [
          {
            "display": "The Central European Lab"
          }
        ],
        "category": [
          {
            "coding": [
              {
                "system": "http://terminology.hl7.org/CodeSystem/observation-category",
                "code": "laboratory"
              }
            ]
          }
        ],
        "code": {
          "coding": [
            {
              "code": "32167-9",
              "system": "http://loinc.org",
              "display": "Clarity of Urine"
            }
          ],
          "text": "Clarity of Urine"
        },
        "text": {
          "status": "generated",
          "div": "<div xmlns=\"http://www.w3.org/1999/xhtml\"><table class=\"hl7__eu__lab__report\"><tr><th>Test</th><th>28-Jan-2025</th><th>Reference&#xA0;Range</th><th>Unit</th></tr><tr><td>Clarity of Urine</td></tr></table></div>"
        },
        "status": "final",
        "subject": {
          "reference": "urn:uuid:e32aa8d5-c723-4e29-bf26-e181c320f8d5",
          "display": "Hortense Gallet"
        },
        "effectiveDateTime": "2025-01-28T20:16:45Z",
        "specimen": {
          "reference": "urn:uuid:d13e7fb3-5d56-448f-a11a-6e1e8bfc52ef"
        }
      }
    },
    {
      "fullUrl": "urn:uuid:7096669c-2180-4265-b983-483ab8ebd3b0",
      "resource": {
        "resourceType": "Observation",
        "id": "7096669c-2180-4265-b983-483ab8ebd3b0",
        "meta": {
          "profile": [
            "http://hl7.eu/fhir/laboratory/StructureDefinition/Observation-resultslab-eu-lab"
          ]
        },
        "performer": [
          {
            "display": "The Central European Lab"
          }
        ],
        "category": [
          {
            "coding": [
              {
                "system": "http://terminology.hl7.org/CodeSystem/observation-category",
                "code": "laboratory"
              }
            ]
          }
        ],
        "code": {
          "coding": [
            {
              "code": "5778-6",
              "system": "http://loinc.org",
              "display": "Color of Urine"
            }
          ],
          "text": "Color of Urine"
        },
        "text": {
          "status": "generated",
          "div": "<div xmlns=\"http://www.w3.org/1999/xhtml\"><table class=\"hl7__eu__lab__report\"><tr><th>Test</th><th>28-Jan-2025</th><th>Reference&#xA0;Range</th><th>Unit</th></tr><tr><td>Color of Urine</td></tr></table></div>"
        },
        "status": "final",
        "subject": {
          "reference": "urn:uuid:e32aa8d5-c723-4e29-bf26-e181c320f8d5",
          "display": "Hortense Gallet"
        },
        "effectiveDateTime": "2025-01-28T20:16:45Z",
        "specimen": {
          "reference": "urn:uuid:d13e7fb3-5d56-448f-a11a-6e1e8bfc52ef"
        }
      }
    },
    {
      "fullUrl": "urn:uuid:aec90cc1-9088-4761-95e2-cdfffcea8109",
      "resource": {
        "resourceType": "Observation",
        "id": "aec90cc1-9088-4761-95e2-cdfffcea8109",
        "meta": {
          "profile": [
            "http://hl7.eu/fhir/laboratory/StructureDefinition/Observation-resultslab-eu-lab"
          ]
        },
        "performer": [
          {
            "display": "The Central European Lab"
          }
        ],
        "category": [
          {
            "coding": [
              {
                "system": "http://terminology.hl7.org/CodeSystem/observation-category",
                "code": "laboratory"
              }
            ]
          }
        ],
        "code": {
          "coding": [
            {
              "code": "5792-7",
              "system": "http://loinc.org",
              "display": "Glucose [Mass/volume] in Urine by Test strip"
            }
          ],
          "text": "Glucose [Mass/volume] in Urine by Test strip"
        },
        "valueQuantity": {
          "system": "http://unitsofmeasure.org",
          "value": 0.6,
          "unit": "mg/dL",
          "code": "mg/dL"
        },
        "referenceRange": [
          {
            "low": {
              "value": 0,
              "code": "mg/dL",
              "system": "http://unitsofmeasure.org"
            }
          },
          {
            "high": {
              "value": 0,
              "code": "mg/dL",
              "system": "http://unitsofmeasure.org"
            }
          }
        ],
        "interpretation": [
          {
            "coding": [
              {
                "code": "H",
                "system": "http://terminology.hl7.org/CodeSystem/v3-ObservationInterpretation",
                "display": "High"
              }
            ]
          }
        ],
        "text": {
          "status": "generated",
          "div": "<div xmlns=\"http://www.w3.org/1999/xhtml\"><table class=\"hl7__eu__lab__report\"><tr><th>Test</th><th>28-Jan-2025</th><th>Reference&#xA0;Range</th><th>Unit</th></tr><tr><td>Glucose [Mass/volume] in Urine by Test strip</td><td>0.6</td><td>0 - 0</td><td>H</td><td>mg/dL</td></tr></table></div>"
        },
        "status": "final",
        "subject": {
          "reference": "urn:uuid:e32aa8d5-c723-4e29-bf26-e181c320f8d5",
          "display": "Hortense Gallet"
        },
        "effectiveDateTime": "2025-01-28T20:16:45Z",
        "specimen": {
          "reference": "urn:uuid:d13e7fb3-5d56-448f-a11a-6e1e8bfc52ef"
        }
      }
    },
    {
      "fullUrl": "urn:uuid:e4eaea4a-2b19-4e78-9153-35c95558e4b0",
      "resource": {
        "resourceType": "Observation",
        "id": "e4eaea4a-2b19-4e78-9153-35c95558e4b0",
        "meta": {
          "profile": [
            "http://hl7.eu/fhir/laboratory/StructureDefinition/Observation-resultslab-eu-lab"
          ]
        },
        "performer": [
          {
            "display": "The Central European Lab"
          }
        ],
        "category": [
          {
            "coding": [
              {
                "system": "http://terminology.hl7.org/CodeSystem/observation-category",
                "code": "laboratory"
              }
            ]
          }
        ],
        "code": {
          "coding": [
            {
              "code": "25428-4",
              "system": "http://loinc.org",
              "display": "Glucose [Presence] in Urine by Test strip"
            }
          ],
          "text": "Glucose [Presence] in Urine by Test strip"
        },
        "text": {
          "status": "generated",
          "div": "<div xmlns=\"http://www.w3.org/1999/xhtml\"><table class=\"hl7__eu__lab__report\"><tr><th>Test</th><th>28-Jan-2025</th><th>Reference&#xA0;Range</th><th>Unit</th></tr><tr><td>Glucose [Presence] in Urine by Test strip</td></tr></table></div>"
        },
        "status": "final",
        "subject": {
          "reference": "urn:uuid:e32aa8d5-c723-4e29-bf26-e181c320f8d5",
          "display": "Hortense Gallet"
        },
        "effectiveDateTime": "2025-01-28T20:16:45Z",
        "specimen": {
          "reference": "urn:uuid:d13e7fb3-5d56-448f-a11a-6e1e8bfc52ef"
        }
      }
    },
    {
      "fullUrl": "urn:uuid:ab10ac23-0b96-4e73-8363-7d623ac460ea",
      "resource": {
        "resourceType": "Observation",
        "id": "ab10ac23-0b96-4e73-8363-7d623ac460ea",
        "meta": {
          "profile": [
            "http://hl7.eu/fhir/laboratory/StructureDefinition/Observation-resultslab-eu-lab"
          ]
        },
        "performer": [
          {
            "display": "The Central European Lab"
          }
        ],
        "category": [
          {
            "coding": [
              {
                "system": "http://terminology.hl7.org/CodeSystem/observation-category",
                "code": "laboratory"
              }
            ]
          }
        ],
        "code": {
          "coding": [
            {
              "code": "20505-4",
              "system": "http://loinc.org",
              "display": "Bilirubin.total [Mass/volume] in Urine by Test strip"
            }
          ],
          "text": "Bilirubin.total [Mass/volume] in Urine by Test strip"
        },
        "valueQuantity": {
          "system": "http://unitsofmeasure.org",
          "value": 0.7,
          "unit": "mg/dL",
          "code": "mg/dL"
        },
        "referenceRange": [
          {
            "low": {
              "value": 0,
              "code": "mg/dL",
              "system": "http://unitsofmeasure.org"
            }
          },
          {
            "high": {
              "value": 1.6,
              "code": "mg/dL",
              "system": "http://unitsofmeasure.org"
            }
          }
        ],
        "text": {
          "status": "generated",
          "div": "<div xmlns=\"http://www.w3.org/1999/xhtml\"><table class=\"hl7__eu__lab__report\"><tr><th>Test</th><th>28-Jan-2025</th><th>Reference&#xA0;Range</th><th>Unit</th></tr><tr><td>Bilirubin.total [Mass/volume] in Urine by Test strip</td><td>0.7</td><td>0 - 1.6</td><td></td><td>mg/dL</td></tr></table></div>"
        },
        "status": "final",
        "subject": {
          "reference": "urn:uuid:e32aa8d5-c723-4e29-bf26-e181c320f8d5",
          "display": "Hortense Gallet"
        },
        "effectiveDateTime": "2025-01-28T20:16:45Z",
        "specimen": {
          "reference": "urn:uuid:d13e7fb3-5d56-448f-a11a-6e1e8bfc52ef"
        }
      }
    },
    {
      "fullUrl": "urn:uuid:ea408418-d69a-4be3-83d0-e52fc243bed1",
      "resource": {
        "resourceType": "Observation",
        "id": "ea408418-d69a-4be3-83d0-e52fc243bed1",
        "meta": {
          "profile": [
            "http://hl7.eu/fhir/laboratory/StructureDefinition/Observation-resultslab-eu-lab"
          ]
        },
        "performer": [
          {
            "display": "The Central European Lab"
          }
        ],
        "category": [
          {
            "coding": [
              {
                "system": "http://terminology.hl7.org/CodeSystem/observation-category",
                "code": "laboratory"
              }
            ]
          }
        ],
        "code": {
          "coding": [
            {
              "code": "5770-3",
              "system": "http://loinc.org",
              "display": "Bilirubin.total [Presence] in Urine by Test strip"
            }
          ],
          "text": "Bilirubin.total [Presence] in Urine by Test strip"
        },
        "text": {
          "status": "generated",
          "div": "<div xmlns=\"http://www.w3.org/1999/xhtml\"><table class=\"hl7__eu__lab__report\"><tr><th>Test</th><th>28-Jan-2025</th><th>Reference&#xA0;Range</th><th>Unit</th></tr><tr><td>Bilirubin.total [Presence] in Urine by Test strip</td></tr></table></div>"
        },
        "status": "final",
        "subject": {
          "reference": "urn:uuid:e32aa8d5-c723-4e29-bf26-e181c320f8d5",
          "display": "Hortense Gallet"
        },
        "effectiveDateTime": "2025-01-28T20:16:45Z",
        "specimen": {
          "reference": "urn:uuid:d13e7fb3-5d56-448f-a11a-6e1e8bfc52ef"
        }
      }
    },
    {
      "fullUrl": "urn:uuid:b5dd9c90-50f3-4b87-ab12-92ed760e46c6",
      "resource": {
        "resourceType": "Observation",
        "id": "b5dd9c90-50f3-4b87-ab12-92ed760e46c6",
        "meta": {
          "profile": [
            "http://hl7.eu/fhir/laboratory/StructureDefinition/Observation-resultslab-eu-lab"
          ]
        },
        "performer": [
          {
            "display": "The Central European Lab"
          }
        ],
        "category": [
          {
            "coding": [
              {
                "system": "http://terminology.hl7.org/CodeSystem/observation-category",
                "code": "laboratory"
              }
            ]
          }
        ],
        "code": {
          "coding": [
            {
              "code": "5797-6",
              "system": "http://loinc.org",
              "display": "Ketones [Mass/volume] in Urine by Test strip"
            }
          ],
          "text": "Ketones [Mass/volume] in Urine by Test strip"
        },
        "valueQuantity": {
          "system": "http://unitsofmeasure.org",
          "value": 7.7,
          "unit": "mg/dL",
          "code": "mg/dL"
        },
        "referenceRange": [
          {
            "low": {
              "value": 0,
              "code": "mg/dL",
              "system": "http://unitsofmeasure.org"
            }
          },
          {
            "high": {
              "value": 0.5,
              "code": "mg/dL",
              "system": "http://unitsofmeasure.org"
            }
          }
        ],
        "interpretation": [
          {
            "coding": [
              {
                "code": "H",
                "system": "http://terminology.hl7.org/CodeSystem/v3-ObservationInterpretation",
                "display": "High"
              }
            ]
          }
        ],
        "text": {
          "status": "generated",
          "div": "<div xmlns=\"http://www.w3.org/1999/xhtml\"><table class=\"hl7__eu__lab__report\"><tr><th>Test</th><th>28-Jan-2025</th><th>Reference&#xA0;Range</th><th>Unit</th></tr><tr><td>Ketones [Mass/volume] in Urine by Test strip</td><td>7.7</td><td>0 - 0.5</td><td>H</td><td>mg/dL</td></tr></table></div>"
        },
        "status": "final",
        "subject": {
          "reference": "urn:uuid:e32aa8d5-c723-4e29-bf26-e181c320f8d5",
          "display": "Hortense Gallet"
        },
        "effectiveDateTime": "2025-01-28T20:16:45Z",
        "specimen": {
          "reference": "urn:uuid:d13e7fb3-5d56-448f-a11a-6e1e8bfc52ef"
        }
      }
    },
    {
      "fullUrl": "urn:uuid:edc2f9d3-b3dc-4f48-bc1a-662d068b4623",
      "resource": {
        "resourceType": "Observation",
        "id": "edc2f9d3-b3dc-4f48-bc1a-662d068b4623",
        "meta": {
          "profile": [
            "http://hl7.eu/fhir/laboratory/StructureDefinition/Observation-resultslab-eu-lab"
          ]
        },
        "performer": [
          {
            "display": "The Central European Lab"
          }
        ],
        "category": [
          {
            "coding": [
              {
                "system": "http://terminology.hl7.org/CodeSystem/observation-category",
                "code": "laboratory"
              }
            ]
          }
        ],
        "code": {
          "coding": [
            {
              "code": "2514-8",
              "system": "http://loinc.org",
              "display": "Ketones [Presence] in Urine by Test strip"
            }
          ],
          "text": "Ketones [Presence] in Urine by Test strip"
        },
        "text": {
          "status": "generated",
          "div": "<div xmlns=\"http://www.w3.org/1999/xhtml\"><table class=\"hl7__eu__lab__report\"><tr><th>Test</th><th>28-Jan-2025</th><th>Reference&#xA0;Range</th><th>Unit</th></tr><tr><td>Ketones [Presence] in Urine by Test strip</td></tr></table></div>"
        },
        "status": "final",
        "subject": {
          "reference": "urn:uuid:e32aa8d5-c723-4e29-bf26-e181c320f8d5",
          "display": "Hortense Gallet"
        },
        "effectiveDateTime": "2025-01-28T20:16:45Z",
        "specimen": {
          "reference": "urn:uuid:d13e7fb3-5d56-448f-a11a-6e1e8bfc52ef"
        }
      }
    },
    {
      "fullUrl": "urn:uuid:f5ca3834-f6b8-4208-9527-601d7687601c",
      "resource": {
        "resourceType": "Observation",
        "id": "f5ca3834-f6b8-4208-9527-601d7687601c",
        "meta": {
          "profile": [
            "http://hl7.eu/fhir/laboratory/StructureDefinition/Observation-resultslab-eu-lab"
          ]
        },
        "performer": [
          {
            "display": "The Central European Lab"
          }
        ],
        "category": [
          {
            "coding": [
              {
                "system": "http://terminology.hl7.org/CodeSystem/observation-category",
                "code": "laboratory"
              }
            ]
          }
        ],
        "code": {
          "coding": [
            {
              "code": "5811-5",
              "system": "http://loinc.org",
              "display": "Specific gravity of Urine by Test strip"
            }
          ],
          "text": "Specific gravity of Urine by Test strip"
        },
        "valueQuantity": {
          "system": "http://unitsofmeasure.org",
          "value": 1,
          "unit": "{nominal}",
          "code": "{nominal}"
        },
        "referenceRange": [
          {
            "low": {
              "value": 1.005,
              "code": "g/mL",
              "system": "http://unitsofmeasure.org"
            }
          },
          {
            "high": {
              "value": 1.03,
              "code": "g/mL",
              "system": "http://unitsofmeasure.org"
            }
          }
        ],
        "interpretation": [
          {
            "coding": [
              {
                "code": "L",
                "system": "http://terminology.hl7.org/CodeSystem/v3-ObservationInterpretation",
                "display": "Low"
              }
            ]
          }
        ],
        "text": {
          "status": "generated",
          "div": "<div xmlns=\"http://www.w3.org/1999/xhtml\"><table class=\"hl7__eu__lab__report\"><tr><th>Test</th><th>28-Jan-2025</th><th>Reference&#xA0;Range</th><th>Unit</th></tr><tr><td>Specific gravity of Urine by Test strip</td><td>1.0</td><td>1.005 - 1.03</td><td>L</td><td>{nominal}</td></tr></table></div>"
        },
        "status": "final",
        "subject": {
          "reference": "urn:uuid:e32aa8d5-c723-4e29-bf26-e181c320f8d5",
          "display": "Hortense Gallet"
        },
        "effectiveDateTime": "2025-01-28T20:16:45Z",
        "specimen": {
          "reference": "urn:uuid:d13e7fb3-5d56-448f-a11a-6e1e8bfc52ef"
        }
      }
    },
    {
      "fullUrl": "urn:uuid:a8168591-77b5-4248-bc45-28397c912078",
      "resource": {
        "resourceType": "Observation",
        "id": "a8168591-77b5-4248-bc45-28397c912078",
        "meta": {
          "profile": [
            "http://hl7.eu/fhir/laboratory/StructureDefinition/Observation-resultslab-eu-lab"
          ]
        },
        "performer": [
          {
            "display": "The Central European Lab"
          }
        ],
        "category": [
          {
            "coding": [
              {
                "system": "http://terminology.hl7.org/CodeSystem/observation-category",
                "code": "laboratory"
              }
            ]
          }
        ],
        "code": {
          "coding": [
            {
              "code": "5803-2",
              "system": "http://loinc.org",
              "display": "pH of Urine by Test strip"
            }
          ],
          "text": "pH of Urine by Test strip"
        },
        "valueQuantity": {
          "system": "http://unitsofmeasure.org",
          "value": 6,
          "unit": "pH",
          "code": "pH"
        },
        "referenceRange": [
          {
            "low": {
              "value": 4.5,
              "code": "pH",
              "system": "http://unitsofmeasure.org"
            }
          },
          {
            "high": {
              "value": 7.5,
              "code": "pH",
              "system": "http://unitsofmeasure.org"
            }
          }
        ],
        "text": {
          "status": "generated",
          "div": "<div xmlns=\"http://www.w3.org/1999/xhtml\"><table class=\"hl7__eu__lab__report\"><tr><th>Test</th><th>28-Jan-2025</th><th>Reference&#xA0;Range</th><th>Unit</th></tr><tr><td>pH of Urine by Test strip</td><td>6.0</td><td>4.5 - 7.5</td><td></td><td>pH</td></tr></table></div>"
        },
        "status": "final",
        "subject": {
          "reference": "urn:uuid:e32aa8d5-c723-4e29-bf26-e181c320f8d5",
          "display": "Hortense Gallet"
        },
        "effectiveDateTime": "2025-01-28T20:16:45Z",
        "specimen": {
          "reference": "urn:uuid:d13e7fb3-5d56-448f-a11a-6e1e8bfc52ef"
        }
      }
    },
    {
      "fullUrl": "urn:uuid:9472b997-be0d-4f6f-9319-642fa32ca3b3",
      "resource": {
        "resourceType": "Observation",
        "id": "9472b997-be0d-4f6f-9319-642fa32ca3b3",
        "meta": {
          "profile": [
            "http://hl7.eu/fhir/laboratory/StructureDefinition/Observation-resultslab-eu-lab"
          ]
        },
        "performer": [
          {
            "display": "The Central European Lab"
          }
        ],
        "category": [
          {
            "coding": [
              {
                "system": "http://terminology.hl7.org/CodeSystem/observation-category",
                "code": "laboratory"
              }
            ]
          }
        ],
        "code": {
          "coding": [
            {
              "code": "5804-0",
              "system": "http://loinc.org",
              "display": "Protein [Mass/volume] in Urine by Test strip"
            }
          ],
          "text": "Protein [Mass/volume] in Urine by Test strip"
        },
        "valueQuantity": {
          "system": "http://unitsofmeasure.org",
          "value": 177.2,
          "unit": "mg/dL",
          "code": "mg/dL"
        },
        "referenceRange": [
          {
            "low": {
              "value": 0,
              "code": "mg/dL",
              "system": "http://unitsofmeasure.org"
            }
          },
          {
            "high": {
              "value": 15,
              "code": "mg/dL",
              "system": "http://unitsofmeasure.org"
            }
          }
        ],
        "interpretation": [
          {
            "coding": [
              {
                "code": "H",
                "system": "http://terminology.hl7.org/CodeSystem/v3-ObservationInterpretation",
                "display": "High"
              }
            ]
          }
        ],
        "text": {
          "status": "generated",
          "div": "<div xmlns=\"http://www.w3.org/1999/xhtml\"><table class=\"hl7__eu__lab__report\"><tr><th>Test</th><th>28-Jan-2025</th><th>Reference&#xA0;Range</th><th>Unit</th></tr><tr><td>Protein [Mass/volume] in Urine by Test strip</td><td>177.2</td><td>0 - 15</td><td>H</td><td>mg/dL</td></tr></table></div>"
        },
        "status": "final",
        "subject": {
          "reference": "urn:uuid:e32aa8d5-c723-4e29-bf26-e181c320f8d5",
          "display": "Hortense Gallet"
        },
        "effectiveDateTime": "2025-01-28T20:16:45Z",
        "specimen": {
          "reference": "urn:uuid:d13e7fb3-5d56-448f-a11a-6e1e8bfc52ef"
        }
      }
    },
    {
      "fullUrl": "urn:uuid:3a2dfbad-52f7-4b83-8318-effb3b218f62",
      "resource": {
        "resourceType": "Observation",
        "id": "3a2dfbad-52f7-4b83-8318-effb3b218f62",
        "meta": {
          "profile": [
            "http://hl7.eu/fhir/laboratory/StructureDefinition/Observation-resultslab-eu-lab"
          ]
        },
        "performer": [
          {
            "display": "The Central European Lab"
          }
        ],
        "category": [
          {
            "coding": [
              {
                "system": "http://terminology.hl7.org/CodeSystem/observation-category",
                "code": "laboratory"
              }
            ]
          }
        ],
        "code": {
          "coding": [
            {
              "code": "20454-5",
              "system": "http://loinc.org",
              "display": "Protein [Presence] in Urine by Test strip"
            }
          ],
          "text": "Protein [Presence] in Urine by Test strip"
        },
        "text": {
          "status": "generated",
          "div": "<div xmlns=\"http://www.w3.org/1999/xhtml\"><table class=\"hl7__eu__lab__report\"><tr><th>Test</th><th>28-Jan-2025</th><th>Reference&#xA0;Range</th><th>Unit</th></tr><tr><td>Protein [Presence] in Urine by Test strip</td></tr></table></div>"
        },
        "status": "final",
        "subject": {
          "reference": "urn:uuid:e32aa8d5-c723-4e29-bf26-e181c320f8d5",
          "display": "Hortense Gallet"
        },
        "effectiveDateTime": "2025-01-28T20:16:45Z",
        "specimen": {
          "reference": "urn:uuid:d13e7fb3-5d56-448f-a11a-6e1e8bfc52ef"
        }
      }
    },
    {
      "fullUrl": "urn:uuid:98a14daf-6b74-4da5-a0c0-a720d0127b76",
      "resource": {
        "resourceType": "Observation",
        "id": "98a14daf-6b74-4da5-a0c0-a720d0127b76",
        "meta": {
          "profile": [
            "http://hl7.eu/fhir/laboratory/StructureDefinition/Observation-resultslab-eu-lab"
          ]
        },
        "performer": [
          {
            "display": "The Central European Lab"
          }
        ],
        "category": [
          {
            "coding": [
              {
                "system": "http://terminology.hl7.org/CodeSystem/observation-category",
                "code": "laboratory"
              }
            ]
          }
        ],
        "code": {
          "coding": [
            {
              "code": "5802-4",
              "system": "http://loinc.org",
              "display": "Nitrite [Presence] in Urine by Test strip"
            }
          ],
          "text": "Nitrite [Presence] in Urine by Test strip"
        },
        "text": {
          "status": "generated",
          "div": "<div xmlns=\"http://www.w3.org/1999/xhtml\"><table class=\"hl7__eu__lab__report\"><tr><th>Test</th><th>28-Jan-2025</th><th>Reference&#xA0;Range</th><th>Unit</th></tr><tr><td>Nitrite [Presence] in Urine by Test strip</td></tr></table></div>"
        },
        "status": "final",
        "subject": {
          "reference": "urn:uuid:e32aa8d5-c723-4e29-bf26-e181c320f8d5",
          "display": "Hortense Gallet"
        },
        "effectiveDateTime": "2025-01-28T20:16:45Z",
        "specimen": {
          "reference": "urn:uuid:d13e7fb3-5d56-448f-a11a-6e1e8bfc52ef"
        }
      }
    },
    {
      "fullUrl": "urn:uuid:18f75704-9954-4289-803a-26273dd27dcf",
      "resource": {
        "resourceType": "Observation",
        "id": "18f75704-9954-4289-803a-26273dd27dcf",
        "meta": {
          "profile": [
            "http://hl7.eu/fhir/laboratory/StructureDefinition/Observation-resultslab-eu-lab"
          ]
        },
        "performer": [
          {
            "display": "The Central European Lab"
          }
        ],
        "category": [
          {
            "coding": [
              {
                "system": "http://terminology.hl7.org/CodeSystem/observation-category",
                "code": "laboratory"
              }
            ]
          }
        ],
        "code": {
          "coding": [
            {
              "code": "5794-3",
              "system": "http://loinc.org",
              "display": "Hemoglobin [Presence] in Urine by Test strip"
            }
          ],
          "text": "Hemoglobin [Presence] in Urine by Test strip"
        },
        "text": {
          "status": "generated",
          "div": "<div xmlns=\"http://www.w3.org/1999/xhtml\"><table class=\"hl7__eu__lab__report\"><tr><th>Test</th><th>28-Jan-2025</th><th>Reference&#xA0;Range</th><th>Unit</th></tr><tr><td>Hemoglobin [Presence] in Urine by Test strip</td></tr></table></div>"
        },
        "status": "final",
        "subject": {
          "reference": "urn:uuid:e32aa8d5-c723-4e29-bf26-e181c320f8d5",
          "display": "Hortense Gallet"
        },
        "effectiveDateTime": "2025-01-28T20:16:45Z",
        "specimen": {
          "reference": "urn:uuid:d13e7fb3-5d56-448f-a11a-6e1e8bfc52ef"
        }
      }
    },
    {
      "fullUrl": "urn:uuid:81b21165-26e4-47c1-928b-42b2d7a07ebd",
      "resource": {
        "resourceType": "Observation",
        "id": "81b21165-26e4-47c1-928b-42b2d7a07ebd",
        "meta": {
          "profile": [
            "http://hl7.eu/fhir/laboratory/StructureDefinition/Observation-resultslab-eu-lab"
          ]
        },
        "performer": [
          {
            "display": "The Central European Lab"
          }
        ],
        "category": [
          {
            "coding": [
              {
                "system": "http://terminology.hl7.org/CodeSystem/observation-category",
                "code": "laboratory"
              }
            ]
          }
        ],
        "code": {
          "coding": [
            {
              "code": "5799-2",
              "system": "http://loinc.org",
              "display": "Leukocyte esterase [Presence] in Urine by Test strip"
            }
          ],
          "text": "Leukocyte esterase [Presence] in Urine by Test strip"
        },
        "text": {
          "status": "generated",
          "div": "<div xmlns=\"http://www.w3.org/1999/xhtml\"><table class=\"hl7__eu__lab__report\"><tr><th>Test</th><th>28-Jan-2025</th><th>Reference&#xA0;Range</th><th>Unit</th></tr><tr><td>Leukocyte esterase [Presence] in Urine by Test strip</td></tr></table></div>"
        },
        "status": "final",
        "subject": {
          "reference": "urn:uuid:e32aa8d5-c723-4e29-bf26-e181c320f8d5",
          "display": "Hortense Gallet"
        },
        "effectiveDateTime": "2025-01-28T20:16:45Z",
        "specimen": {
          "reference": "urn:uuid:d13e7fb3-5d56-448f-a11a-6e1e8bfc52ef"
        }
      }
    },
    {
      "fullUrl": "urn:uuid:10ed9f46-e1fc-4b32-b943-b27c2eb4167d",
      "resource": {
        "resourceType": "Device",
        "id": "10ed9f46-e1fc-4b32-b943-b27c2eb4167d",
        "deviceName": [
          {
            "name": "SYNDERAI Synthetic Generator",
            "type": "manufacturer-name"
          }
        ],
        "version": [
          {
            "value": "5.0"
          }
        ],
        "text": {
          "status": "generated",
          "div": "<div xmlns=\"http://www.w3.org/1999/xhtml\">SYNDERAI Synthetic Generator v5.0</div>"
        },
        "status": "active\"",
        "distinctIdentifier": "synderai-generator-50",
        "manufacturer": "SYNDERAI Project"
      }
    },
    {
      "fullUrl": "urn:uuid:04c6782c-2761-45de-a5e9-8b101bc1fa72",
      "resource": {
        "resourceType": "Provenance",
        "id": "04c6782c-2761-45de-a5e9-8b101bc1fa72",
        "target": [
          {
            "reference": "Patient/e32aa8d5-c723-4e29-bf26-e181c320f8d5"
          },
          {
            "reference": "Bundle/efca36f9-9f8d-45e6-a08e-6ba53d40ac44"
          },
          {
            "reference": "Composition/4fb5b4dc-0439-4bc3-9d74-54cc94f2838e"
          },
          {
            "reference": "PractitionerRole/a7098a00-955c-4787-8309-9cc1710d6fe8"
          },
          {
            "reference": "Practitioner/6c68d9a5-6efc-478d-85a4-820b54b2bf93"
          },
          {
            "reference": "PractitionerRole/a65243fd-e7f4-487f-b652-a894e1a5902e"
          },
          {
            "reference": "Organization/c2e9183f-badc-451b-90ce-248d5f5dd41c"
          }
        ],
        "activity": {
          "text": "Synthetic Example Data Generation"
        },
        "policy": [
          "https://synderai.net/synderai-synthetic-data-policy"
        ],
        "agent": [
          {
            "type": {
              "text": "author"
            },
            "who": {
              "reference": "Device/10ed9f46-e1fc-4b32-b943-b27c2eb4167d"
            }
          }
        ],
        "reason": [
          {
            "text": "Interoperability Testing and Training (non-clinical use)"
          }
        ],
        "text": {
          "status": "generated",
          "div": "<div xmlns=\"http://www.w3.org/1999/xhtml\">Provenance for SYNDERAI Synthetic Example Data Resource</div>"
        },
        "recorded": "2025-01-28T21:16:45Z"
      }
    },
    {
      "fullUrl": "urn:uuid:a7098a00-955c-4787-8309-9cc1710d6fe8",
      "resource": {
        "resourceType": "PractitionerRole",
        "id": "a7098a00-955c-4787-8309-9cc1710d6fe8",
        "meta": {
          "profile": [
            "http://hl7.eu/fhir/base/StructureDefinition/practitionerRole-eu"
          ]
        },
        "text": {
          "status": "generated",
          "div": "<div xmlns=\"http://www.w3.org/1999/xhtml\">Laboratory Role Id: a7098a00-955c-4787-8309-9cc1710d6fe8</div>"
        },
        "practitioner": {
          "reference": "urn:uuid:6c68d9a5-6efc-478d-85a4-820b54b2bf93"
        }
      }
    },
    {
      "fullUrl": "urn:uuid:6c68d9a5-6efc-478d-85a4-820b54b2bf93",
      "resource": {
        "resourceType": "Practitioner",
        "id": "6c68d9a5-6efc-478d-85a4-820b54b2bf93",
        "meta": {
          "profile": [
            "http://hl7.eu/fhir/base/StructureDefinition/practitioner-eu"
          ]
        },
        "identifier": [
          {
            "assigner": {
              "display": "HL7 Europe"
            },
            "system": "urn:oid:2.16.840.1.113883.2.51.999",
            "value": "02cc327c-741c-437e-8f10-62bfdd0fc690"
          }
        ],
        "name": [
          {
            "prefix": [
              "dr"
            ],
            "given": [
              "Ex"
            ],
            "family": "Ample"
          }
        ],
        "address": [
          {
            "line": [
              "Laboratoire Central Européenne",
              "Boulevard du Jardin Botanique 32"
            ],
            "postalCode": "1000",
            "city": "Brussels",
            "country": "Belgium"
          }
        ],
        "text": {
          "status": "generated",
          "div": "<div xmlns=\"http://www.w3.org/1999/xhtml\">Laboratory: Laboratoire Central Européenne, 1000 Brussels, Belgium</div>"
        }
      }
    }
  ],
  "type": "document",
  "timestamp": "2025-01-28T21:16:45Z"
}
