{
  "resourceType": "Bundle",
  "id": "071466a1-77ab-4711-a7f9-ededb401fdeb",
  "meta": {
    "profile": [
      "http://hl7.eu/fhir/laboratory/StructureDefinition/Bundle-eu-lab"
    ]
  },
  "identifier": {
    "assigner": {
      "display": "HL7 Europe"
    },
    "system": "urn:oid:2.16.840.1.113883.2.51.999",
    "value": "0466892a-23ca-4f20-8f35-db5688b5bc6d"
  },
  "entry": [
    {
      "fullUrl": "urn:uuid:1cc8a20e-5cec-42d1-a4a2-ac34f7c18663",
      "resource": {
        "resourceType": "Composition",
        "id": "1cc8a20e-5cec-42d1-a4a2-ac34f7c18663",
        "meta": {
          "profile": [
            "http://hl7.eu/fhir/laboratory/StructureDefinition/Composition-eu-lab"
          ]
        },
        "identifier": {
          "assigner": {
            "display": "HL7 Europe"
          },
          "system": "urn:oid:2.16.840.1.113883.2.51.999",
          "value": "be640f83-7da6-4607-9026-c7292e4778a1"
        },
        "author": [
          {
            "reference": "urn:uuid:3e18913f-71cd-4cce-b764-b6ca357d1c2b"
          }
        ],
        "category": [
          {
            "coding": [
              {
                "code": "26436-6",
                "system": "http://loinc.org",
                "display": "Laboratory studies (set)"
              }
            ]
          }
        ],
        "type": {
          "coding": [
            {
              "code": "11502-2",
              "system": "http://loinc.org",
              "display": "Laboratory report"
            }
          ],
          "text": "Laboratory Report"
        },
        "section": [
          {
            "code": {
              "coding": [
                {
                  "code": "26436-6",
                  "system": "http://loinc.org",
                  "display": "Laboratory studies (set)"
                }
              ],
              "text": "Laboratory studies"
            },
            "section": [
              {
                "code": {
                  "coding": [
                    {
                      "code": "$18719-5",
                      "system": "http://loinc.org",
                      "display": "Chemistry studies (set)"
                    }
                  ],
                  "text": "Chemistry"
                },
                "entry": [
                  {
                    "reference": "urn:uuid:de805089-5102-4e95-99f1-388316c7de79"
                  },
                  {
                    "reference": "urn:uuid:6036e1df-1c8c-444f-bd71-9229107573d3"
                  },
                  {
                    "reference": "urn:uuid:2cac8d00-322f-441b-824b-eb6955c82226"
                  },
                  {
                    "reference": "urn:uuid:c7fb1d16-38f0-443e-9c49-2abb676066e6"
                  },
                  {
                    "reference": "urn:uuid:3cb5392d-da0e-4d41-a9f9-87a020f7349c"
                  },
                  {
                    "reference": "urn:uuid:e5cdf63c-055b-42e6-a64b-632d4c3ddd12"
                  },
                  {
                    "reference": "urn:uuid:5a9b7008-adfb-4192-b59a-3317ebad8f38"
                  },
                  {
                    "reference": "urn:uuid:614c54a4-c099-4b0f-be5b-b554720acde2"
                  },
                  {
                    "reference": "urn:uuid:23d42976-25b3-4734-9f01-e4bd617adbb4"
                  },
                  {
                    "reference": "urn:uuid:4ecc1f56-1041-43cb-aa6a-d7113f9013d4"
                  },
                  {
                    "reference": "urn:uuid:da23e16c-122f-4924-a901-fd0c9d27d49c"
                  },
                  {
                    "reference": "urn:uuid:1a3727b0-9ed5-46fc-aa59-bf5b899a2523"
                  },
                  {
                    "reference": "urn:uuid:e34928ae-8a23-4d2a-9697-b384033fa677"
                  },
                  {
                    "reference": "urn:uuid:45c52b11-96a3-4953-99db-9535ced9e6c8"
                  },
                  {
                    "reference": "urn:uuid:72ae8c1c-e3fc-45be-a492-6f7035cc6c41"
                  },
                  {
                    "reference": "urn:uuid:871a83fa-aed7-44f8-abc4-3f67b8cc3fc9"
                  },
                  {
                    "reference": "urn:uuid:fc7602c6-f874-4496-84df-b46f60244e88"
                  },
                  {
                    "reference": "urn:uuid:81515e47-49c9-48f1-a397-2e8ca017bb7f"
                  }
                ],
                "text": {
                  "status": "generated",
                  "div": "<div xmlns=\"http://www.w3.org/1999/xhtml\"><h3>Chemistry</h3><table class=\"hl7__eu__lab__report\"><thead><tr><th>Test</th><th>11-JAN-2017</th><th>Reference&#xA0;Range</th><th>Unit</th></tr></thead><tbody><tr><td>Glucose [Mass/volume] in Serum or Plasma</td><td>79.1</td><td>70 - 140</td><td>mg/dL</td></tr><tr><td>Urea nitrogen [Mass/volume] in Serum or Plasma</td><td>7.4</td><td>7 - 20</td><td>mg/dL</td></tr><tr><td>Creatinine [Mass/volume] in Serum or Plasma</td><td><strong>2.5 H</strong></td><td>0.6 - 1.3</td><td>mg/dL</td></tr><tr><td>Calcium [Mass/volume] in Serum or Plasma</td><td>9.7</td><td>8.6 - 10.4</td><td>mg/dL</td></tr><tr><td>Sodium [Moles/volume] in Serum or Plasma</td><td>139.5</td><td>135 - 145</td><td>mmol/L</td></tr><tr><td>Potassium [Moles/volume] in Serum or Plasma</td><td>4.5</td><td>3.5 - 5.1</td><td>mmol/L</td></tr><tr><td>Chloride [Moles/volume] in Serum or Plasma</td><td>106.5</td><td>98 - 108</td><td>mmol/L</td></tr><tr><td>Carbon dioxide, total [Moles/volume] in Serum or Plasma</td><td>25.5</td><td>22 - 32</td><td>mmol/L</td></tr><tr><td>Ketones [Presence] in Urine by Test strip</td><td>Urine ketone test = +++</td><td></td><td></td></tr><tr><td>Hemoglobin A1c/Hemoglobin.total in Blood</td><td><strong>3.1 L</strong></td><td>4.5 - 6.4</td><td>%</td></tr><tr><td>Glucose [Mass/volume] in Blood</td><td>79.1</td><td>70 - 140</td><td>mg/dL</td></tr><tr><td>Urea nitrogen [Mass/volume] in Blood</td><td>7.4</td><td>7 - 30</td><td>mg/dL</td></tr><tr><td>Creatinine [Mass/volume] in Blood</td><td><strong>4.9 H</strong></td><td>0.5 - 1.3</td><td>mg/dL</td></tr><tr><td>Calcium [Mass/volume] in Blood</td><td>9.7</td><td>8.6 - 10.2</td><td>mg/dL</td></tr><tr><td>Sodium [Moles/volume] in Blood</td><td>139.5</td><td>135 - 145</td><td>mmol/L</td></tr><tr><td>Potassium [Moles/volume] in Blood</td><td>4.5</td><td>3.5 - 5.1</td><td>mmol/L</td></tr><tr><td>Chloride [Moles/volume] in Blood</td><td>106.5</td><td>98 - 114</td><td>mmol/L</td></tr><tr><td>Carbon dioxide, total [Moles/volume] in Blood</td><td>25.5</td><td>22 - 32</td><td>mmol/L</td></tr></tbody></table></div>"
                },
                "title": "Chemistry"
              },
              {
                "code": {
                  "coding": [
                    {
                      "code": "$18729-4",
                      "system": "http://loinc.org",
                      "display": "Urinalysis studies (set)"
                    }
                  ],
                  "text": "Urinalysis"
                },
                "entry": [
                  {
                    "reference": "urn:uuid:d1e055b8-7b63-4fd5-866e-430b0ea659f4"
                  },
                  {
                    "reference": "urn:uuid:ac99b7d2-5f93-49bb-9c84-5222c484fac6"
                  },
                  {
                    "reference": "urn:uuid:69ff788b-8bf0-479b-8dce-af4f722f8086"
                  },
                  {
                    "reference": "urn:uuid:a46b88c0-48d4-401a-9b96-583249f0b4bc"
                  },
                  {
                    "reference": "urn:uuid:222574e9-25c6-4a25-b851-90876c86f06e"
                  },
                  {
                    "reference": "urn:uuid:989d3d01-2fb3-4a7c-aba1-21645b80c1af"
                  },
                  {
                    "reference": "urn:uuid:638de41b-fdcf-40cb-b257-d485ab349d64"
                  },
                  {
                    "reference": "urn:uuid:a486f1de-493b-42d5-a784-0b103a49cba6"
                  },
                  {
                    "reference": "urn:uuid:cd36489c-34dd-4a0d-aafe-b93f4475fd32"
                  },
                  {
                    "reference": "urn:uuid:262e1297-1e86-4fac-88ce-85116ce5b5da"
                  },
                  {
                    "reference": "urn:uuid:635fd25a-b891-4692-a314-f8f628bfd7a0"
                  },
                  {
                    "reference": "urn:uuid:c3cd88de-27d2-4b2c-8db1-ef5e6fd86a36"
                  }
                ],
                "text": {
                  "status": "generated",
                  "div": "<div xmlns=\"http://www.w3.org/1999/xhtml\"><h3>Urinalysis</h3><table class=\"hl7__eu__lab__report\"><thead><tr><th>Test</th><th>11-JAN-2017</th><th>Reference&#xA0;Range</th><th>Unit</th></tr></thead><tbody><tr><td>Glucose [Mass/volume] in Urine by Test strip</td><td><strong>1.5 H</strong></td><td>0.8 - 0</td><td>mg/dL</td></tr><tr><td>Glucose [Presence] in Urine by Test strip</td><td>++</td><td></td><td></td></tr><tr><td>Bilirubin.total [Mass/volume] in Urine by Test strip</td><td>0.8</td><td>0 - 1.5</td><td>mg/dL</td></tr><tr><td>Bilirubin.total [Presence] in Urine by Test strip</td><td>Finding of bilirubin in urine</td><td></td><td></td></tr><tr><td>Ketones [Mass/volume] in Urine by Test strip</td><td><strong>18.1 H</strong></td><td>0 - 8</td><td>mg/dL</td></tr><tr><td>Specific gravity of Urine by Test strip</td><td><strong>1.0 L</strong></td><td>1.01 - 1.03</td><td>{nominal}</td></tr><tr><td>pH of Urine by Test strip</td><td>5.9</td><td>4.6 - 7.5</td><td>pH</td></tr><tr><td>Protein [Mass/volume] in Urine by Test strip</td><td><strong>413.7 H</strong></td><td>0 - 14</td><td>mg/dL</td></tr><tr><td>Protein [Presence] in Urine by Test strip</td><td>Urine protein test = +++</td><td></td><td></td></tr><tr><td>Nitrite [Presence] in Urine by Test strip</td><td>Urine nitrite negative</td><td></td><td></td></tr><tr><td>Hemoglobin [Presence] in Urine by Test strip</td><td>Urine blood test = negative</td><td></td><td></td></tr><tr><td>Leukocyte esterase [Presence] in Urine by Test strip</td><td>Urine leukocyte test negative</td><td></td><td></td></tr></tbody></table></div>"
                },
                "title": "Urinalysis"
              },
              {
                "code": {
                  "coding": [
                    {
                      "code": "$LP7846-1",
                      "system": "http://loinc.org",
                      "display": "Specimen information"
                    }
                  ],
                  "text": "Specimen information"
                },
                "entry": [
                  {
                    "reference": "urn:uuid:9d59ccbb-7e12-4709-9943-1944f76e8ab8"
                  },
                  {
                    "reference": "urn:uuid:a086f0fd-396c-486d-84cb-3ab8da7293b1"
                  },
                  {
                    "reference": "urn:uuid:cf267299-03b2-42e3-afe9-5c844159a962"
                  },
                  {
                    "reference": "urn:uuid:db1d7f2d-f44e-4215-8b99-51b07964a071"
                  }
                ],
                "text": {
                  "status": "generated",
                  "div": "<div xmlns=\"http://www.w3.org/1999/xhtml\"><h3>Specimen information</h3><table class=\"hl7__eu__lab__report\"><thead><tr><th>Test</th><th>11-JAN-2017</th><th>Specimen</th><th></th></tr></thead><tbody><tr><td>Appearance of Urine</td><td>Cloudy urine</td><td>Urine</td><td></td></tr><tr><td>Odor of Urine</td><td>Urine smell ammoniacal</td><td>Urine</td><td></td></tr><tr><td>Clarity of Urine</td><td>Translucent</td><td>Urine</td><td></td></tr><tr><td>Color of Urine</td><td>Brown color</td><td>Urine</td><td></td></tr></tbody></table></div>"
                },
                "title": "Specimen information"
              }
            ],
            "title": "Laboratory Report"
          },
          {
            "text": {
              "status": "generated",
              "div": "<div xmlns=\"http://www.w3.org/1999/xhtml\"><h3>Annotation</h3><table class=\"hl7__eu__lab__report\"><tr><th>Conclusion and Recommendations based on this report and previous findings known to us</th></tr><tr><td>The patient shows markedly elevated creatinine, significant proteinuria, glycosuria, and ketonuria, with low urine specific gravity, suggesting severe renal impairment, likely chronic kidney disease with possible nephrotic features. The low HbA1c and normal blood glucose argue against diabetes as a primary cause. Urine findings (cloudy, brown, ammoniacal) may indicate underlying urinary tract pathology. Prompt nephrology evaluation is recommended.</td></tr></table></div>"
            },
            "code": {
              "coding": [
                {
                  "system": "http://loinc.org",
                  "code": "48767-8",
                  "display": "Annotation comment"
                }
              ]
            },
            "title": "Annotation comment"
          }
        ],
        "status": "final",
        "subject": {
          "reference": "urn:uuid:2a1dbc64-67ed-41a9-ae62-23a0b5d7305d",
          "display": "Maria Nohlmans"
        },
        "date": "2017-01-11T12:02:39Z",
        "title": "Laboratory Report",
        "confidentiality": "N"
      }
    },
    {
      "fullUrl": "urn:uuid:24526cb7-6b49-41d7-bd6c-3da35ee11c24",
      "resource": {
        "resourceType": "DiagnosticReport",
        "id": "24526cb7-6b49-41d7-bd6c-3da35ee11c24",
        "meta": {
          "profile": [
            "http://hl7.eu/fhir/laboratory/StructureDefinition/DiagnosticReport-eu-lab"
          ]
        },
        "identifier": [
          {
            "assigner": {
              "display": "HL7 Europe"
            },
            "system": "urn:oid:2.16.840.1.113883.2.51.999",
            "value": "933d6989-b6a6-4e55-aeaf-2adb92fc3947"
          }
        ],
        "extension": [
          {
            "url": "http://hl7.org/fhir/5.0/StructureDefinition/extension-DiagnosticReport.composition",
            "valueReference": {
              "reference": "urn:uuid:be640f83-7da6-4607-9026-c7292e4778a1"
            }
          }
        ],
        "category": [
          {
            "coding": [
              {
                "code": "26436-6",
                "system": "http://loinc.org",
                "display": "Laboratory studies (set)"
              }
            ]
          }
        ],
        "specimen": [
          {
            "reference": "urn:uuid:7b244179-1a76-44ff-ac43-58c3ca7101c8"
          },
          {
            "reference": "urn:uuid:87e9d5b4-1e24-4c1d-ac11-054638b98e7c"
          },
          {
            "reference": "urn:uuid:c760abae-f296-41f4-b9e1-889b5d909c75"
          }
        ],
        "result": [
          {
            "reference": "urn:uuid:de805089-5102-4e95-99f1-388316c7de79"
          },
          {
            "reference": "urn:uuid:6036e1df-1c8c-444f-bd71-9229107573d3"
          },
          {
            "reference": "urn:uuid:2cac8d00-322f-441b-824b-eb6955c82226"
          },
          {
            "reference": "urn:uuid:c7fb1d16-38f0-443e-9c49-2abb676066e6"
          },
          {
            "reference": "urn:uuid:3cb5392d-da0e-4d41-a9f9-87a020f7349c"
          },
          {
            "reference": "urn:uuid:e5cdf63c-055b-42e6-a64b-632d4c3ddd12"
          },
          {
            "reference": "urn:uuid:5a9b7008-adfb-4192-b59a-3317ebad8f38"
          },
          {
            "reference": "urn:uuid:614c54a4-c099-4b0f-be5b-b554720acde2"
          },
          {
            "reference": "urn:uuid:9d59ccbb-7e12-4709-9943-1944f76e8ab8"
          },
          {
            "reference": "urn:uuid:a086f0fd-396c-486d-84cb-3ab8da7293b1"
          },
          {
            "reference": "urn:uuid:cf267299-03b2-42e3-afe9-5c844159a962"
          },
          {
            "reference": "urn:uuid:db1d7f2d-f44e-4215-8b99-51b07964a071"
          },
          {
            "reference": "urn:uuid:d1e055b8-7b63-4fd5-866e-430b0ea659f4"
          },
          {
            "reference": "urn:uuid:ac99b7d2-5f93-49bb-9c84-5222c484fac6"
          },
          {
            "reference": "urn:uuid:69ff788b-8bf0-479b-8dce-af4f722f8086"
          },
          {
            "reference": "urn:uuid:a46b88c0-48d4-401a-9b96-583249f0b4bc"
          },
          {
            "reference": "urn:uuid:222574e9-25c6-4a25-b851-90876c86f06e"
          },
          {
            "reference": "urn:uuid:23d42976-25b3-4734-9f01-e4bd617adbb4"
          },
          {
            "reference": "urn:uuid:989d3d01-2fb3-4a7c-aba1-21645b80c1af"
          },
          {
            "reference": "urn:uuid:638de41b-fdcf-40cb-b257-d485ab349d64"
          },
          {
            "reference": "urn:uuid:a486f1de-493b-42d5-a784-0b103a49cba6"
          },
          {
            "reference": "urn:uuid:cd36489c-34dd-4a0d-aafe-b93f4475fd32"
          },
          {
            "reference": "urn:uuid:262e1297-1e86-4fac-88ce-85116ce5b5da"
          },
          {
            "reference": "urn:uuid:635fd25a-b891-4692-a314-f8f628bfd7a0"
          },
          {
            "reference": "urn:uuid:c3cd88de-27d2-4b2c-8db1-ef5e6fd86a36"
          },
          {
            "reference": "urn:uuid:4ecc1f56-1041-43cb-aa6a-d7113f9013d4"
          },
          {
            "reference": "urn:uuid:da23e16c-122f-4924-a901-fd0c9d27d49c"
          },
          {
            "reference": "urn:uuid:1a3727b0-9ed5-46fc-aa59-bf5b899a2523"
          },
          {
            "reference": "urn:uuid:e34928ae-8a23-4d2a-9697-b384033fa677"
          },
          {
            "reference": "urn:uuid:45c52b11-96a3-4953-99db-9535ced9e6c8"
          },
          {
            "reference": "urn:uuid:72ae8c1c-e3fc-45be-a492-6f7035cc6c41"
          },
          {
            "reference": "urn:uuid:871a83fa-aed7-44f8-abc4-3f67b8cc3fc9"
          },
          {
            "reference": "urn:uuid:fc7602c6-f874-4496-84df-b46f60244e88"
          },
          {
            "reference": "urn:uuid:81515e47-49c9-48f1-a397-2e8ca017bb7f"
          }
        ],
        "status": "registered",
        "code": {
          "coding": [
            {
              "code": "11502-2",
              "system": "http://loinc.org",
              "display": "Laboratory report"
            }
          ]
        },
        "subject": {
          "reference": "urn:uuid:2a1dbc64-67ed-41a9-ae62-23a0b5d7305d",
          "display": "Maria Nohlmans"
        }
      }
    },
    {
      "fullUrl": "urn:uuid:2a1dbc64-67ed-41a9-ae62-23a0b5d7305d",
      "resource": {
        "resourceType": "Patient",
        "id": "2a1dbc64-67ed-41a9-ae62-23a0b5d7305d",
        "meta": {
          "security": [
            {
              "system": "http://terminology.hl7.org/CodeSystem/v3-ActReason",
              "code": "HTEST"
            },
            {
              "system": "http://terminology.hl7.org/CodeSystem/v3-ActReason",
              "code": "TRAIN"
            }
          ],
          "tag": [
            {
              "system": "https://synderai.net/fhir/CodeSystem/tags",
              "code": "synthetic",
              "display": "SYNDERAI Synthetic data"
            }
          ],
          "profile": [
            "http://hl7.eu/fhir/base/StructureDefinition/patient-eu-core"
          ]
        },
        "identifier": [
          {
            "type": {
              "coding": [
                {
                  "code": "PT",
                  "system": "http://terminology.hl7.org/CodeSystem/v2-0203"
                }
              ]
            },
            "system": "http://ec.europa.eu/identifier/eci",
            "value": "6886-506417-1"
          },
          {
            "type": {
              "coding": [
                {
                  "code": "MR",
                  "system": "http://terminology.hl7.org/CodeSystem/v2-0203"
                }
              ]
            },
            "system": "http://local.setting.eu/identifier",
            "value": "2cb21ed6-b617-b1f3-2290-589a710de5ee"
          }
        ],
        "name": [
          {
            "family": "Nohlmans"
          },
          {
            "given": [
              "Maria"
            ]
          },
          {
            "text": "Maria Nohlmans"
          }
        ],
        "address": [
          {
            "line": [
              "Alfons-Wulff-Weg 1"
            ],
            "use": "home",
            "type": "physical",
            "postalCode": "25813",
            "city": "Husum",
            "country": "Germany"
          }
        ],
        "telecom": [
          {
            "system": "phone",
            "value": "+49(0)1911 105501"
          }
        ],
        "extension": [
          {
            "url": "http://hl7.org/fhir/StructureDefinition/patient-nationality",
            "valueCodeableConcept": {
              "coding": [
                {
                  "code": "DE",
                  "system": "http://hl7.org/fhir/ValueSet/country"
                }
              ]
            }
          }
        ],
        "text": {
          "status": "generated",
          "div": "<div xmlns=\"http://www.w3.org/1999/xhtml\"><table class=\"hl7__ips\"><tr><td>Maria Nohlmans</td><td>female</td><td>11-Jun-1947</td></tr></table></div>"
        },
        "gender": "female",
        "birthDate": "1947-06-11"
      }
    },
    {
      "fullUrl": "urn:uuid:3985eaa2-777a-4aac-9bd7-60da76124aee",
      "resource": {
        "resourceType": "ServiceRequest",
        "id": "3985eaa2-777a-4aac-9bd7-60da76124aee",
        "meta": {
          "profile": [
            "http://hl7.eu/fhir/laboratory/StructureDefinition/ServiceRequest-eu-lab"
          ]
        },
        "identifier": [
          {
            "system": "http://example.org",
            "value": "ffcb3bdf-53ab-4648-87ce-8f94333e53ab"
          }
        ],
        "specimen": [
          {
            "reference": "urn:uuid:7b244179-1a76-44ff-ac43-58c3ca7101c8"
          },
          {
            "reference": "urn:uuid:87e9d5b4-1e24-4c1d-ac11-054638b98e7c"
          },
          {
            "reference": "urn:uuid:c760abae-f296-41f4-b9e1-889b5d909c75"
          }
        ],
        "reasonCode": [
          {
            "coding": [
              {
                "code": "401314000",
                "system": "http://snomed.info/sct",
                "display": "Acute non-ST segment elevation myocardial infarction"
              }
            ]
          },
          {
            "coding": [
              {
                "code": "157141000119108",
                "system": "http://snomed.info/sct",
                "display": "Proteinuria due to type 2 diabetes mellitus"
              }
            ]
          },
          {
            "coding": [
              {
                "code": "237602007",
                "system": "http://snomed.info/sct",
                "display": "Metabolic syndrome X"
              }
            ]
          },
          {
            "coding": [
              {
                "code": "90781000119102",
                "system": "http://snomed.info/sct",
                "display": "Microalbuminuria due to type 2 diabetes mellitus"
              }
            ]
          },
          {
            "coding": [
              {
                "code": "127013003",
                "system": "http://snomed.info/sct",
                "display": "Disorder of kidney due to diabetes mellitus"
              }
            ]
          },
          {
            "coding": [
              {
                "code": "59621000",
                "system": "http://snomed.info/sct",
                "display": "Essential hypertension"
              }
            ]
          },
          {
            "coding": [
              {
                "code": "271737000",
                "system": "http://snomed.info/sct",
                "display": "Anemia"
              }
            ]
          },
          {
            "coding": [
              {
                "code": "15777000",
                "system": "http://snomed.info/sct",
                "display": "Prediabetes"
              }
            ]
          }
        ],
        "status": "active",
        "intent": "order",
        "code": {
          "coding": [
            {
              "code": "108252007",
              "system": "http://snomed.info/sct",
              "display": "Laboratory procedure"
            }
          ]
        },
        "subject": {
          "reference": "urn:uuid:2a1dbc64-67ed-41a9-ae62-23a0b5d7305d",
          "display": "Maria Nohlmans"
        },
        "requester": {
          "reference": "urn:uuid:c9dc65c6-9c43-49bb-817b-e13fd5623cae"
        }
      }
    },
    {
      "fullUrl": "urn:uuid:c9dc65c6-9c43-49bb-817b-e13fd5623cae",
      "resource": {
        "resourceType": "PractitionerRole",
        "id": "c9dc65c6-9c43-49bb-817b-e13fd5623cae",
        "meta": {
          "profile": [
            "http://hl7.eu/fhir/base/StructureDefinition/practitionerRole-eu"
          ]
        },
        "text": {
          "status": "generated",
          "div": "<div xmlns=\"http://www.w3.org/1999/xhtml\">Provider Role Id: c9dc65c6-9c43-49bb-817b-e13fd5623cae</div>"
        },
        "organization": {
          "reference": "urn:uuid:22a78bf6-5ad8-4b5d-b2f3-2a7f8c7ae20d"
        }
      }
    },
    {
      "fullUrl": "urn:uuid:22a78bf6-5ad8-4b5d-b2f3-2a7f8c7ae20d",
      "resource": {
        "resourceType": "Organization",
        "id": "22a78bf6-5ad8-4b5d-b2f3-2a7f8c7ae20d",
        "meta": {
          "profile": [
            "http://hl7.eu/fhir/base/StructureDefinition/organization-eu"
          ]
        },
        "identifier": [
          {
            "assigner": {
              "display": "HL7 Europe"
            },
            "system": "urn:oid:2.16.840.1.113883.2.51.999",
            "value": "960dcd71-0bb9-4f1b-a37e-b5eac13db625"
          }
        ],
        "address": [
          {
            "line": [
              "Brinckmannstraße 35"
            ],
            "city": "Husum",
            "postalCode": "25813",
            "country": "Germany"
          }
        ],
        "text": {
          "status": "generated",
          "div": "<div xmlns=\"http://www.w3.org/1999/xhtml\">Provider Organization: Dr. Wolfram Hussels Kieferorthopäde</div>"
        },
        "name": "Dr. Wolfram Hussels Kieferorthopäde"
      }
    },
    {
      "fullUrl": "urn:uuid:7b244179-1a76-44ff-ac43-58c3ca7101c8",
      "resource": {
        "resourceType": "Specimen",
        "id": "7b244179-1a76-44ff-ac43-58c3ca7101c8",
        "meta": {
          "profile": [
            "http://hl7.eu/fhir/laboratory/StructureDefinition/Specimen-eu-lab"
          ]
        },
        "collection": {
          "collectedDateTime": "2017-01-11"
        },
        "text": {
          "status": "generated",
          "div": "<div xmlns=\"http://www.w3.org/1999/xhtml\"><table class=\"hl7__eu__lab__report\"><tr><th>Specimen</th><th>Collection Date</th></tr><tr><td>Acellular blood (serum or plasma) specimen</td><td><span class=\"nb\">11-Jan-2017</span></td></tr></table></div>"
        },
        "type": {
          "coding": [
            {
              "code": "122592007",
              "system": "http://snomed.info/sct",
              "display": "Acellular blood (serum or plasma) specimen"
            }
          ]
        }
      }
    },
    {
      "fullUrl": "urn:uuid:87e9d5b4-1e24-4c1d-ac11-054638b98e7c",
      "resource": {
        "resourceType": "Specimen",
        "id": "87e9d5b4-1e24-4c1d-ac11-054638b98e7c",
        "meta": {
          "profile": [
            "http://hl7.eu/fhir/laboratory/StructureDefinition/Specimen-eu-lab"
          ]
        },
        "collection": {
          "collectedDateTime": "2017-01-11"
        },
        "text": {
          "status": "generated",
          "div": "<div xmlns=\"http://www.w3.org/1999/xhtml\"><table class=\"hl7__eu__lab__report\"><tr><th>Specimen</th><th>Collection Date</th></tr><tr><td>Urine specimen</td><td><span class=\"nb\">11-Jan-2017</span></td></tr></table></div>"
        },
        "type": {
          "coding": [
            {
              "code": "122575003",
              "system": "http://snomed.info/sct",
              "display": "Urine specimen"
            }
          ]
        }
      }
    },
    {
      "fullUrl": "urn:uuid:c760abae-f296-41f4-b9e1-889b5d909c75",
      "resource": {
        "resourceType": "Specimen",
        "id": "c760abae-f296-41f4-b9e1-889b5d909c75",
        "meta": {
          "profile": [
            "http://hl7.eu/fhir/laboratory/StructureDefinition/Specimen-eu-lab"
          ]
        },
        "collection": {
          "collectedDateTime": "2017-01-11"
        },
        "text": {
          "status": "generated",
          "div": "<div xmlns=\"http://www.w3.org/1999/xhtml\"><table class=\"hl7__eu__lab__report\"><tr><th>Specimen</th><th>Collection Date</th></tr><tr><td>Whole blood specimen (specimen)</td><td><span class=\"nb\">11-Jan-2017</span></td></tr></table></div>"
        },
        "type": {
          "coding": [
            {
              "code": "258580003",
              "system": "http://snomed.info/sct",
              "display": "Whole blood specimen (specimen)"
            }
          ]
        }
      }
    },
    {
      "fullUrl": "urn:uuid:de805089-5102-4e95-99f1-388316c7de79",
      "resource": {
        "resourceType": "Observation",
        "id": "de805089-5102-4e95-99f1-388316c7de79",
        "meta": {
          "profile": [
            "http://hl7.eu/fhir/laboratory/StructureDefinition/Observation-resultslab-eu-lab"
          ]
        },
        "performer": [
          {
            "display": "The Central European Lab"
          }
        ],
        "category": [
          {
            "coding": [
              {
                "system": "http://terminology.hl7.org/CodeSystem/observation-category",
                "code": "laboratory"
              }
            ]
          }
        ],
        "code": {
          "coding": [
            {
              "code": "2345-7",
              "system": "http://loinc.org",
              "display": "Glucose [Mass/volume] in Serum or Plasma"
            }
          ],
          "text": "Glucose [Mass/volume] in Serum or Plasma"
        },
        "valueQuantity": {
          "system": "http://unitsofmeasure.org",
          "value": 79.1,
          "unit": "mg/dL",
          "code": "mg/dL"
        },
        "referenceRange": [
          {
            "low": {
              "value": 70,
              "code": "mg/dL",
              "system": "http://unitsofmeasure.org"
            }
          },
          {
            "high": {
              "value": 140,
              "code": "mg/dL",
              "system": "http://unitsofmeasure.org"
            }
          }
        ],
        "text": {
          "status": "generated",
          "div": "<div xmlns=\"http://www.w3.org/1999/xhtml\"><table class=\"hl7__eu__lab__report\"><tr><th>Test</th><th>11-Jan-2017</th><th>Reference&#xA0;Range</th><th>Unit</th></tr><tr><td>Glucose [Mass/volume] in Serum or Plasma</td><td>79.1</td><td>70 - 140</td><td></td><td>mg/dL</td></tr></table></div>"
        },
        "status": "final",
        "subject": {
          "reference": "urn:uuid:2a1dbc64-67ed-41a9-ae62-23a0b5d7305d",
          "display": "Maria Nohlmans"
        },
        "effectiveDateTime": "2017-01-11T11:02:39Z",
        "specimen": {
          "reference": "urn:uuid:7b244179-1a76-44ff-ac43-58c3ca7101c8"
        }
      }
    },
    {
      "fullUrl": "urn:uuid:6036e1df-1c8c-444f-bd71-9229107573d3",
      "resource": {
        "resourceType": "Observation",
        "id": "6036e1df-1c8c-444f-bd71-9229107573d3",
        "meta": {
          "profile": [
            "http://hl7.eu/fhir/laboratory/StructureDefinition/Observation-resultslab-eu-lab"
          ]
        },
        "performer": [
          {
            "display": "The Central European Lab"
          }
        ],
        "category": [
          {
            "coding": [
              {
                "system": "http://terminology.hl7.org/CodeSystem/observation-category",
                "code": "laboratory"
              }
            ]
          }
        ],
        "code": {
          "coding": [
            {
              "code": "3094-0",
              "system": "http://loinc.org",
              "display": "Urea nitrogen [Mass/volume] in Serum or Plasma"
            }
          ],
          "text": "Urea nitrogen [Mass/volume] in Serum or Plasma"
        },
        "valueQuantity": {
          "system": "http://unitsofmeasure.org",
          "value": 7.4,
          "unit": "mg/dL",
          "code": "mg/dL"
        },
        "referenceRange": [
          {
            "low": {
              "value": 7,
              "code": "mg/dL",
              "system": "http://unitsofmeasure.org"
            }
          },
          {
            "high": {
              "value": 20,
              "code": "mg/dL",
              "system": "http://unitsofmeasure.org"
            }
          }
        ],
        "text": {
          "status": "generated",
          "div": "<div xmlns=\"http://www.w3.org/1999/xhtml\"><table class=\"hl7__eu__lab__report\"><tr><th>Test</th><th>11-Jan-2017</th><th>Reference&#xA0;Range</th><th>Unit</th></tr><tr><td>Urea nitrogen [Mass/volume] in Serum or Plasma</td><td>7.4</td><td>7 - 20</td><td></td><td>mg/dL</td></tr></table></div>"
        },
        "status": "final",
        "subject": {
          "reference": "urn:uuid:2a1dbc64-67ed-41a9-ae62-23a0b5d7305d",
          "display": "Maria Nohlmans"
        },
        "effectiveDateTime": "2017-01-11T11:02:39Z",
        "specimen": {
          "reference": "urn:uuid:7b244179-1a76-44ff-ac43-58c3ca7101c8"
        }
      }
    },
    {
      "fullUrl": "urn:uuid:2cac8d00-322f-441b-824b-eb6955c82226",
      "resource": {
        "resourceType": "Observation",
        "id": "2cac8d00-322f-441b-824b-eb6955c82226",
        "meta": {
          "profile": [
            "http://hl7.eu/fhir/laboratory/StructureDefinition/Observation-resultslab-eu-lab"
          ]
        },
        "performer": [
          {
            "display": "The Central European Lab"
          }
        ],
        "category": [
          {
            "coding": [
              {
                "system": "http://terminology.hl7.org/CodeSystem/observation-category",
                "code": "laboratory"
              }
            ]
          }
        ],
        "code": {
          "coding": [
            {
              "code": "2160-0",
              "system": "http://loinc.org",
              "display": "Creatinine [Mass/volume] in Serum or Plasma"
            }
          ],
          "text": "Creatinine [Mass/volume] in Serum or Plasma"
        },
        "valueQuantity": {
          "system": "http://unitsofmeasure.org",
          "value": 2.5,
          "unit": "mg/dL",
          "code": "mg/dL"
        },
        "referenceRange": [
          {
            "low": {
              "value": 0.6,
              "code": "mg/dL",
              "system": "http://unitsofmeasure.org"
            }
          },
          {
            "high": {
              "value": 1.3,
              "code": "mg/dL",
              "system": "http://unitsofmeasure.org"
            }
          }
        ],
        "interpretation": [
          {
            "coding": [
              {
                "code": "H",
                "system": "http://terminology.hl7.org/CodeSystem/v3-ObservationInterpretation",
                "display": "High"
              }
            ]
          }
        ],
        "text": {
          "status": "generated",
          "div": "<div xmlns=\"http://www.w3.org/1999/xhtml\"><table class=\"hl7__eu__lab__report\"><tr><th>Test</th><th>11-Jan-2017</th><th>Reference&#xA0;Range</th><th>Unit</th></tr><tr><td>Creatinine [Mass/volume] in Serum or Plasma</td><td>2.5</td><td>0.6 - 1.3</td><td>H</td><td>mg/dL</td></tr></table></div>"
        },
        "status": "final",
        "subject": {
          "reference": "urn:uuid:2a1dbc64-67ed-41a9-ae62-23a0b5d7305d",
          "display": "Maria Nohlmans"
        },
        "effectiveDateTime": "2017-01-11T11:02:39Z",
        "specimen": {
          "reference": "urn:uuid:7b244179-1a76-44ff-ac43-58c3ca7101c8"
        }
      }
    },
    {
      "fullUrl": "urn:uuid:c7fb1d16-38f0-443e-9c49-2abb676066e6",
      "resource": {
        "resourceType": "Observation",
        "id": "c7fb1d16-38f0-443e-9c49-2abb676066e6",
        "meta": {
          "profile": [
            "http://hl7.eu/fhir/laboratory/StructureDefinition/Observation-resultslab-eu-lab"
          ]
        },
        "performer": [
          {
            "display": "The Central European Lab"
          }
        ],
        "category": [
          {
            "coding": [
              {
                "system": "http://terminology.hl7.org/CodeSystem/observation-category",
                "code": "laboratory"
              }
            ]
          }
        ],
        "code": {
          "coding": [
            {
              "code": "17861-6",
              "system": "http://loinc.org",
              "display": "Calcium [Mass/volume] in Serum or Plasma"
            }
          ],
          "text": "Calcium [Mass/volume] in Serum or Plasma"
        },
        "valueQuantity": {
          "system": "http://unitsofmeasure.org",
          "value": 9.7,
          "unit": "mg/dL",
          "code": "mg/dL"
        },
        "referenceRange": [
          {
            "low": {
              "value": 8.6,
              "code": "mg/dL",
              "system": "http://unitsofmeasure.org"
            }
          },
          {
            "high": {
              "value": 10.4,
              "code": "mg/dL",
              "system": "http://unitsofmeasure.org"
            }
          }
        ],
        "text": {
          "status": "generated",
          "div": "<div xmlns=\"http://www.w3.org/1999/xhtml\"><table class=\"hl7__eu__lab__report\"><tr><th>Test</th><th>11-Jan-2017</th><th>Reference&#xA0;Range</th><th>Unit</th></tr><tr><td>Calcium [Mass/volume] in Serum or Plasma</td><td>9.7</td><td>8.6 - 10.4</td><td></td><td>mg/dL</td></tr></table></div>"
        },
        "status": "final",
        "subject": {
          "reference": "urn:uuid:2a1dbc64-67ed-41a9-ae62-23a0b5d7305d",
          "display": "Maria Nohlmans"
        },
        "effectiveDateTime": "2017-01-11T11:02:39Z",
        "specimen": {
          "reference": "urn:uuid:7b244179-1a76-44ff-ac43-58c3ca7101c8"
        }
      }
    },
    {
      "fullUrl": "urn:uuid:3cb5392d-da0e-4d41-a9f9-87a020f7349c",
      "resource": {
        "resourceType": "Observation",
        "id": "3cb5392d-da0e-4d41-a9f9-87a020f7349c",
        "meta": {
          "profile": [
            "http://hl7.eu/fhir/laboratory/StructureDefinition/Observation-resultslab-eu-lab"
          ]
        },
        "performer": [
          {
            "display": "The Central European Lab"
          }
        ],
        "category": [
          {
            "coding": [
              {
                "system": "http://terminology.hl7.org/CodeSystem/observation-category",
                "code": "laboratory"
              }
            ]
          }
        ],
        "code": {
          "coding": [
            {
              "code": "2951-2",
              "system": "http://loinc.org",
              "display": "Sodium [Moles/volume] in Serum or Plasma"
            }
          ],
          "text": "Sodium [Moles/volume] in Serum or Plasma"
        },
        "valueQuantity": {
          "system": "http://unitsofmeasure.org",
          "value": 139.5,
          "unit": "mmol/L",
          "code": "mmol/L"
        },
        "referenceRange": [
          {
            "low": {
              "value": 135,
              "code": "mmol/L",
              "system": "http://unitsofmeasure.org"
            }
          },
          {
            "high": {
              "value": 145,
              "code": "mmol/L",
              "system": "http://unitsofmeasure.org"
            }
          }
        ],
        "text": {
          "status": "generated",
          "div": "<div xmlns=\"http://www.w3.org/1999/xhtml\"><table class=\"hl7__eu__lab__report\"><tr><th>Test</th><th>11-Jan-2017</th><th>Reference&#xA0;Range</th><th>Unit</th></tr><tr><td>Sodium [Moles/volume] in Serum or Plasma</td><td>139.5</td><td>135 - 145</td><td></td><td>mmol/L</td></tr></table></div>"
        },
        "status": "final",
        "subject": {
          "reference": "urn:uuid:2a1dbc64-67ed-41a9-ae62-23a0b5d7305d",
          "display": "Maria Nohlmans"
        },
        "effectiveDateTime": "2017-01-11T11:02:39Z",
        "specimen": {
          "reference": "urn:uuid:7b244179-1a76-44ff-ac43-58c3ca7101c8"
        }
      }
    },
    {
      "fullUrl": "urn:uuid:e5cdf63c-055b-42e6-a64b-632d4c3ddd12",
      "resource": {
        "resourceType": "Observation",
        "id": "e5cdf63c-055b-42e6-a64b-632d4c3ddd12",
        "meta": {
          "profile": [
            "http://hl7.eu/fhir/laboratory/StructureDefinition/Observation-resultslab-eu-lab"
          ]
        },
        "performer": [
          {
            "display": "The Central European Lab"
          }
        ],
        "category": [
          {
            "coding": [
              {
                "system": "http://terminology.hl7.org/CodeSystem/observation-category",
                "code": "laboratory"
              }
            ]
          }
        ],
        "code": {
          "coding": [
            {
              "code": "2823-3",
              "system": "http://loinc.org",
              "display": "Potassium [Moles/volume] in Serum or Plasma"
            }
          ],
          "text": "Potassium [Moles/volume] in Serum or Plasma"
        },
        "valueQuantity": {
          "system": "http://unitsofmeasure.org",
          "value": 4.5,
          "unit": "mmol/L",
          "code": "mmol/L"
        },
        "referenceRange": [
          {
            "low": {
              "value": 3.5,
              "code": "mmol/L",
              "system": "http://unitsofmeasure.org"
            }
          },
          {
            "high": {
              "value": 5.1,
              "code": "mmol/L",
              "system": "http://unitsofmeasure.org"
            }
          }
        ],
        "text": {
          "status": "generated",
          "div": "<div xmlns=\"http://www.w3.org/1999/xhtml\"><table class=\"hl7__eu__lab__report\"><tr><th>Test</th><th>11-Jan-2017</th><th>Reference&#xA0;Range</th><th>Unit</th></tr><tr><td>Potassium [Moles/volume] in Serum or Plasma</td><td>4.5</td><td>3.5 - 5.1</td><td></td><td>mmol/L</td></tr></table></div>"
        },
        "status": "final",
        "subject": {
          "reference": "urn:uuid:2a1dbc64-67ed-41a9-ae62-23a0b5d7305d",
          "display": "Maria Nohlmans"
        },
        "effectiveDateTime": "2017-01-11T11:02:39Z",
        "specimen": {
          "reference": "urn:uuid:7b244179-1a76-44ff-ac43-58c3ca7101c8"
        }
      }
    },
    {
      "fullUrl": "urn:uuid:5a9b7008-adfb-4192-b59a-3317ebad8f38",
      "resource": {
        "resourceType": "Observation",
        "id": "5a9b7008-adfb-4192-b59a-3317ebad8f38",
        "meta": {
          "profile": [
            "http://hl7.eu/fhir/laboratory/StructureDefinition/Observation-resultslab-eu-lab"
          ]
        },
        "performer": [
          {
            "display": "The Central European Lab"
          }
        ],
        "category": [
          {
            "coding": [
              {
                "system": "http://terminology.hl7.org/CodeSystem/observation-category",
                "code": "laboratory"
              }
            ]
          }
        ],
        "code": {
          "coding": [
            {
              "code": "2075-0",
              "system": "http://loinc.org",
              "display": "Chloride [Moles/volume] in Serum or Plasma"
            }
          ],
          "text": "Chloride [Moles/volume] in Serum or Plasma"
        },
        "valueQuantity": {
          "system": "http://unitsofmeasure.org",
          "value": 106.5,
          "unit": "mmol/L",
          "code": "mmol/L"
        },
        "referenceRange": [
          {
            "low": {
              "value": 98,
              "code": "mmol/L",
              "system": "http://unitsofmeasure.org"
            }
          },
          {
            "high": {
              "value": 108,
              "code": "mmol/L",
              "system": "http://unitsofmeasure.org"
            }
          }
        ],
        "text": {
          "status": "generated",
          "div": "<div xmlns=\"http://www.w3.org/1999/xhtml\"><table class=\"hl7__eu__lab__report\"><tr><th>Test</th><th>11-Jan-2017</th><th>Reference&#xA0;Range</th><th>Unit</th></tr><tr><td>Chloride [Moles/volume] in Serum or Plasma</td><td>106.5</td><td>98 - 108</td><td></td><td>mmol/L</td></tr></table></div>"
        },
        "status": "final",
        "subject": {
          "reference": "urn:uuid:2a1dbc64-67ed-41a9-ae62-23a0b5d7305d",
          "display": "Maria Nohlmans"
        },
        "effectiveDateTime": "2017-01-11T11:02:39Z",
        "specimen": {
          "reference": "urn:uuid:7b244179-1a76-44ff-ac43-58c3ca7101c8"
        }
      }
    },
    {
      "fullUrl": "urn:uuid:614c54a4-c099-4b0f-be5b-b554720acde2",
      "resource": {
        "resourceType": "Observation",
        "id": "614c54a4-c099-4b0f-be5b-b554720acde2",
        "meta": {
          "profile": [
            "http://hl7.eu/fhir/laboratory/StructureDefinition/Observation-resultslab-eu-lab"
          ]
        },
        "performer": [
          {
            "display": "The Central European Lab"
          }
        ],
        "category": [
          {
            "coding": [
              {
                "system": "http://terminology.hl7.org/CodeSystem/observation-category",
                "code": "laboratory"
              }
            ]
          }
        ],
        "code": {
          "coding": [
            {
              "code": "2028-9",
              "system": "http://loinc.org",
              "display": "Carbon dioxide, total [Moles/volume] in Serum or Plasma"
            }
          ],
          "text": "Carbon dioxide, total [Moles/volume] in Serum or Plasma"
        },
        "valueQuantity": {
          "system": "http://unitsofmeasure.org",
          "value": 25.5,
          "unit": "mmol/L",
          "code": "mmol/L"
        },
        "referenceRange": [
          {
            "low": {
              "value": 22,
              "code": "mmol/L",
              "system": "http://unitsofmeasure.org"
            }
          },
          {
            "high": {
              "value": 32,
              "code": "mmol/L",
              "system": "http://unitsofmeasure.org"
            }
          }
        ],
        "text": {
          "status": "generated",
          "div": "<div xmlns=\"http://www.w3.org/1999/xhtml\"><table class=\"hl7__eu__lab__report\"><tr><th>Test</th><th>11-Jan-2017</th><th>Reference&#xA0;Range</th><th>Unit</th></tr><tr><td>Carbon dioxide, total [Moles/volume] in Serum or Plasma</td><td>25.5</td><td>22 - 32</td><td></td><td>mmol/L</td></tr></table></div>"
        },
        "status": "final",
        "subject": {
          "reference": "urn:uuid:2a1dbc64-67ed-41a9-ae62-23a0b5d7305d",
          "display": "Maria Nohlmans"
        },
        "effectiveDateTime": "2017-01-11T11:02:39Z",
        "specimen": {
          "reference": "urn:uuid:7b244179-1a76-44ff-ac43-58c3ca7101c8"
        }
      }
    },
    {
      "fullUrl": "urn:uuid:9d59ccbb-7e12-4709-9943-1944f76e8ab8",
      "resource": {
        "resourceType": "Observation",
        "id": "9d59ccbb-7e12-4709-9943-1944f76e8ab8",
        "meta": {
          "profile": [
            "http://hl7.eu/fhir/laboratory/StructureDefinition/Observation-resultslab-eu-lab"
          ]
        },
        "performer": [
          {
            "display": "The Central European Lab"
          }
        ],
        "category": [
          {
            "coding": [
              {
                "system": "http://terminology.hl7.org/CodeSystem/observation-category",
                "code": "laboratory"
              }
            ]
          }
        ],
        "code": {
          "coding": [
            {
              "code": "5767-9",
              "system": "http://loinc.org",
              "display": "Appearance of Urine"
            }
          ],
          "text": "Appearance of Urine"
        },
        "text": {
          "status": "generated",
          "div": "<div xmlns=\"http://www.w3.org/1999/xhtml\"><table class=\"hl7__eu__lab__report\"><tr><th>Test</th><th>11-Jan-2017</th><th>Reference&#xA0;Range</th><th>Unit</th></tr><tr><td>Appearance of Urine</td></tr></table></div>"
        },
        "status": "final",
        "subject": {
          "reference": "urn:uuid:2a1dbc64-67ed-41a9-ae62-23a0b5d7305d",
          "display": "Maria Nohlmans"
        },
        "effectiveDateTime": "2017-01-11T11:02:39Z",
        "specimen": {
          "reference": "urn:uuid:87e9d5b4-1e24-4c1d-ac11-054638b98e7c"
        }
      }
    },
    {
      "fullUrl": "urn:uuid:a086f0fd-396c-486d-84cb-3ab8da7293b1",
      "resource": {
        "resourceType": "Observation",
        "id": "a086f0fd-396c-486d-84cb-3ab8da7293b1",
        "meta": {
          "profile": [
            "http://hl7.eu/fhir/laboratory/StructureDefinition/Observation-resultslab-eu-lab"
          ]
        },
        "performer": [
          {
            "display": "The Central European Lab"
          }
        ],
        "category": [
          {
            "coding": [
              {
                "system": "http://terminology.hl7.org/CodeSystem/observation-category",
                "code": "laboratory"
              }
            ]
          }
        ],
        "code": {
          "coding": [
            {
              "code": "34533-0",
              "system": "http://loinc.org",
              "display": "Odor of Urine"
            }
          ],
          "text": "Odor of Urine"
        },
        "text": {
          "status": "generated",
          "div": "<div xmlns=\"http://www.w3.org/1999/xhtml\"><table class=\"hl7__eu__lab__report\"><tr><th>Test</th><th>11-Jan-2017</th><th>Reference&#xA0;Range</th><th>Unit</th></tr><tr><td>Odor of Urine</td></tr></table></div>"
        },
        "status": "final",
        "subject": {
          "reference": "urn:uuid:2a1dbc64-67ed-41a9-ae62-23a0b5d7305d",
          "display": "Maria Nohlmans"
        },
        "effectiveDateTime": "2017-01-11T11:02:39Z",
        "specimen": {
          "reference": "urn:uuid:87e9d5b4-1e24-4c1d-ac11-054638b98e7c"
        }
      }
    },
    {
      "fullUrl": "urn:uuid:cf267299-03b2-42e3-afe9-5c844159a962",
      "resource": {
        "resourceType": "Observation",
        "id": "cf267299-03b2-42e3-afe9-5c844159a962",
        "meta": {
          "profile": [
            "http://hl7.eu/fhir/laboratory/StructureDefinition/Observation-resultslab-eu-lab"
          ]
        },
        "performer": [
          {
            "display": "The Central European Lab"
          }
        ],
        "category": [
          {
            "coding": [
              {
                "system": "http://terminology.hl7.org/CodeSystem/observation-category",
                "code": "laboratory"
              }
            ]
          }
        ],
        "code": {
          "coding": [
            {
              "code": "32167-9",
              "system": "http://loinc.org",
              "display": "Clarity of Urine"
            }
          ],
          "text": "Clarity of Urine"
        },
        "text": {
          "status": "generated",
          "div": "<div xmlns=\"http://www.w3.org/1999/xhtml\"><table class=\"hl7__eu__lab__report\"><tr><th>Test</th><th>11-Jan-2017</th><th>Reference&#xA0;Range</th><th>Unit</th></tr><tr><td>Clarity of Urine</td></tr></table></div>"
        },
        "status": "final",
        "subject": {
          "reference": "urn:uuid:2a1dbc64-67ed-41a9-ae62-23a0b5d7305d",
          "display": "Maria Nohlmans"
        },
        "effectiveDateTime": "2017-01-11T11:02:39Z",
        "specimen": {
          "reference": "urn:uuid:87e9d5b4-1e24-4c1d-ac11-054638b98e7c"
        }
      }
    },
    {
      "fullUrl": "urn:uuid:db1d7f2d-f44e-4215-8b99-51b07964a071",
      "resource": {
        "resourceType": "Observation",
        "id": "db1d7f2d-f44e-4215-8b99-51b07964a071",
        "meta": {
          "profile": [
            "http://hl7.eu/fhir/laboratory/StructureDefinition/Observation-resultslab-eu-lab"
          ]
        },
        "performer": [
          {
            "display": "The Central European Lab"
          }
        ],
        "category": [
          {
            "coding": [
              {
                "system": "http://terminology.hl7.org/CodeSystem/observation-category",
                "code": "laboratory"
              }
            ]
          }
        ],
        "code": {
          "coding": [
            {
              "code": "5778-6",
              "system": "http://loinc.org",
              "display": "Color of Urine"
            }
          ],
          "text": "Color of Urine"
        },
        "text": {
          "status": "generated",
          "div": "<div xmlns=\"http://www.w3.org/1999/xhtml\"><table class=\"hl7__eu__lab__report\"><tr><th>Test</th><th>11-Jan-2017</th><th>Reference&#xA0;Range</th><th>Unit</th></tr><tr><td>Color of Urine</td></tr></table></div>"
        },
        "status": "final",
        "subject": {
          "reference": "urn:uuid:2a1dbc64-67ed-41a9-ae62-23a0b5d7305d",
          "display": "Maria Nohlmans"
        },
        "effectiveDateTime": "2017-01-11T11:02:39Z",
        "specimen": {
          "reference": "urn:uuid:87e9d5b4-1e24-4c1d-ac11-054638b98e7c"
        }
      }
    },
    {
      "fullUrl": "urn:uuid:d1e055b8-7b63-4fd5-866e-430b0ea659f4",
      "resource": {
        "resourceType": "Observation",
        "id": "d1e055b8-7b63-4fd5-866e-430b0ea659f4",
        "meta": {
          "profile": [
            "http://hl7.eu/fhir/laboratory/StructureDefinition/Observation-resultslab-eu-lab"
          ]
        },
        "performer": [
          {
            "display": "The Central European Lab"
          }
        ],
        "category": [
          {
            "coding": [
              {
                "system": "http://terminology.hl7.org/CodeSystem/observation-category",
                "code": "laboratory"
              }
            ]
          }
        ],
        "code": {
          "coding": [
            {
              "code": "5792-7",
              "system": "http://loinc.org",
              "display": "Glucose [Mass/volume] in Urine by Test strip"
            }
          ],
          "text": "Glucose [Mass/volume] in Urine by Test strip"
        },
        "valueQuantity": {
          "system": "http://unitsofmeasure.org",
          "value": 1.5,
          "unit": "mg/dL",
          "code": "mg/dL"
        },
        "referenceRange": [
          {
            "low": {
              "value": 0.8,
              "code": "mg/dL",
              "system": "http://unitsofmeasure.org"
            }
          },
          {
            "high": {
              "value": 0,
              "code": "mg/dL",
              "system": "http://unitsofmeasure.org"
            }
          }
        ],
        "interpretation": [
          {
            "coding": [
              {
                "code": "H",
                "system": "http://terminology.hl7.org/CodeSystem/v3-ObservationInterpretation",
                "display": "High"
              }
            ]
          }
        ],
        "text": {
          "status": "generated",
          "div": "<div xmlns=\"http://www.w3.org/1999/xhtml\"><table class=\"hl7__eu__lab__report\"><tr><th>Test</th><th>11-Jan-2017</th><th>Reference&#xA0;Range</th><th>Unit</th></tr><tr><td>Glucose [Mass/volume] in Urine by Test strip</td><td>1.5</td><td>0.8 - 0</td><td>H</td><td>mg/dL</td></tr></table></div>"
        },
        "status": "final",
        "subject": {
          "reference": "urn:uuid:2a1dbc64-67ed-41a9-ae62-23a0b5d7305d",
          "display": "Maria Nohlmans"
        },
        "effectiveDateTime": "2017-01-11T11:02:39Z",
        "specimen": {
          "reference": "urn:uuid:87e9d5b4-1e24-4c1d-ac11-054638b98e7c"
        }
      }
    },
    {
      "fullUrl": "urn:uuid:ac99b7d2-5f93-49bb-9c84-5222c484fac6",
      "resource": {
        "resourceType": "Observation",
        "id": "ac99b7d2-5f93-49bb-9c84-5222c484fac6",
        "meta": {
          "profile": [
            "http://hl7.eu/fhir/laboratory/StructureDefinition/Observation-resultslab-eu-lab"
          ]
        },
        "performer": [
          {
            "display": "The Central European Lab"
          }
        ],
        "category": [
          {
            "coding": [
              {
                "system": "http://terminology.hl7.org/CodeSystem/observation-category",
                "code": "laboratory"
              }
            ]
          }
        ],
        "code": {
          "coding": [
            {
              "code": "25428-4",
              "system": "http://loinc.org",
              "display": "Glucose [Presence] in Urine by Test strip"
            }
          ],
          "text": "Glucose [Presence] in Urine by Test strip"
        },
        "text": {
          "status": "generated",
          "div": "<div xmlns=\"http://www.w3.org/1999/xhtml\"><table class=\"hl7__eu__lab__report\"><tr><th>Test</th><th>11-Jan-2017</th><th>Reference&#xA0;Range</th><th>Unit</th></tr><tr><td>Glucose [Presence] in Urine by Test strip</td></tr></table></div>"
        },
        "status": "final",
        "subject": {
          "reference": "urn:uuid:2a1dbc64-67ed-41a9-ae62-23a0b5d7305d",
          "display": "Maria Nohlmans"
        },
        "effectiveDateTime": "2017-01-11T11:02:39Z",
        "specimen": {
          "reference": "urn:uuid:87e9d5b4-1e24-4c1d-ac11-054638b98e7c"
        }
      }
    },
    {
      "fullUrl": "urn:uuid:69ff788b-8bf0-479b-8dce-af4f722f8086",
      "resource": {
        "resourceType": "Observation",
        "id": "69ff788b-8bf0-479b-8dce-af4f722f8086",
        "meta": {
          "profile": [
            "http://hl7.eu/fhir/laboratory/StructureDefinition/Observation-resultslab-eu-lab"
          ]
        },
        "performer": [
          {
            "display": "The Central European Lab"
          }
        ],
        "category": [
          {
            "coding": [
              {
                "system": "http://terminology.hl7.org/CodeSystem/observation-category",
                "code": "laboratory"
              }
            ]
          }
        ],
        "code": {
          "coding": [
            {
              "code": "20505-4",
              "system": "http://loinc.org",
              "display": "Bilirubin.total [Mass/volume] in Urine by Test strip"
            }
          ],
          "text": "Bilirubin.total [Mass/volume] in Urine by Test strip"
        },
        "valueQuantity": {
          "system": "http://unitsofmeasure.org",
          "value": 0.8,
          "unit": "mg/dL",
          "code": "mg/dL"
        },
        "referenceRange": [
          {
            "low": {
              "value": 0,
              "code": "mg/dL",
              "system": "http://unitsofmeasure.org"
            }
          },
          {
            "high": {
              "value": 1.5,
              "code": "mg/dL",
              "system": "http://unitsofmeasure.org"
            }
          }
        ],
        "text": {
          "status": "generated",
          "div": "<div xmlns=\"http://www.w3.org/1999/xhtml\"><table class=\"hl7__eu__lab__report\"><tr><th>Test</th><th>11-Jan-2017</th><th>Reference&#xA0;Range</th><th>Unit</th></tr><tr><td>Bilirubin.total [Mass/volume] in Urine by Test strip</td><td>0.8</td><td>0 - 1.5</td><td></td><td>mg/dL</td></tr></table></div>"
        },
        "status": "final",
        "subject": {
          "reference": "urn:uuid:2a1dbc64-67ed-41a9-ae62-23a0b5d7305d",
          "display": "Maria Nohlmans"
        },
        "effectiveDateTime": "2017-01-11T11:02:39Z",
        "specimen": {
          "reference": "urn:uuid:87e9d5b4-1e24-4c1d-ac11-054638b98e7c"
        }
      }
    },
    {
      "fullUrl": "urn:uuid:a46b88c0-48d4-401a-9b96-583249f0b4bc",
      "resource": {
        "resourceType": "Observation",
        "id": "a46b88c0-48d4-401a-9b96-583249f0b4bc",
        "meta": {
          "profile": [
            "http://hl7.eu/fhir/laboratory/StructureDefinition/Observation-resultslab-eu-lab"
          ]
        },
        "performer": [
          {
            "display": "The Central European Lab"
          }
        ],
        "category": [
          {
            "coding": [
              {
                "system": "http://terminology.hl7.org/CodeSystem/observation-category",
                "code": "laboratory"
              }
            ]
          }
        ],
        "code": {
          "coding": [
            {
              "code": "5770-3",
              "system": "http://loinc.org",
              "display": "Bilirubin.total [Presence] in Urine by Test strip"
            }
          ],
          "text": "Bilirubin.total [Presence] in Urine by Test strip"
        },
        "text": {
          "status": "generated",
          "div": "<div xmlns=\"http://www.w3.org/1999/xhtml\"><table class=\"hl7__eu__lab__report\"><tr><th>Test</th><th>11-Jan-2017</th><th>Reference&#xA0;Range</th><th>Unit</th></tr><tr><td>Bilirubin.total [Presence] in Urine by Test strip</td></tr></table></div>"
        },
        "status": "final",
        "subject": {
          "reference": "urn:uuid:2a1dbc64-67ed-41a9-ae62-23a0b5d7305d",
          "display": "Maria Nohlmans"
        },
        "effectiveDateTime": "2017-01-11T11:02:39Z",
        "specimen": {
          "reference": "urn:uuid:87e9d5b4-1e24-4c1d-ac11-054638b98e7c"
        }
      }
    },
    {
      "fullUrl": "urn:uuid:222574e9-25c6-4a25-b851-90876c86f06e",
      "resource": {
        "resourceType": "Observation",
        "id": "222574e9-25c6-4a25-b851-90876c86f06e",
        "meta": {
          "profile": [
            "http://hl7.eu/fhir/laboratory/StructureDefinition/Observation-resultslab-eu-lab"
          ]
        },
        "performer": [
          {
            "display": "The Central European Lab"
          }
        ],
        "category": [
          {
            "coding": [
              {
                "system": "http://terminology.hl7.org/CodeSystem/observation-category",
                "code": "laboratory"
              }
            ]
          }
        ],
        "code": {
          "coding": [
            {
              "code": "5797-6",
              "system": "http://loinc.org",
              "display": "Ketones [Mass/volume] in Urine by Test strip"
            }
          ],
          "text": "Ketones [Mass/volume] in Urine by Test strip"
        },
        "valueQuantity": {
          "system": "http://unitsofmeasure.org",
          "value": 18.1,
          "unit": "mg/dL",
          "code": "mg/dL"
        },
        "referenceRange": [
          {
            "low": {
              "value": 0,
              "code": "mg/dL",
              "system": "http://unitsofmeasure.org"
            }
          },
          {
            "high": {
              "value": 8,
              "code": "mg/dL",
              "system": "http://unitsofmeasure.org"
            }
          }
        ],
        "interpretation": [
          {
            "coding": [
              {
                "code": "H",
                "system": "http://terminology.hl7.org/CodeSystem/v3-ObservationInterpretation",
                "display": "High"
              }
            ]
          }
        ],
        "text": {
          "status": "generated",
          "div": "<div xmlns=\"http://www.w3.org/1999/xhtml\"><table class=\"hl7__eu__lab__report\"><tr><th>Test</th><th>11-Jan-2017</th><th>Reference&#xA0;Range</th><th>Unit</th></tr><tr><td>Ketones [Mass/volume] in Urine by Test strip</td><td>18.1</td><td>0 - 8</td><td>H</td><td>mg/dL</td></tr></table></div>"
        },
        "status": "final",
        "subject": {
          "reference": "urn:uuid:2a1dbc64-67ed-41a9-ae62-23a0b5d7305d",
          "display": "Maria Nohlmans"
        },
        "effectiveDateTime": "2017-01-11T11:02:39Z",
        "specimen": {
          "reference": "urn:uuid:87e9d5b4-1e24-4c1d-ac11-054638b98e7c"
        }
      }
    },
    {
      "fullUrl": "urn:uuid:23d42976-25b3-4734-9f01-e4bd617adbb4",
      "resource": {
        "resourceType": "Observation",
        "id": "23d42976-25b3-4734-9f01-e4bd617adbb4",
        "meta": {
          "profile": [
            "http://hl7.eu/fhir/laboratory/StructureDefinition/Observation-resultslab-eu-lab"
          ]
        },
        "performer": [
          {
            "display": "The Central European Lab"
          }
        ],
        "category": [
          {
            "coding": [
              {
                "system": "http://terminology.hl7.org/CodeSystem/observation-category",
                "code": "laboratory"
              }
            ]
          }
        ],
        "code": {
          "coding": [
            {
              "code": "2514-8",
              "system": "http://loinc.org",
              "display": "Ketones [Presence] in Urine by Test strip"
            }
          ],
          "text": "Ketones [Presence] in Urine by Test strip"
        },
        "text": {
          "status": "generated",
          "div": "<div xmlns=\"http://www.w3.org/1999/xhtml\"><table class=\"hl7__eu__lab__report\"><tr><th>Test</th><th>11-Jan-2017</th><th>Reference&#xA0;Range</th><th>Unit</th></tr><tr><td>Ketones [Presence] in Urine by Test strip</td></tr></table></div>"
        },
        "status": "final",
        "subject": {
          "reference": "urn:uuid:2a1dbc64-67ed-41a9-ae62-23a0b5d7305d",
          "display": "Maria Nohlmans"
        },
        "effectiveDateTime": "2017-01-11T11:02:39Z",
        "specimen": {
          "reference": "urn:uuid:87e9d5b4-1e24-4c1d-ac11-054638b98e7c"
        }
      }
    },
    {
      "fullUrl": "urn:uuid:989d3d01-2fb3-4a7c-aba1-21645b80c1af",
      "resource": {
        "resourceType": "Observation",
        "id": "989d3d01-2fb3-4a7c-aba1-21645b80c1af",
        "meta": {
          "profile": [
            "http://hl7.eu/fhir/laboratory/StructureDefinition/Observation-resultslab-eu-lab"
          ]
        },
        "performer": [
          {
            "display": "The Central European Lab"
          }
        ],
        "category": [
          {
            "coding": [
              {
                "system": "http://terminology.hl7.org/CodeSystem/observation-category",
                "code": "laboratory"
              }
            ]
          }
        ],
        "code": {
          "coding": [
            {
              "code": "5811-5",
              "system": "http://loinc.org",
              "display": "Specific gravity of Urine by Test strip"
            }
          ],
          "text": "Specific gravity of Urine by Test strip"
        },
        "valueQuantity": {
          "system": "http://unitsofmeasure.org",
          "value": 1,
          "unit": "{nominal}",
          "code": "{nominal}"
        },
        "referenceRange": [
          {
            "low": {
              "value": 1.01,
              "code": "g/mL",
              "system": "http://unitsofmeasure.org"
            }
          },
          {
            "high": {
              "value": 1.03,
              "code": "g/mL",
              "system": "http://unitsofmeasure.org"
            }
          }
        ],
        "interpretation": [
          {
            "coding": [
              {
                "code": "L",
                "system": "http://terminology.hl7.org/CodeSystem/v3-ObservationInterpretation",
                "display": "Low"
              }
            ]
          }
        ],
        "text": {
          "status": "generated",
          "div": "<div xmlns=\"http://www.w3.org/1999/xhtml\"><table class=\"hl7__eu__lab__report\"><tr><th>Test</th><th>11-Jan-2017</th><th>Reference&#xA0;Range</th><th>Unit</th></tr><tr><td>Specific gravity of Urine by Test strip</td><td>1.0</td><td>1.01 - 1.03</td><td>L</td><td>{nominal}</td></tr></table></div>"
        },
        "status": "final",
        "subject": {
          "reference": "urn:uuid:2a1dbc64-67ed-41a9-ae62-23a0b5d7305d",
          "display": "Maria Nohlmans"
        },
        "effectiveDateTime": "2017-01-11T11:02:39Z",
        "specimen": {
          "reference": "urn:uuid:87e9d5b4-1e24-4c1d-ac11-054638b98e7c"
        }
      }
    },
    {
      "fullUrl": "urn:uuid:638de41b-fdcf-40cb-b257-d485ab349d64",
      "resource": {
        "resourceType": "Observation",
        "id": "638de41b-fdcf-40cb-b257-d485ab349d64",
        "meta": {
          "profile": [
            "http://hl7.eu/fhir/laboratory/StructureDefinition/Observation-resultslab-eu-lab"
          ]
        },
        "performer": [
          {
            "display": "The Central European Lab"
          }
        ],
        "category": [
          {
            "coding": [
              {
                "system": "http://terminology.hl7.org/CodeSystem/observation-category",
                "code": "laboratory"
              }
            ]
          }
        ],
        "code": {
          "coding": [
            {
              "code": "5803-2",
              "system": "http://loinc.org",
              "display": "pH of Urine by Test strip"
            }
          ],
          "text": "pH of Urine by Test strip"
        },
        "valueQuantity": {
          "system": "http://unitsofmeasure.org",
          "value": 5.9,
          "unit": "pH",
          "code": "pH"
        },
        "referenceRange": [
          {
            "low": {
              "value": 4.6,
              "code": "pH",
              "system": "http://unitsofmeasure.org"
            }
          },
          {
            "high": {
              "value": 7.5,
              "code": "pH",
              "system": "http://unitsofmeasure.org"
            }
          }
        ],
        "text": {
          "status": "generated",
          "div": "<div xmlns=\"http://www.w3.org/1999/xhtml\"><table class=\"hl7__eu__lab__report\"><tr><th>Test</th><th>11-Jan-2017</th><th>Reference&#xA0;Range</th><th>Unit</th></tr><tr><td>pH of Urine by Test strip</td><td>5.9</td><td>4.6 - 7.5</td><td></td><td>pH</td></tr></table></div>"
        },
        "status": "final",
        "subject": {
          "reference": "urn:uuid:2a1dbc64-67ed-41a9-ae62-23a0b5d7305d",
          "display": "Maria Nohlmans"
        },
        "effectiveDateTime": "2017-01-11T11:02:39Z",
        "specimen": {
          "reference": "urn:uuid:87e9d5b4-1e24-4c1d-ac11-054638b98e7c"
        }
      }
    },
    {
      "fullUrl": "urn:uuid:a486f1de-493b-42d5-a784-0b103a49cba6",
      "resource": {
        "resourceType": "Observation",
        "id": "a486f1de-493b-42d5-a784-0b103a49cba6",
        "meta": {
          "profile": [
            "http://hl7.eu/fhir/laboratory/StructureDefinition/Observation-resultslab-eu-lab"
          ]
        },
        "performer": [
          {
            "display": "The Central European Lab"
          }
        ],
        "category": [
          {
            "coding": [
              {
                "system": "http://terminology.hl7.org/CodeSystem/observation-category",
                "code": "laboratory"
              }
            ]
          }
        ],
        "code": {
          "coding": [
            {
              "code": "5804-0",
              "system": "http://loinc.org",
              "display": "Protein [Mass/volume] in Urine by Test strip"
            }
          ],
          "text": "Protein [Mass/volume] in Urine by Test strip"
        },
        "valueQuantity": {
          "system": "http://unitsofmeasure.org",
          "value": 413.7,
          "unit": "mg/dL",
          "code": "mg/dL"
        },
        "referenceRange": [
          {
            "low": {
              "value": 0,
              "code": "mg/dL",
              "system": "http://unitsofmeasure.org"
            }
          },
          {
            "high": {
              "value": 14,
              "code": "mg/dL",
              "system": "http://unitsofmeasure.org"
            }
          }
        ],
        "interpretation": [
          {
            "coding": [
              {
                "code": "H",
                "system": "http://terminology.hl7.org/CodeSystem/v3-ObservationInterpretation",
                "display": "High"
              }
            ]
          }
        ],
        "text": {
          "status": "generated",
          "div": "<div xmlns=\"http://www.w3.org/1999/xhtml\"><table class=\"hl7__eu__lab__report\"><tr><th>Test</th><th>11-Jan-2017</th><th>Reference&#xA0;Range</th><th>Unit</th></tr><tr><td>Protein [Mass/volume] in Urine by Test strip</td><td>413.7</td><td>0 - 14</td><td>H</td><td>mg/dL</td></tr></table></div>"
        },
        "status": "final",
        "subject": {
          "reference": "urn:uuid:2a1dbc64-67ed-41a9-ae62-23a0b5d7305d",
          "display": "Maria Nohlmans"
        },
        "effectiveDateTime": "2017-01-11T11:02:39Z",
        "specimen": {
          "reference": "urn:uuid:87e9d5b4-1e24-4c1d-ac11-054638b98e7c"
        }
      }
    },
    {
      "fullUrl": "urn:uuid:cd36489c-34dd-4a0d-aafe-b93f4475fd32",
      "resource": {
        "resourceType": "Observation",
        "id": "cd36489c-34dd-4a0d-aafe-b93f4475fd32",
        "meta": {
          "profile": [
            "http://hl7.eu/fhir/laboratory/StructureDefinition/Observation-resultslab-eu-lab"
          ]
        },
        "performer": [
          {
            "display": "The Central European Lab"
          }
        ],
        "category": [
          {
            "coding": [
              {
                "system": "http://terminology.hl7.org/CodeSystem/observation-category",
                "code": "laboratory"
              }
            ]
          }
        ],
        "code": {
          "coding": [
            {
              "code": "20454-5",
              "system": "http://loinc.org",
              "display": "Protein [Presence] in Urine by Test strip"
            }
          ],
          "text": "Protein [Presence] in Urine by Test strip"
        },
        "text": {
          "status": "generated",
          "div": "<div xmlns=\"http://www.w3.org/1999/xhtml\"><table class=\"hl7__eu__lab__report\"><tr><th>Test</th><th>11-Jan-2017</th><th>Reference&#xA0;Range</th><th>Unit</th></tr><tr><td>Protein [Presence] in Urine by Test strip</td></tr></table></div>"
        },
        "status": "final",
        "subject": {
          "reference": "urn:uuid:2a1dbc64-67ed-41a9-ae62-23a0b5d7305d",
          "display": "Maria Nohlmans"
        },
        "effectiveDateTime": "2017-01-11T11:02:39Z",
        "specimen": {
          "reference": "urn:uuid:87e9d5b4-1e24-4c1d-ac11-054638b98e7c"
        }
      }
    },
    {
      "fullUrl": "urn:uuid:262e1297-1e86-4fac-88ce-85116ce5b5da",
      "resource": {
        "resourceType": "Observation",
        "id": "262e1297-1e86-4fac-88ce-85116ce5b5da",
        "meta": {
          "profile": [
            "http://hl7.eu/fhir/laboratory/StructureDefinition/Observation-resultslab-eu-lab"
          ]
        },
        "performer": [
          {
            "display": "The Central European Lab"
          }
        ],
        "category": [
          {
            "coding": [
              {
                "system": "http://terminology.hl7.org/CodeSystem/observation-category",
                "code": "laboratory"
              }
            ]
          }
        ],
        "code": {
          "coding": [
            {
              "code": "5802-4",
              "system": "http://loinc.org",
              "display": "Nitrite [Presence] in Urine by Test strip"
            }
          ],
          "text": "Nitrite [Presence] in Urine by Test strip"
        },
        "text": {
          "status": "generated",
          "div": "<div xmlns=\"http://www.w3.org/1999/xhtml\"><table class=\"hl7__eu__lab__report\"><tr><th>Test</th><th>11-Jan-2017</th><th>Reference&#xA0;Range</th><th>Unit</th></tr><tr><td>Nitrite [Presence] in Urine by Test strip</td></tr></table></div>"
        },
        "status": "final",
        "subject": {
          "reference": "urn:uuid:2a1dbc64-67ed-41a9-ae62-23a0b5d7305d",
          "display": "Maria Nohlmans"
        },
        "effectiveDateTime": "2017-01-11T11:02:39Z",
        "specimen": {
          "reference": "urn:uuid:87e9d5b4-1e24-4c1d-ac11-054638b98e7c"
        }
      }
    },
    {
      "fullUrl": "urn:uuid:635fd25a-b891-4692-a314-f8f628bfd7a0",
      "resource": {
        "resourceType": "Observation",
        "id": "635fd25a-b891-4692-a314-f8f628bfd7a0",
        "meta": {
          "profile": [
            "http://hl7.eu/fhir/laboratory/StructureDefinition/Observation-resultslab-eu-lab"
          ]
        },
        "performer": [
          {
            "display": "The Central European Lab"
          }
        ],
        "category": [
          {
            "coding": [
              {
                "system": "http://terminology.hl7.org/CodeSystem/observation-category",
                "code": "laboratory"
              }
            ]
          }
        ],
        "code": {
          "coding": [
            {
              "code": "5794-3",
              "system": "http://loinc.org",
              "display": "Hemoglobin [Presence] in Urine by Test strip"
            }
          ],
          "text": "Hemoglobin [Presence] in Urine by Test strip"
        },
        "text": {
          "status": "generated",
          "div": "<div xmlns=\"http://www.w3.org/1999/xhtml\"><table class=\"hl7__eu__lab__report\"><tr><th>Test</th><th>11-Jan-2017</th><th>Reference&#xA0;Range</th><th>Unit</th></tr><tr><td>Hemoglobin [Presence] in Urine by Test strip</td></tr></table></div>"
        },
        "status": "final",
        "subject": {
          "reference": "urn:uuid:2a1dbc64-67ed-41a9-ae62-23a0b5d7305d",
          "display": "Maria Nohlmans"
        },
        "effectiveDateTime": "2017-01-11T11:02:39Z",
        "specimen": {
          "reference": "urn:uuid:87e9d5b4-1e24-4c1d-ac11-054638b98e7c"
        }
      }
    },
    {
      "fullUrl": "urn:uuid:c3cd88de-27d2-4b2c-8db1-ef5e6fd86a36",
      "resource": {
        "resourceType": "Observation",
        "id": "c3cd88de-27d2-4b2c-8db1-ef5e6fd86a36",
        "meta": {
          "profile": [
            "http://hl7.eu/fhir/laboratory/StructureDefinition/Observation-resultslab-eu-lab"
          ]
        },
        "performer": [
          {
            "display": "The Central European Lab"
          }
        ],
        "category": [
          {
            "coding": [
              {
                "system": "http://terminology.hl7.org/CodeSystem/observation-category",
                "code": "laboratory"
              }
            ]
          }
        ],
        "code": {
          "coding": [
            {
              "code": "5799-2",
              "system": "http://loinc.org",
              "display": "Leukocyte esterase [Presence] in Urine by Test strip"
            }
          ],
          "text": "Leukocyte esterase [Presence] in Urine by Test strip"
        },
        "text": {
          "status": "generated",
          "div": "<div xmlns=\"http://www.w3.org/1999/xhtml\"><table class=\"hl7__eu__lab__report\"><tr><th>Test</th><th>11-Jan-2017</th><th>Reference&#xA0;Range</th><th>Unit</th></tr><tr><td>Leukocyte esterase [Presence] in Urine by Test strip</td></tr></table></div>"
        },
        "status": "final",
        "subject": {
          "reference": "urn:uuid:2a1dbc64-67ed-41a9-ae62-23a0b5d7305d",
          "display": "Maria Nohlmans"
        },
        "effectiveDateTime": "2017-01-11T11:02:39Z",
        "specimen": {
          "reference": "urn:uuid:87e9d5b4-1e24-4c1d-ac11-054638b98e7c"
        }
      }
    },
    {
      "fullUrl": "urn:uuid:4ecc1f56-1041-43cb-aa6a-d7113f9013d4",
      "resource": {
        "resourceType": "Observation",
        "id": "4ecc1f56-1041-43cb-aa6a-d7113f9013d4",
        "meta": {
          "profile": [
            "http://hl7.eu/fhir/laboratory/StructureDefinition/Observation-resultslab-eu-lab"
          ]
        },
        "performer": [
          {
            "display": "The Central European Lab"
          }
        ],
        "category": [
          {
            "coding": [
              {
                "system": "http://terminology.hl7.org/CodeSystem/observation-category",
                "code": "laboratory"
              }
            ]
          }
        ],
        "code": {
          "coding": [
            {
              "code": "4548-4",
              "system": "http://loinc.org",
              "display": "Hemoglobin A1c/Hemoglobin.total in Blood"
            }
          ],
          "text": "Hemoglobin A1c/Hemoglobin.total in Blood"
        },
        "valueQuantity": {
          "system": "http://unitsofmeasure.org",
          "value": 3.1,
          "unit": "%",
          "code": "%"
        },
        "referenceRange": [
          {
            "low": {
              "value": 4.5,
              "code": "%",
              "system": "http://unitsofmeasure.org"
            }
          },
          {
            "high": {
              "value": 6.4,
              "code": "%",
              "system": "http://unitsofmeasure.org"
            }
          }
        ],
        "interpretation": [
          {
            "coding": [
              {
                "code": "L",
                "system": "http://terminology.hl7.org/CodeSystem/v3-ObservationInterpretation",
                "display": "Low"
              }
            ]
          }
        ],
        "text": {
          "status": "generated",
          "div": "<div xmlns=\"http://www.w3.org/1999/xhtml\"><table class=\"hl7__eu__lab__report\"><tr><th>Test</th><th>11-Jan-2017</th><th>Reference&#xA0;Range</th><th>Unit</th></tr><tr><td>Hemoglobin A1c/Hemoglobin.total in Blood</td><td>3.1</td><td>4.5 - 6.4</td><td>L</td><td>%</td></tr></table></div>"
        },
        "status": "final",
        "subject": {
          "reference": "urn:uuid:2a1dbc64-67ed-41a9-ae62-23a0b5d7305d",
          "display": "Maria Nohlmans"
        },
        "effectiveDateTime": "2017-01-11T11:02:39Z",
        "specimen": {
          "reference": "urn:uuid:c760abae-f296-41f4-b9e1-889b5d909c75"
        }
      }
    },
    {
      "fullUrl": "urn:uuid:da23e16c-122f-4924-a901-fd0c9d27d49c",
      "resource": {
        "resourceType": "Observation",
        "id": "da23e16c-122f-4924-a901-fd0c9d27d49c",
        "meta": {
          "profile": [
            "http://hl7.eu/fhir/laboratory/StructureDefinition/Observation-resultslab-eu-lab"
          ]
        },
        "performer": [
          {
            "display": "The Central European Lab"
          }
        ],
        "category": [
          {
            "coding": [
              {
                "system": "http://terminology.hl7.org/CodeSystem/observation-category",
                "code": "laboratory"
              }
            ]
          }
        ],
        "code": {
          "coding": [
            {
              "code": "2339-0",
              "system": "http://loinc.org",
              "display": "Glucose [Mass/volume] in Blood"
            }
          ],
          "text": "Glucose [Mass/volume] in Blood"
        },
        "valueQuantity": {
          "system": "http://unitsofmeasure.org",
          "value": 79.1,
          "unit": "mg/dL",
          "code": "mg/dL"
        },
        "referenceRange": [
          {
            "low": {
              "value": 70,
              "code": "mg/dL",
              "system": "http://unitsofmeasure.org"
            }
          },
          {
            "high": {
              "value": 140,
              "code": "mg/dL",
              "system": "http://unitsofmeasure.org"
            }
          }
        ],
        "text": {
          "status": "generated",
          "div": "<div xmlns=\"http://www.w3.org/1999/xhtml\"><table class=\"hl7__eu__lab__report\"><tr><th>Test</th><th>11-Jan-2017</th><th>Reference&#xA0;Range</th><th>Unit</th></tr><tr><td>Glucose [Mass/volume] in Blood</td><td>79.1</td><td>70 - 140</td><td></td><td>mg/dL</td></tr></table></div>"
        },
        "status": "final",
        "subject": {
          "reference": "urn:uuid:2a1dbc64-67ed-41a9-ae62-23a0b5d7305d",
          "display": "Maria Nohlmans"
        },
        "effectiveDateTime": "2017-01-11T11:02:39Z",
        "specimen": {
          "reference": "urn:uuid:c760abae-f296-41f4-b9e1-889b5d909c75"
        }
      }
    },
    {
      "fullUrl": "urn:uuid:1a3727b0-9ed5-46fc-aa59-bf5b899a2523",
      "resource": {
        "resourceType": "Observation",
        "id": "1a3727b0-9ed5-46fc-aa59-bf5b899a2523",
        "meta": {
          "profile": [
            "http://hl7.eu/fhir/laboratory/StructureDefinition/Observation-resultslab-eu-lab"
          ]
        },
        "performer": [
          {
            "display": "The Central European Lab"
          }
        ],
        "category": [
          {
            "coding": [
              {
                "system": "http://terminology.hl7.org/CodeSystem/observation-category",
                "code": "laboratory"
              }
            ]
          }
        ],
        "code": {
          "coding": [
            {
              "code": "6299-2",
              "system": "http://loinc.org",
              "display": "Urea nitrogen [Mass/volume] in Blood"
            }
          ],
          "text": "Urea nitrogen [Mass/volume] in Blood"
        },
        "valueQuantity": {
          "system": "http://unitsofmeasure.org",
          "value": 7.4,
          "unit": "mg/dL",
          "code": "mg/dL"
        },
        "referenceRange": [
          {
            "low": {
              "value": 7,
              "code": "mg/dL",
              "system": "http://unitsofmeasure.org"
            }
          },
          {
            "high": {
              "value": 30,
              "code": "mg/dL",
              "system": "http://unitsofmeasure.org"
            }
          }
        ],
        "text": {
          "status": "generated",
          "div": "<div xmlns=\"http://www.w3.org/1999/xhtml\"><table class=\"hl7__eu__lab__report\"><tr><th>Test</th><th>11-Jan-2017</th><th>Reference&#xA0;Range</th><th>Unit</th></tr><tr><td>Urea nitrogen [Mass/volume] in Blood</td><td>7.4</td><td>7 - 30</td><td></td><td>mg/dL</td></tr></table></div>"
        },
        "status": "final",
        "subject": {
          "reference": "urn:uuid:2a1dbc64-67ed-41a9-ae62-23a0b5d7305d",
          "display": "Maria Nohlmans"
        },
        "effectiveDateTime": "2017-01-11T11:02:39Z",
        "specimen": {
          "reference": "urn:uuid:c760abae-f296-41f4-b9e1-889b5d909c75"
        }
      }
    },
    {
      "fullUrl": "urn:uuid:e34928ae-8a23-4d2a-9697-b384033fa677",
      "resource": {
        "resourceType": "Observation",
        "id": "e34928ae-8a23-4d2a-9697-b384033fa677",
        "meta": {
          "profile": [
            "http://hl7.eu/fhir/laboratory/StructureDefinition/Observation-resultslab-eu-lab"
          ]
        },
        "performer": [
          {
            "display": "The Central European Lab"
          }
        ],
        "category": [
          {
            "coding": [
              {
                "system": "http://terminology.hl7.org/CodeSystem/observation-category",
                "code": "laboratory"
              }
            ]
          }
        ],
        "code": {
          "coding": [
            {
              "code": "38483-4",
              "system": "http://loinc.org",
              "display": "Creatinine [Mass/volume] in Blood"
            }
          ],
          "text": "Creatinine [Mass/volume] in Blood"
        },
        "valueQuantity": {
          "system": "http://unitsofmeasure.org",
          "value": 4.9,
          "unit": "mg/dL",
          "code": "mg/dL"
        },
        "referenceRange": [
          {
            "low": {
              "value": 0.5,
              "code": "mg/dL",
              "system": "http://unitsofmeasure.org"
            }
          },
          {
            "high": {
              "value": 1.3,
              "code": "mg/dL",
              "system": "http://unitsofmeasure.org"
            }
          }
        ],
        "interpretation": [
          {
            "coding": [
              {
                "code": "H",
                "system": "http://terminology.hl7.org/CodeSystem/v3-ObservationInterpretation",
                "display": "High"
              }
            ]
          }
        ],
        "text": {
          "status": "generated",
          "div": "<div xmlns=\"http://www.w3.org/1999/xhtml\"><table class=\"hl7__eu__lab__report\"><tr><th>Test</th><th>11-Jan-2017</th><th>Reference&#xA0;Range</th><th>Unit</th></tr><tr><td>Creatinine [Mass/volume] in Blood</td><td>4.9</td><td>0.5 - 1.3</td><td>H</td><td>mg/dL</td></tr></table></div>"
        },
        "status": "final",
        "subject": {
          "reference": "urn:uuid:2a1dbc64-67ed-41a9-ae62-23a0b5d7305d",
          "display": "Maria Nohlmans"
        },
        "effectiveDateTime": "2017-01-11T11:02:39Z",
        "specimen": {
          "reference": "urn:uuid:c760abae-f296-41f4-b9e1-889b5d909c75"
        }
      }
    },
    {
      "fullUrl": "urn:uuid:45c52b11-96a3-4953-99db-9535ced9e6c8",
      "resource": {
        "resourceType": "Observation",
        "id": "45c52b11-96a3-4953-99db-9535ced9e6c8",
        "meta": {
          "profile": [
            "http://hl7.eu/fhir/laboratory/StructureDefinition/Observation-resultslab-eu-lab"
          ]
        },
        "performer": [
          {
            "display": "The Central European Lab"
          }
        ],
        "category": [
          {
            "coding": [
              {
                "system": "http://terminology.hl7.org/CodeSystem/observation-category",
                "code": "laboratory"
              }
            ]
          }
        ],
        "code": {
          "coding": [
            {
              "code": "49765-1",
              "system": "http://loinc.org",
              "display": "Calcium [Mass/volume] in Blood"
            }
          ],
          "text": "Calcium [Mass/volume] in Blood"
        },
        "valueQuantity": {
          "system": "http://unitsofmeasure.org",
          "value": 9.7,
          "unit": "mg/dL",
          "code": "mg/dL"
        },
        "referenceRange": [
          {
            "low": {
              "value": 8.6,
              "code": "mg/dL",
              "system": "http://unitsofmeasure.org"
            }
          },
          {
            "high": {
              "value": 10.2,
              "code": "mg/dL",
              "system": "http://unitsofmeasure.org"
            }
          }
        ],
        "text": {
          "status": "generated",
          "div": "<div xmlns=\"http://www.w3.org/1999/xhtml\"><table class=\"hl7__eu__lab__report\"><tr><th>Test</th><th>11-Jan-2017</th><th>Reference&#xA0;Range</th><th>Unit</th></tr><tr><td>Calcium [Mass/volume] in Blood</td><td>9.7</td><td>8.6 - 10.2</td><td></td><td>mg/dL</td></tr></table></div>"
        },
        "status": "final",
        "subject": {
          "reference": "urn:uuid:2a1dbc64-67ed-41a9-ae62-23a0b5d7305d",
          "display": "Maria Nohlmans"
        },
        "effectiveDateTime": "2017-01-11T11:02:39Z",
        "specimen": {
          "reference": "urn:uuid:c760abae-f296-41f4-b9e1-889b5d909c75"
        }
      }
    },
    {
      "fullUrl": "urn:uuid:72ae8c1c-e3fc-45be-a492-6f7035cc6c41",
      "resource": {
        "resourceType": "Observation",
        "id": "72ae8c1c-e3fc-45be-a492-6f7035cc6c41",
        "meta": {
          "profile": [
            "http://hl7.eu/fhir/laboratory/StructureDefinition/Observation-resultslab-eu-lab"
          ]
        },
        "performer": [
          {
            "display": "The Central European Lab"
          }
        ],
        "category": [
          {
            "coding": [
              {
                "system": "http://terminology.hl7.org/CodeSystem/observation-category",
                "code": "laboratory"
              }
            ]
          }
        ],
        "code": {
          "coding": [
            {
              "code": "2947-0",
              "system": "http://loinc.org",
              "display": "Sodium [Moles/volume] in Blood"
            }
          ],
          "text": "Sodium [Moles/volume] in Blood"
        },
        "valueQuantity": {
          "system": "http://unitsofmeasure.org",
          "value": 139.5,
          "unit": "mmol/L",
          "code": "mmol/L"
        },
        "referenceRange": [
          {
            "low": {
              "value": 135,
              "code": "mmol/L",
              "system": "http://unitsofmeasure.org"
            }
          },
          {
            "high": {
              "value": 145,
              "code": "mmol/L",
              "system": "http://unitsofmeasure.org"
            }
          }
        ],
        "text": {
          "status": "generated",
          "div": "<div xmlns=\"http://www.w3.org/1999/xhtml\"><table class=\"hl7__eu__lab__report\"><tr><th>Test</th><th>11-Jan-2017</th><th>Reference&#xA0;Range</th><th>Unit</th></tr><tr><td>Sodium [Moles/volume] in Blood</td><td>139.5</td><td>135 - 145</td><td></td><td>mmol/L</td></tr></table></div>"
        },
        "status": "final",
        "subject": {
          "reference": "urn:uuid:2a1dbc64-67ed-41a9-ae62-23a0b5d7305d",
          "display": "Maria Nohlmans"
        },
        "effectiveDateTime": "2017-01-11T11:02:39Z",
        "specimen": {
          "reference": "urn:uuid:c760abae-f296-41f4-b9e1-889b5d909c75"
        }
      }
    },
    {
      "fullUrl": "urn:uuid:871a83fa-aed7-44f8-abc4-3f67b8cc3fc9",
      "resource": {
        "resourceType": "Observation",
        "id": "871a83fa-aed7-44f8-abc4-3f67b8cc3fc9",
        "meta": {
          "profile": [
            "http://hl7.eu/fhir/laboratory/StructureDefinition/Observation-resultslab-eu-lab"
          ]
        },
        "performer": [
          {
            "display": "The Central European Lab"
          }
        ],
        "category": [
          {
            "coding": [
              {
                "system": "http://terminology.hl7.org/CodeSystem/observation-category",
                "code": "laboratory"
              }
            ]
          }
        ],
        "code": {
          "coding": [
            {
              "code": "6298-4",
              "system": "http://loinc.org",
              "display": "Potassium [Moles/volume] in Blood"
            }
          ],
          "text": "Potassium [Moles/volume] in Blood"
        },
        "valueQuantity": {
          "system": "http://unitsofmeasure.org",
          "value": 4.5,
          "unit": "mmol/L",
          "code": "mmol/L"
        },
        "referenceRange": [
          {
            "low": {
              "value": 3.5,
              "code": "mmol/L",
              "system": "http://unitsofmeasure.org"
            }
          },
          {
            "high": {
              "value": 5.1,
              "code": "mmol/L",
              "system": "http://unitsofmeasure.org"
            }
          }
        ],
        "text": {
          "status": "generated",
          "div": "<div xmlns=\"http://www.w3.org/1999/xhtml\"><table class=\"hl7__eu__lab__report\"><tr><th>Test</th><th>11-Jan-2017</th><th>Reference&#xA0;Range</th><th>Unit</th></tr><tr><td>Potassium [Moles/volume] in Blood</td><td>4.5</td><td>3.5 - 5.1</td><td></td><td>mmol/L</td></tr></table></div>"
        },
        "status": "final",
        "subject": {
          "reference": "urn:uuid:2a1dbc64-67ed-41a9-ae62-23a0b5d7305d",
          "display": "Maria Nohlmans"
        },
        "effectiveDateTime": "2017-01-11T11:02:39Z",
        "specimen": {
          "reference": "urn:uuid:c760abae-f296-41f4-b9e1-889b5d909c75"
        }
      }
    },
    {
      "fullUrl": "urn:uuid:fc7602c6-f874-4496-84df-b46f60244e88",
      "resource": {
        "resourceType": "Observation",
        "id": "fc7602c6-f874-4496-84df-b46f60244e88",
        "meta": {
          "profile": [
            "http://hl7.eu/fhir/laboratory/StructureDefinition/Observation-resultslab-eu-lab"
          ]
        },
        "performer": [
          {
            "display": "The Central European Lab"
          }
        ],
        "category": [
          {
            "coding": [
              {
                "system": "http://terminology.hl7.org/CodeSystem/observation-category",
                "code": "laboratory"
              }
            ]
          }
        ],
        "code": {
          "coding": [
            {
              "code": "2069-3",
              "system": "http://loinc.org",
              "display": "Chloride [Moles/volume] in Blood"
            }
          ],
          "text": "Chloride [Moles/volume] in Blood"
        },
        "valueQuantity": {
          "system": "http://unitsofmeasure.org",
          "value": 106.5,
          "unit": "mmol/L",
          "code": "mmol/L"
        },
        "referenceRange": [
          {
            "low": {
              "value": 98,
              "code": "mmol/L",
              "system": "http://unitsofmeasure.org"
            }
          },
          {
            "high": {
              "value": 114,
              "code": "mmol/L",
              "system": "http://unitsofmeasure.org"
            }
          }
        ],
        "text": {
          "status": "generated",
          "div": "<div xmlns=\"http://www.w3.org/1999/xhtml\"><table class=\"hl7__eu__lab__report\"><tr><th>Test</th><th>11-Jan-2017</th><th>Reference&#xA0;Range</th><th>Unit</th></tr><tr><td>Chloride [Moles/volume] in Blood</td><td>106.5</td><td>98 - 114</td><td></td><td>mmol/L</td></tr></table></div>"
        },
        "status": "final",
        "subject": {
          "reference": "urn:uuid:2a1dbc64-67ed-41a9-ae62-23a0b5d7305d",
          "display": "Maria Nohlmans"
        },
        "effectiveDateTime": "2017-01-11T11:02:39Z",
        "specimen": {
          "reference": "urn:uuid:c760abae-f296-41f4-b9e1-889b5d909c75"
        }
      }
    },
    {
      "fullUrl": "urn:uuid:81515e47-49c9-48f1-a397-2e8ca017bb7f",
      "resource": {
        "resourceType": "Observation",
        "id": "81515e47-49c9-48f1-a397-2e8ca017bb7f",
        "meta": {
          "profile": [
            "http://hl7.eu/fhir/laboratory/StructureDefinition/Observation-resultslab-eu-lab"
          ]
        },
        "performer": [
          {
            "display": "The Central European Lab"
          }
        ],
        "category": [
          {
            "coding": [
              {
                "system": "http://terminology.hl7.org/CodeSystem/observation-category",
                "code": "laboratory"
              }
            ]
          }
        ],
        "code": {
          "coding": [
            {
              "code": "20565-8",
              "system": "http://loinc.org",
              "display": "Carbon dioxide, total [Moles/volume] in Blood"
            }
          ],
          "text": "Carbon dioxide, total [Moles/volume] in Blood"
        },
        "valueQuantity": {
          "system": "http://unitsofmeasure.org",
          "value": 25.5,
          "unit": "mmol/L",
          "code": "mmol/L"
        },
        "referenceRange": [
          {
            "low": {
              "value": 22,
              "code": "mmol/L",
              "system": "http://unitsofmeasure.org"
            }
          },
          {
            "high": {
              "value": 32,
              "code": "mmol/L",
              "system": "http://unitsofmeasure.org"
            }
          }
        ],
        "text": {
          "status": "generated",
          "div": "<div xmlns=\"http://www.w3.org/1999/xhtml\"><table class=\"hl7__eu__lab__report\"><tr><th>Test</th><th>11-Jan-2017</th><th>Reference&#xA0;Range</th><th>Unit</th></tr><tr><td>Carbon dioxide, total [Moles/volume] in Blood</td><td>25.5</td><td>22 - 32</td><td></td><td>mmol/L</td></tr></table></div>"
        },
        "status": "final",
        "subject": {
          "reference": "urn:uuid:2a1dbc64-67ed-41a9-ae62-23a0b5d7305d",
          "display": "Maria Nohlmans"
        },
        "effectiveDateTime": "2017-01-11T11:02:39Z",
        "specimen": {
          "reference": "urn:uuid:c760abae-f296-41f4-b9e1-889b5d909c75"
        }
      }
    },
    {
      "fullUrl": "urn:uuid:91b2ce63-3f43-4e60-ab72-b3ac2d7673f0",
      "resource": {
        "resourceType": "Device",
        "id": "91b2ce63-3f43-4e60-ab72-b3ac2d7673f0",
        "deviceName": [
          {
            "name": "SYNDERAI Synthetic Generator",
            "type": "manufacturer-name"
          }
        ],
        "version": [
          {
            "value": "5.0"
          }
        ],
        "text": {
          "status": "generated",
          "div": "<div xmlns=\"http://www.w3.org/1999/xhtml\">SYNDERAI Synthetic Generator v5.0</div>"
        },
        "status": "active\"",
        "distinctIdentifier": "synderai-generator-50",
        "manufacturer": "SYNDERAI Project"
      }
    },
    {
      "fullUrl": "urn:uuid:53ef5a4f-3f98-4f2d-bbae-72bae2c9cc8d",
      "resource": {
        "resourceType": "Provenance",
        "id": "53ef5a4f-3f98-4f2d-bbae-72bae2c9cc8d",
        "target": [
          {
            "reference": "Patient/2a1dbc64-67ed-41a9-ae62-23a0b5d7305d"
          },
          {
            "reference": "Bundle/071466a1-77ab-4711-a7f9-ededb401fdeb"
          },
          {
            "reference": "Composition/1cc8a20e-5cec-42d1-a4a2-ac34f7c18663"
          },
          {
            "reference": "PractitionerRole/3e18913f-71cd-4cce-b764-b6ca357d1c2b"
          },
          {
            "reference": "Practitioner/799615d6-b165-4d6c-9f2c-dd5d0d4b1b57"
          },
          {
            "reference": "PractitionerRole/c9dc65c6-9c43-49bb-817b-e13fd5623cae"
          },
          {
            "reference": "Organization/22a78bf6-5ad8-4b5d-b2f3-2a7f8c7ae20d"
          }
        ],
        "activity": {
          "text": "Synthetic Example Data Generation"
        },
        "policy": [
          "https://synderai.net/synderai-synthetic-data-policy"
        ],
        "agent": [
          {
            "type": {
              "text": "author"
            },
            "who": {
              "reference": "Device/91b2ce63-3f43-4e60-ab72-b3ac2d7673f0"
            }
          }
        ],
        "reason": [
          {
            "text": "Interoperability Testing and Training (non-clinical use)"
          }
        ],
        "text": {
          "status": "generated",
          "div": "<div xmlns=\"http://www.w3.org/1999/xhtml\">Provenance for SYNDERAI Synthetic Example Data Resource</div>"
        },
        "recorded": "2017-01-11T12:02:39Z"
      }
    },
    {
      "fullUrl": "urn:uuid:3e18913f-71cd-4cce-b764-b6ca357d1c2b",
      "resource": {
        "resourceType": "PractitionerRole",
        "id": "3e18913f-71cd-4cce-b764-b6ca357d1c2b",
        "meta": {
          "profile": [
            "http://hl7.eu/fhir/base/StructureDefinition/practitionerRole-eu"
          ]
        },
        "text": {
          "status": "generated",
          "div": "<div xmlns=\"http://www.w3.org/1999/xhtml\">Laboratory Role Id: 3e18913f-71cd-4cce-b764-b6ca357d1c2b</div>"
        },
        "practitioner": {
          "reference": "urn:uuid:799615d6-b165-4d6c-9f2c-dd5d0d4b1b57"
        }
      }
    },
    {
      "fullUrl": "urn:uuid:799615d6-b165-4d6c-9f2c-dd5d0d4b1b57",
      "resource": {
        "resourceType": "Practitioner",
        "id": "799615d6-b165-4d6c-9f2c-dd5d0d4b1b57",
        "meta": {
          "profile": [
            "http://hl7.eu/fhir/base/StructureDefinition/practitioner-eu"
          ]
        },
        "identifier": [
          {
            "assigner": {
              "display": "HL7 Europe"
            },
            "system": "urn:oid:2.16.840.1.113883.2.51.999",
            "value": "db225ad6-8d3d-4a8f-90b7-d8f8c0ddf5c7"
          }
        ],
        "name": [
          {
            "prefix": [
              "dr"
            ],
            "given": [
              "Ex"
            ],
            "family": "Ample"
          }
        ],
        "address": [
          {
            "line": [
              "Laboratoire Central Européenne",
              "Boulevard du Jardin Botanique 32"
            ],
            "postalCode": "1000",
            "city": "Brussels",
            "country": "Belgium"
          }
        ],
        "text": {
          "status": "generated",
          "div": "<div xmlns=\"http://www.w3.org/1999/xhtml\">Laboratory: Laboratoire Central Européenne, 1000 Brussels, Belgium</div>"
        }
      }
    }
  ],
  "type": "document",
  "timestamp": "2017-01-11T12:02:39Z"
}
