{
  "resourceType": "Bundle",
  "id": "186167b9-77b3-4ed7-be03-c6a50b3b4ab6",
  "meta": {
    "profile": [
      "http://hl7.eu/fhir/laboratory/StructureDefinition/Bundle-eu-lab"
    ]
  },
  "identifier": {
    "assigner": {
      "display": "HL7 Europe"
    },
    "system": "urn:oid:2.16.840.1.113883.2.51.999",
    "value": "5d3963e4-4e5b-4ecd-a507-524475e1d770"
  },
  "entry": [
    {
      "fullUrl": "urn:uuid:7e427bce-0c11-4244-ba73-ec8bef97167e",
      "resource": {
        "resourceType": "Composition",
        "id": "7e427bce-0c11-4244-ba73-ec8bef97167e",
        "meta": {
          "profile": [
            "http://hl7.eu/fhir/laboratory/StructureDefinition/Composition-eu-lab"
          ]
        },
        "identifier": {
          "assigner": {
            "display": "HL7 Europe"
          },
          "system": "urn:oid:2.16.840.1.113883.2.51.999",
          "value": "a79d6058-f5e5-43de-958e-5f245e7ed977"
        },
        "author": [
          {
            "reference": "urn:uuid:4dddb4c8-96d0-4a84-83be-8d3f64c939f5"
          }
        ],
        "category": [
          {
            "coding": [
              {
                "code": "26436-6",
                "system": "http://loinc.org",
                "display": "Laboratory studies (set)"
              }
            ]
          }
        ],
        "type": {
          "coding": [
            {
              "code": "11502-2",
              "system": "http://loinc.org",
              "display": "Laboratory report"
            }
          ],
          "text": "Laboratory Report"
        },
        "section": [
          {
            "code": {
              "coding": [
                {
                  "code": "26436-6",
                  "system": "http://loinc.org",
                  "display": "Laboratory studies (set)"
                }
              ],
              "text": "Laboratory studies"
            },
            "section": [
              {
                "code": {
                  "coding": [
                    {
                      "code": "$18719-5",
                      "system": "http://loinc.org",
                      "display": "Chemistry studies (set)"
                    }
                  ],
                  "text": "Chemistry"
                },
                "entry": [
                  {
                    "reference": "urn:uuid:eb077cf4-7022-4639-be26-115d06c03a4d"
                  },
                  {
                    "reference": "urn:uuid:64f24331-535d-418a-b2a2-97f08ce3a100"
                  },
                  {
                    "reference": "urn:uuid:eabf8e84-d533-4fe5-93eb-50686c33be01"
                  },
                  {
                    "reference": "urn:uuid:12a74b0d-5e33-4c65-9f71-d363513aeae5"
                  },
                  {
                    "reference": "urn:uuid:dfab190f-d8bd-4779-a1a8-1bf446c7affc"
                  },
                  {
                    "reference": "urn:uuid:5b03a2b5-2429-4f7e-8e19-f0766107d415"
                  },
                  {
                    "reference": "urn:uuid:d51ebab9-91d5-481e-bf56-d5c2237e69a1"
                  },
                  {
                    "reference": "urn:uuid:719f59ea-8631-43ee-a5d7-6f4d8860c366"
                  },
                  {
                    "reference": "urn:uuid:12be6146-56fa-4779-a106-ba7021cf82d4"
                  },
                  {
                    "reference": "urn:uuid:08021049-e9fb-403d-b636-53bfd2df28df"
                  }
                ],
                "text": {
                  "status": "generated",
                  "div": "<div xmlns=\"http://www.w3.org/1999/xhtml\"><h3>Chemistry</h3><table class=\"hl7__eu__lab__report\"><thead><tr><th>Test</th><th>05-DEC-2016</th><th>Reference&#xA0;Range</th><th>Unit</th></tr></thead><tbody><tr><td>Glucose [Mass/volume] in Serum or Plasma</td><td>80.4</td><td>70 - 99</td><td>mg/dL</td></tr><tr><td>Urea nitrogen [Mass/volume] in Serum or Plasma</td><td>11.9</td><td>7 - 50</td><td>mg/dL</td></tr><tr><td>Creatinine [Mass/volume] in Serum or Plasma</td><td><strong>1.9 H</strong></td><td>0.6 - 1.1</td><td>mg/dL</td></tr><tr><td>Calcium [Mass/volume] in Serum or Plasma</td><td>9.0</td><td>8.6 - 10.4</td><td>mg/dL</td></tr><tr><td>Sodium [Moles/volume] in Serum or Plasma</td><td>136.4</td><td>135 - 145</td><td>mmol/L</td></tr><tr><td>Potassium [Moles/volume] in Serum or Plasma</td><td>4.5</td><td>3.5 - 5.1</td><td>mmol/L</td></tr><tr><td>Chloride [Moles/volume] in Serum or Plasma</td><td>107.2</td><td>98 - 108</td><td>mmol/L</td></tr><tr><td>Carbon dioxide, total [Moles/volume] in Serum or Plasma</td><td><strong>20.6 L</strong></td><td>22 - 32</td><td>mmol/L</td></tr><tr><td>Ketones [Presence] in Urine by Test strip</td><td>Urine ketone test = +</td><td></td><td></td></tr><tr><td>Hemoglobin A1c/Hemoglobin.total in Blood</td><td><strong>3.1 L</strong></td><td>4 - 6.4</td><td>%</td></tr></tbody></table></div>"
                },
                "title": "Chemistry"
              },
              {
                "code": {
                  "coding": [
                    {
                      "code": "$18729-4",
                      "system": "http://loinc.org",
                      "display": "Urinalysis studies (set)"
                    }
                  ],
                  "text": "Urinalysis"
                },
                "entry": [
                  {
                    "reference": "urn:uuid:40f96d91-29d9-410c-9545-c3ff274dd8bb"
                  },
                  {
                    "reference": "urn:uuid:535b42b6-db11-4f89-90c8-83b872637535"
                  },
                  {
                    "reference": "urn:uuid:ebc0f752-d660-4226-b465-2cd026e85270"
                  },
                  {
                    "reference": "urn:uuid:ea4917cf-276f-48c8-81f7-744c8dd81e06"
                  },
                  {
                    "reference": "urn:uuid:16447a62-81a9-439f-91d5-dfc0c6fd4a1c"
                  },
                  {
                    "reference": "urn:uuid:cb06174a-e0b5-4b93-bbc0-6165b9d08594"
                  },
                  {
                    "reference": "urn:uuid:bb16a6b6-68f9-44f7-b8c0-42a572e24a86"
                  },
                  {
                    "reference": "urn:uuid:04f76c41-270a-4654-8195-8e4d10876aeb"
                  },
                  {
                    "reference": "urn:uuid:134a8a52-0d1d-402a-a16f-c41df8f0a40e"
                  },
                  {
                    "reference": "urn:uuid:f38e47cd-0a90-4f67-979a-5d8697d3635d"
                  },
                  {
                    "reference": "urn:uuid:7d7f5f06-5062-40b1-8866-7ffe1e23f1ca"
                  },
                  {
                    "reference": "urn:uuid:fcbe3add-2aa0-4de9-82fc-26fd551685a2"
                  }
                ],
                "text": {
                  "status": "generated",
                  "div": "<div xmlns=\"http://www.w3.org/1999/xhtml\"><h3>Urinalysis</h3><table class=\"hl7__eu__lab__report\"><thead><tr><th>Test</th><th>05-DEC-2016</th><th>Reference&#xA0;Range</th><th>Unit</th></tr></thead><tbody><tr><td>Glucose [Mass/volume] in Urine by Test strip</td><td><strong>2.0 H</strong></td><td>0.8 - 0</td><td>mg/dL</td></tr><tr><td>Glucose [Presence] in Urine by Test strip</td><td>++</td><td></td><td></td></tr><tr><td>Bilirubin.total [Mass/volume] in Urine by Test strip</td><td>0.6</td><td>0 - 1</td><td>mg/dL</td></tr><tr><td>Bilirubin.total [Presence] in Urine by Test strip</td><td>Finding of bilirubin in urine</td><td></td><td></td></tr><tr><td>Ketones [Mass/volume] in Urine by Test strip</td><td><strong>15.2 H</strong></td><td>0 - 4</td><td>mg/dL</td></tr><tr><td>Specific gravity of Urine by Test strip</td><td><strong>1.0 L</strong></td><td>1.005 - 1.03</td><td>{nominal}</td></tr><tr><td>pH of Urine by Test strip</td><td>5.5</td><td>4.6 - 7</td><td>pH</td></tr><tr><td>Protein [Mass/volume] in Urine by Test strip</td><td><strong>278.6 H</strong></td><td>0 - 14</td><td>mg/dL</td></tr><tr><td>Protein [Presence] in Urine by Test strip</td><td>Urine protein test = ++</td><td></td><td></td></tr><tr><td>Nitrite [Presence] in Urine by Test strip</td><td>Urine nitrite negative</td><td></td><td></td></tr><tr><td>Hemoglobin [Presence] in Urine by Test strip</td><td>Urine blood test = negative</td><td></td><td></td></tr><tr><td>Leukocyte esterase [Presence] in Urine by Test strip</td><td>Urine leukocyte test negative</td><td></td><td></td></tr></tbody></table></div>"
                },
                "title": "Urinalysis"
              },
              {
                "code": {
                  "coding": [
                    {
                      "code": "$LP7846-1",
                      "system": "http://loinc.org",
                      "display": "Specimen information"
                    }
                  ],
                  "text": "Specimen information"
                },
                "entry": [
                  {
                    "reference": "urn:uuid:02b49d08-2957-4cc4-ab9f-abc97da51692"
                  },
                  {
                    "reference": "urn:uuid:3a43dbfd-b022-4861-8813-5e4456ba8bbe"
                  },
                  {
                    "reference": "urn:uuid:7a07ab38-a5e0-46ec-9275-9f58f5d8a881"
                  },
                  {
                    "reference": "urn:uuid:0c0f354e-38b0-4844-ab03-e14cbcf443ae"
                  }
                ],
                "text": {
                  "status": "generated",
                  "div": "<div xmlns=\"http://www.w3.org/1999/xhtml\"><h3>Specimen information</h3><table class=\"hl7__eu__lab__report\"><thead><tr><th>Test</th><th>05-DEC-2016</th><th>Specimen</th><th></th></tr></thead><tbody><tr><td>Appearance of Urine</td><td>Cloudy urine</td><td>Urine</td><td></td></tr><tr><td>Odor of Urine</td><td>Urine smell ammoniacal</td><td>Urine</td><td></td></tr><tr><td>Clarity of Urine</td><td>Translucent</td><td>Urine</td><td></td></tr><tr><td>Color of Urine</td><td>Brown color</td><td>Urine</td><td></td></tr></tbody></table></div>"
                },
                "title": "Specimen information"
              }
            ],
            "title": "Laboratory Report"
          },
          {
            "text": {
              "status": "generated",
              "div": "<div xmlns=\"http://www.w3.org/1999/xhtml\"><h3>Annotation</h3><table class=\"hl7__eu__lab__report\"><tr><th>Conclusion and Recommendations based on this report and previous findings known to us</th></tr><tr><td>The patient shows elevated serum creatinine, low total CO₂, and significant proteinuria, suggesting possible renal impairment with metabolic acidosis. Urine findings (cloudy, brown, ammoniacal, high protein, glucose, and ketones) further support renal dysfunction and possible glycosuria/ketonuria, despite low HbA1c and normal serum glucose. No evidence of urinary infection. Recommend further nephrological evaluation and assessment for possible acute or chronic kidney disease.</td></tr></table></div>"
            },
            "code": {
              "coding": [
                {
                  "system": "http://loinc.org",
                  "code": "48767-8",
                  "display": "Annotation comment"
                }
              ]
            },
            "title": "Annotation comment"
          }
        ],
        "status": "final",
        "subject": {
          "reference": "urn:uuid:fa8d7fe6-7af7-4c05-9fb5-83b3861685f1",
          "display": "Meaghan Neary"
        },
        "date": "2016-12-05T23:11:04Z",
        "title": "Laboratory Report",
        "confidentiality": "N"
      }
    },
    {
      "fullUrl": "urn:uuid:561504a4-cb2f-4954-85b6-991355159a19",
      "resource": {
        "resourceType": "DiagnosticReport",
        "id": "561504a4-cb2f-4954-85b6-991355159a19",
        "meta": {
          "profile": [
            "http://hl7.eu/fhir/laboratory/StructureDefinition/DiagnosticReport-eu-lab"
          ]
        },
        "identifier": [
          {
            "assigner": {
              "display": "HL7 Europe"
            },
            "system": "urn:oid:2.16.840.1.113883.2.51.999",
            "value": "1c97e6a5-ba16-4857-bd46-a800b2b3b302"
          }
        ],
        "extension": [
          {
            "url": "http://hl7.org/fhir/5.0/StructureDefinition/extension-DiagnosticReport.composition",
            "valueReference": {
              "reference": "urn:uuid:a79d6058-f5e5-43de-958e-5f245e7ed977"
            }
          }
        ],
        "category": [
          {
            "coding": [
              {
                "code": "26436-6",
                "system": "http://loinc.org",
                "display": "Laboratory studies (set)"
              }
            ]
          }
        ],
        "specimen": [
          {
            "reference": "urn:uuid:f5d821cc-b3a4-4830-b36a-1904f8fbcf9e"
          },
          {
            "reference": "urn:uuid:265227f8-ba6e-453b-a3ec-b19dc1d88f72"
          },
          {
            "reference": "urn:uuid:346dd6ae-9778-4bac-9c13-19824f38564c"
          }
        ],
        "result": [
          {
            "reference": "urn:uuid:eb077cf4-7022-4639-be26-115d06c03a4d"
          },
          {
            "reference": "urn:uuid:64f24331-535d-418a-b2a2-97f08ce3a100"
          },
          {
            "reference": "urn:uuid:eabf8e84-d533-4fe5-93eb-50686c33be01"
          },
          {
            "reference": "urn:uuid:12a74b0d-5e33-4c65-9f71-d363513aeae5"
          },
          {
            "reference": "urn:uuid:dfab190f-d8bd-4779-a1a8-1bf446c7affc"
          },
          {
            "reference": "urn:uuid:5b03a2b5-2429-4f7e-8e19-f0766107d415"
          },
          {
            "reference": "urn:uuid:d51ebab9-91d5-481e-bf56-d5c2237e69a1"
          },
          {
            "reference": "urn:uuid:719f59ea-8631-43ee-a5d7-6f4d8860c366"
          },
          {
            "reference": "urn:uuid:02b49d08-2957-4cc4-ab9f-abc97da51692"
          },
          {
            "reference": "urn:uuid:3a43dbfd-b022-4861-8813-5e4456ba8bbe"
          },
          {
            "reference": "urn:uuid:7a07ab38-a5e0-46ec-9275-9f58f5d8a881"
          },
          {
            "reference": "urn:uuid:0c0f354e-38b0-4844-ab03-e14cbcf443ae"
          },
          {
            "reference": "urn:uuid:40f96d91-29d9-410c-9545-c3ff274dd8bb"
          },
          {
            "reference": "urn:uuid:535b42b6-db11-4f89-90c8-83b872637535"
          },
          {
            "reference": "urn:uuid:ebc0f752-d660-4226-b465-2cd026e85270"
          },
          {
            "reference": "urn:uuid:ea4917cf-276f-48c8-81f7-744c8dd81e06"
          },
          {
            "reference": "urn:uuid:16447a62-81a9-439f-91d5-dfc0c6fd4a1c"
          },
          {
            "reference": "urn:uuid:12be6146-56fa-4779-a106-ba7021cf82d4"
          },
          {
            "reference": "urn:uuid:cb06174a-e0b5-4b93-bbc0-6165b9d08594"
          },
          {
            "reference": "urn:uuid:bb16a6b6-68f9-44f7-b8c0-42a572e24a86"
          },
          {
            "reference": "urn:uuid:04f76c41-270a-4654-8195-8e4d10876aeb"
          },
          {
            "reference": "urn:uuid:134a8a52-0d1d-402a-a16f-c41df8f0a40e"
          },
          {
            "reference": "urn:uuid:f38e47cd-0a90-4f67-979a-5d8697d3635d"
          },
          {
            "reference": "urn:uuid:7d7f5f06-5062-40b1-8866-7ffe1e23f1ca"
          },
          {
            "reference": "urn:uuid:fcbe3add-2aa0-4de9-82fc-26fd551685a2"
          },
          {
            "reference": "urn:uuid:08021049-e9fb-403d-b636-53bfd2df28df"
          }
        ],
        "status": "registered",
        "code": {
          "coding": [
            {
              "code": "11502-2",
              "system": "http://loinc.org",
              "display": "Laboratory report"
            }
          ]
        },
        "subject": {
          "reference": "urn:uuid:fa8d7fe6-7af7-4c05-9fb5-83b3861685f1",
          "display": "Meaghan Neary"
        }
      }
    },
    {
      "fullUrl": "urn:uuid:fa8d7fe6-7af7-4c05-9fb5-83b3861685f1",
      "resource": {
        "resourceType": "Patient",
        "id": "fa8d7fe6-7af7-4c05-9fb5-83b3861685f1",
        "meta": {
          "security": [
            {
              "system": "http://terminology.hl7.org/CodeSystem/v3-ActReason",
              "code": "HTEST"
            },
            {
              "system": "http://terminology.hl7.org/CodeSystem/v3-ActReason",
              "code": "TRAIN"
            }
          ],
          "tag": [
            {
              "system": "https://synderai.net/fhir/CodeSystem/tags",
              "code": "synthetic",
              "display": "SYNDERAI Synthetic data"
            }
          ],
          "profile": [
            "http://hl7.eu/fhir/base/StructureDefinition/patient-eu-core"
          ]
        },
        "identifier": [
          {
            "type": {
              "coding": [
                {
                  "code": "PT",
                  "system": "http://terminology.hl7.org/CodeSystem/v2-0203"
                }
              ]
            },
            "system": "http://ec.europa.eu/identifier/eci",
            "value": "1586-567257-8"
          },
          {
            "type": {
              "coding": [
                {
                  "code": "MR",
                  "system": "http://terminology.hl7.org/CodeSystem/v2-0203"
                }
              ]
            },
            "system": "http://local.setting.eu/identifier",
            "value": "443e6379-f231-b364-3ccb-644740a1aa2a"
          }
        ],
        "name": [
          {
            "family": "Neary"
          },
          {
            "given": [
              "Meaghan"
            ]
          },
          {
            "text": "Meaghan Neary"
          }
        ],
        "address": [
          {
            "line": [
              "64 Linskey Street"
            ],
            "use": "home",
            "type": "physical",
            "postalCode": "D02",
            "city": "Dublin",
            "country": "Ireland"
          }
        ],
        "telecom": [
          {
            "system": "phone",
            "value": "001-967-573-0911x465"
          }
        ],
        "extension": [
          {
            "url": "http://hl7.org/fhir/StructureDefinition/patient-nationality",
            "valueCodeableConcept": {
              "coding": [
                {
                  "code": "IE",
                  "system": "http://hl7.org/fhir/ValueSet/country"
                }
              ]
            }
          }
        ],
        "text": {
          "status": "generated",
          "div": "<div xmlns=\"http://www.w3.org/1999/xhtml\"><table class=\"hl7__ips\"><tr><td>Meaghan Neary</td><td>female</td><td>19-Dec-1960</td></tr></table></div>"
        },
        "gender": "female",
        "birthDate": "1960-12-19"
      }
    },
    {
      "fullUrl": "urn:uuid:aad9a6e4-0ead-48cc-8684-8a14585234e8",
      "resource": {
        "resourceType": "ServiceRequest",
        "id": "aad9a6e4-0ead-48cc-8684-8a14585234e8",
        "meta": {
          "profile": [
            "http://hl7.eu/fhir/laboratory/StructureDefinition/ServiceRequest-eu-lab"
          ]
        },
        "identifier": [
          {
            "system": "http://example.org",
            "value": "de2aa479-fef7-49d1-88f3-bfe511f76adf"
          }
        ],
        "specimen": [
          {
            "reference": "urn:uuid:f5d821cc-b3a4-4830-b36a-1904f8fbcf9e"
          },
          {
            "reference": "urn:uuid:265227f8-ba6e-453b-a3ec-b19dc1d88f72"
          },
          {
            "reference": "urn:uuid:346dd6ae-9778-4bac-9c13-19824f38564c"
          }
        ],
        "reasonCode": [
          {
            "coding": [
              {
                "code": "55822004",
                "system": "http://snomed.info/sct",
                "display": "Hyperlipidemia"
              }
            ]
          },
          {
            "coding": [
              {
                "code": "433144002",
                "system": "http://snomed.info/sct",
                "display": "Chronic kidney disease stage 3"
              }
            ]
          },
          {
            "coding": [
              {
                "code": "157141000119108",
                "system": "http://snomed.info/sct",
                "display": "Proteinuria due to type 2 diabetes mellitus"
              }
            ]
          },
          {
            "coding": [
              {
                "code": "431856006",
                "system": "http://snomed.info/sct",
                "display": "Chronic kidney disease stage 2"
              }
            ]
          },
          {
            "coding": [
              {
                "code": "90781000119102",
                "system": "http://snomed.info/sct",
                "display": "Microalbuminuria due to type 2 diabetes mellitus"
              }
            ]
          },
          {
            "coding": [
              {
                "code": "127013003",
                "system": "http://snomed.info/sct",
                "display": "Disorder of kidney due to diabetes mellitus"
              }
            ]
          },
          {
            "coding": [
              {
                "code": "431855005",
                "system": "http://snomed.info/sct",
                "display": "Chronic kidney disease stage 1"
              }
            ]
          },
          {
            "coding": [
              {
                "code": "237602007",
                "system": "http://snomed.info/sct",
                "display": "Metabolic syndrome X"
              }
            ]
          },
          {
            "coding": [
              {
                "code": "271737000",
                "system": "http://snomed.info/sct",
                "display": "Anemia"
              }
            ]
          },
          {
            "coding": [
              {
                "code": "15777000",
                "system": "http://snomed.info/sct",
                "display": "Prediabetes"
              }
            ]
          },
          {
            "coding": [
              {
                "code": "59621000",
                "system": "http://snomed.info/sct",
                "display": "Essential hypertension"
              }
            ]
          }
        ],
        "status": "active",
        "intent": "order",
        "code": {
          "coding": [
            {
              "code": "108252007",
              "system": "http://snomed.info/sct",
              "display": "Laboratory procedure"
            }
          ]
        },
        "subject": {
          "reference": "urn:uuid:fa8d7fe6-7af7-4c05-9fb5-83b3861685f1",
          "display": "Meaghan Neary"
        },
        "requester": {
          "reference": "urn:uuid:891fd7d9-2bc6-4aa6-b3de-8272afdc3b77"
        }
      }
    },
    {
      "fullUrl": "urn:uuid:891fd7d9-2bc6-4aa6-b3de-8272afdc3b77",
      "resource": {
        "resourceType": "PractitionerRole",
        "id": "891fd7d9-2bc6-4aa6-b3de-8272afdc3b77",
        "meta": {
          "profile": [
            "http://hl7.eu/fhir/base/StructureDefinition/practitionerRole-eu"
          ]
        },
        "text": {
          "status": "generated",
          "div": "<div xmlns=\"http://www.w3.org/1999/xhtml\">Provider Role Id: 891fd7d9-2bc6-4aa6-b3de-8272afdc3b77</div>"
        },
        "organization": {
          "reference": "urn:uuid:21194b27-cfa2-43d1-a27c-e35e85d2a15c"
        }
      }
    },
    {
      "fullUrl": "urn:uuid:21194b27-cfa2-43d1-a27c-e35e85d2a15c",
      "resource": {
        "resourceType": "Organization",
        "id": "21194b27-cfa2-43d1-a27c-e35e85d2a15c",
        "meta": {
          "profile": [
            "http://hl7.eu/fhir/base/StructureDefinition/organization-eu"
          ]
        },
        "identifier": [
          {
            "assigner": {
              "display": "HL7 Europe"
            },
            "system": "urn:oid:2.16.840.1.113883.2.51.999",
            "value": "43325317-d87f-4aaf-a440-927c0baea44b"
          }
        ],
        "address": [
          {
            "line": [
              "Parnell Square West nan"
            ],
            "city": "Dublin",
            "postalCode": "D01",
            "country": "Ireland"
          }
        ],
        "text": {
          "status": "generated",
          "div": "<div xmlns=\"http://www.w3.org/1999/xhtml\">Provider Organization: Rotunda Hospital</div>"
        },
        "name": "Rotunda Hospital"
      }
    },
    {
      "fullUrl": "urn:uuid:f5d821cc-b3a4-4830-b36a-1904f8fbcf9e",
      "resource": {
        "resourceType": "Specimen",
        "id": "f5d821cc-b3a4-4830-b36a-1904f8fbcf9e",
        "meta": {
          "profile": [
            "http://hl7.eu/fhir/laboratory/StructureDefinition/Specimen-eu-lab"
          ]
        },
        "collection": {
          "collectedDateTime": "2016-12-05"
        },
        "text": {
          "status": "generated",
          "div": "<div xmlns=\"http://www.w3.org/1999/xhtml\"><table class=\"hl7__eu__lab__report\"><tr><th>Specimen</th><th>Collection Date</th></tr><tr><td>Acellular blood (serum or plasma) specimen</td><td><span class=\"nb\">05-Dec-2016</span></td></tr></table></div>"
        },
        "type": {
          "coding": [
            {
              "code": "122592007",
              "system": "http://snomed.info/sct",
              "display": "Acellular blood (serum or plasma) specimen"
            }
          ]
        }
      }
    },
    {
      "fullUrl": "urn:uuid:265227f8-ba6e-453b-a3ec-b19dc1d88f72",
      "resource": {
        "resourceType": "Specimen",
        "id": "265227f8-ba6e-453b-a3ec-b19dc1d88f72",
        "meta": {
          "profile": [
            "http://hl7.eu/fhir/laboratory/StructureDefinition/Specimen-eu-lab"
          ]
        },
        "collection": {
          "collectedDateTime": "2016-12-05"
        },
        "text": {
          "status": "generated",
          "div": "<div xmlns=\"http://www.w3.org/1999/xhtml\"><table class=\"hl7__eu__lab__report\"><tr><th>Specimen</th><th>Collection Date</th></tr><tr><td>Urine specimen</td><td><span class=\"nb\">05-Dec-2016</span></td></tr></table></div>"
        },
        "type": {
          "coding": [
            {
              "code": "122575003",
              "system": "http://snomed.info/sct",
              "display": "Urine specimen"
            }
          ]
        }
      }
    },
    {
      "fullUrl": "urn:uuid:346dd6ae-9778-4bac-9c13-19824f38564c",
      "resource": {
        "resourceType": "Specimen",
        "id": "346dd6ae-9778-4bac-9c13-19824f38564c",
        "meta": {
          "profile": [
            "http://hl7.eu/fhir/laboratory/StructureDefinition/Specimen-eu-lab"
          ]
        },
        "collection": {
          "collectedDateTime": "2016-12-05"
        },
        "text": {
          "status": "generated",
          "div": "<div xmlns=\"http://www.w3.org/1999/xhtml\"><table class=\"hl7__eu__lab__report\"><tr><th>Specimen</th><th>Collection Date</th></tr><tr><td>Whole blood specimen (specimen)</td><td><span class=\"nb\">05-Dec-2016</span></td></tr></table></div>"
        },
        "type": {
          "coding": [
            {
              "code": "258580003",
              "system": "http://snomed.info/sct",
              "display": "Whole blood specimen (specimen)"
            }
          ]
        }
      }
    },
    {
      "fullUrl": "urn:uuid:eb077cf4-7022-4639-be26-115d06c03a4d",
      "resource": {
        "resourceType": "Observation",
        "id": "eb077cf4-7022-4639-be26-115d06c03a4d",
        "meta": {
          "profile": [
            "http://hl7.eu/fhir/laboratory/StructureDefinition/Observation-resultslab-eu-lab"
          ]
        },
        "performer": [
          {
            "display": "The Central European Lab"
          }
        ],
        "category": [
          {
            "coding": [
              {
                "system": "http://terminology.hl7.org/CodeSystem/observation-category",
                "code": "laboratory"
              }
            ]
          }
        ],
        "code": {
          "coding": [
            {
              "code": "2345-7",
              "system": "http://loinc.org",
              "display": "Glucose [Mass/volume] in Serum or Plasma"
            }
          ],
          "text": "Glucose [Mass/volume] in Serum or Plasma"
        },
        "valueQuantity": {
          "system": "http://unitsofmeasure.org",
          "value": 80.4,
          "unit": "mg/dL",
          "code": "mg/dL"
        },
        "referenceRange": [
          {
            "low": {
              "value": 70,
              "code": "mg/dL",
              "system": "http://unitsofmeasure.org"
            }
          },
          {
            "high": {
              "value": 99,
              "code": "mg/dL",
              "system": "http://unitsofmeasure.org"
            }
          }
        ],
        "text": {
          "status": "generated",
          "div": "<div xmlns=\"http://www.w3.org/1999/xhtml\"><table class=\"hl7__eu__lab__report\"><tr><th>Test</th><th>05-Dec-2016</th><th>Reference&#xA0;Range</th><th>Unit</th></tr><tr><td>Glucose [Mass/volume] in Serum or Plasma</td><td>80.4</td><td>70 - 99</td><td></td><td>mg/dL</td></tr></table></div>"
        },
        "status": "final",
        "subject": {
          "reference": "urn:uuid:fa8d7fe6-7af7-4c05-9fb5-83b3861685f1",
          "display": "Meaghan Neary"
        },
        "effectiveDateTime": "2016-12-05T22:11:04Z",
        "specimen": {
          "reference": "urn:uuid:f5d821cc-b3a4-4830-b36a-1904f8fbcf9e"
        }
      }
    },
    {
      "fullUrl": "urn:uuid:64f24331-535d-418a-b2a2-97f08ce3a100",
      "resource": {
        "resourceType": "Observation",
        "id": "64f24331-535d-418a-b2a2-97f08ce3a100",
        "meta": {
          "profile": [
            "http://hl7.eu/fhir/laboratory/StructureDefinition/Observation-resultslab-eu-lab"
          ]
        },
        "performer": [
          {
            "display": "The Central European Lab"
          }
        ],
        "category": [
          {
            "coding": [
              {
                "system": "http://terminology.hl7.org/CodeSystem/observation-category",
                "code": "laboratory"
              }
            ]
          }
        ],
        "code": {
          "coding": [
            {
              "code": "3094-0",
              "system": "http://loinc.org",
              "display": "Urea nitrogen [Mass/volume] in Serum or Plasma"
            }
          ],
          "text": "Urea nitrogen [Mass/volume] in Serum or Plasma"
        },
        "valueQuantity": {
          "system": "http://unitsofmeasure.org",
          "value": 11.9,
          "unit": "mg/dL",
          "code": "mg/dL"
        },
        "referenceRange": [
          {
            "low": {
              "value": 7,
              "code": "mg/dL",
              "system": "http://unitsofmeasure.org"
            }
          },
          {
            "high": {
              "value": 50,
              "code": "mg/dL",
              "system": "http://unitsofmeasure.org"
            }
          }
        ],
        "text": {
          "status": "generated",
          "div": "<div xmlns=\"http://www.w3.org/1999/xhtml\"><table class=\"hl7__eu__lab__report\"><tr><th>Test</th><th>05-Dec-2016</th><th>Reference&#xA0;Range</th><th>Unit</th></tr><tr><td>Urea nitrogen [Mass/volume] in Serum or Plasma</td><td>11.9</td><td>7 - 50</td><td></td><td>mg/dL</td></tr></table></div>"
        },
        "status": "final",
        "subject": {
          "reference": "urn:uuid:fa8d7fe6-7af7-4c05-9fb5-83b3861685f1",
          "display": "Meaghan Neary"
        },
        "effectiveDateTime": "2016-12-05T22:11:04Z",
        "specimen": {
          "reference": "urn:uuid:f5d821cc-b3a4-4830-b36a-1904f8fbcf9e"
        }
      }
    },
    {
      "fullUrl": "urn:uuid:eabf8e84-d533-4fe5-93eb-50686c33be01",
      "resource": {
        "resourceType": "Observation",
        "id": "eabf8e84-d533-4fe5-93eb-50686c33be01",
        "meta": {
          "profile": [
            "http://hl7.eu/fhir/laboratory/StructureDefinition/Observation-resultslab-eu-lab"
          ]
        },
        "performer": [
          {
            "display": "The Central European Lab"
          }
        ],
        "category": [
          {
            "coding": [
              {
                "system": "http://terminology.hl7.org/CodeSystem/observation-category",
                "code": "laboratory"
              }
            ]
          }
        ],
        "code": {
          "coding": [
            {
              "code": "2160-0",
              "system": "http://loinc.org",
              "display": "Creatinine [Mass/volume] in Serum or Plasma"
            }
          ],
          "text": "Creatinine [Mass/volume] in Serum or Plasma"
        },
        "valueQuantity": {
          "system": "http://unitsofmeasure.org",
          "value": 1.9,
          "unit": "mg/dL",
          "code": "mg/dL"
        },
        "referenceRange": [
          {
            "low": {
              "value": 0.6,
              "code": "mg/dL",
              "system": "http://unitsofmeasure.org"
            }
          },
          {
            "high": {
              "value": 1.1,
              "code": "mg/dL",
              "system": "http://unitsofmeasure.org"
            }
          }
        ],
        "interpretation": [
          {
            "coding": [
              {
                "code": "H",
                "system": "http://terminology.hl7.org/CodeSystem/v3-ObservationInterpretation",
                "display": "High"
              }
            ]
          }
        ],
        "text": {
          "status": "generated",
          "div": "<div xmlns=\"http://www.w3.org/1999/xhtml\"><table class=\"hl7__eu__lab__report\"><tr><th>Test</th><th>05-Dec-2016</th><th>Reference&#xA0;Range</th><th>Unit</th></tr><tr><td>Creatinine [Mass/volume] in Serum or Plasma</td><td>1.9</td><td>0.6 - 1.1</td><td>H</td><td>mg/dL</td></tr></table></div>"
        },
        "status": "final",
        "subject": {
          "reference": "urn:uuid:fa8d7fe6-7af7-4c05-9fb5-83b3861685f1",
          "display": "Meaghan Neary"
        },
        "effectiveDateTime": "2016-12-05T22:11:04Z",
        "specimen": {
          "reference": "urn:uuid:f5d821cc-b3a4-4830-b36a-1904f8fbcf9e"
        }
      }
    },
    {
      "fullUrl": "urn:uuid:12a74b0d-5e33-4c65-9f71-d363513aeae5",
      "resource": {
        "resourceType": "Observation",
        "id": "12a74b0d-5e33-4c65-9f71-d363513aeae5",
        "meta": {
          "profile": [
            "http://hl7.eu/fhir/laboratory/StructureDefinition/Observation-resultslab-eu-lab"
          ]
        },
        "performer": [
          {
            "display": "The Central European Lab"
          }
        ],
        "category": [
          {
            "coding": [
              {
                "system": "http://terminology.hl7.org/CodeSystem/observation-category",
                "code": "laboratory"
              }
            ]
          }
        ],
        "code": {
          "coding": [
            {
              "code": "17861-6",
              "system": "http://loinc.org",
              "display": "Calcium [Mass/volume] in Serum or Plasma"
            }
          ],
          "text": "Calcium [Mass/volume] in Serum or Plasma"
        },
        "valueQuantity": {
          "system": "http://unitsofmeasure.org",
          "value": 9,
          "unit": "mg/dL",
          "code": "mg/dL"
        },
        "referenceRange": [
          {
            "low": {
              "value": 8.6,
              "code": "mg/dL",
              "system": "http://unitsofmeasure.org"
            }
          },
          {
            "high": {
              "value": 10.4,
              "code": "mg/dL",
              "system": "http://unitsofmeasure.org"
            }
          }
        ],
        "text": {
          "status": "generated",
          "div": "<div xmlns=\"http://www.w3.org/1999/xhtml\"><table class=\"hl7__eu__lab__report\"><tr><th>Test</th><th>05-Dec-2016</th><th>Reference&#xA0;Range</th><th>Unit</th></tr><tr><td>Calcium [Mass/volume] in Serum or Plasma</td><td>9.0</td><td>8.6 - 10.4</td><td></td><td>mg/dL</td></tr></table></div>"
        },
        "status": "final",
        "subject": {
          "reference": "urn:uuid:fa8d7fe6-7af7-4c05-9fb5-83b3861685f1",
          "display": "Meaghan Neary"
        },
        "effectiveDateTime": "2016-12-05T22:11:04Z",
        "specimen": {
          "reference": "urn:uuid:f5d821cc-b3a4-4830-b36a-1904f8fbcf9e"
        }
      }
    },
    {
      "fullUrl": "urn:uuid:dfab190f-d8bd-4779-a1a8-1bf446c7affc",
      "resource": {
        "resourceType": "Observation",
        "id": "dfab190f-d8bd-4779-a1a8-1bf446c7affc",
        "meta": {
          "profile": [
            "http://hl7.eu/fhir/laboratory/StructureDefinition/Observation-resultslab-eu-lab"
          ]
        },
        "performer": [
          {
            "display": "The Central European Lab"
          }
        ],
        "category": [
          {
            "coding": [
              {
                "system": "http://terminology.hl7.org/CodeSystem/observation-category",
                "code": "laboratory"
              }
            ]
          }
        ],
        "code": {
          "coding": [
            {
              "code": "2951-2",
              "system": "http://loinc.org",
              "display": "Sodium [Moles/volume] in Serum or Plasma"
            }
          ],
          "text": "Sodium [Moles/volume] in Serum or Plasma"
        },
        "valueQuantity": {
          "system": "http://unitsofmeasure.org",
          "value": 136.4,
          "unit": "mmol/L",
          "code": "mmol/L"
        },
        "referenceRange": [
          {
            "low": {
              "value": 135,
              "code": "mmol/L",
              "system": "http://unitsofmeasure.org"
            }
          },
          {
            "high": {
              "value": 145,
              "code": "mmol/L",
              "system": "http://unitsofmeasure.org"
            }
          }
        ],
        "text": {
          "status": "generated",
          "div": "<div xmlns=\"http://www.w3.org/1999/xhtml\"><table class=\"hl7__eu__lab__report\"><tr><th>Test</th><th>05-Dec-2016</th><th>Reference&#xA0;Range</th><th>Unit</th></tr><tr><td>Sodium [Moles/volume] in Serum or Plasma</td><td>136.4</td><td>135 - 145</td><td></td><td>mmol/L</td></tr></table></div>"
        },
        "status": "final",
        "subject": {
          "reference": "urn:uuid:fa8d7fe6-7af7-4c05-9fb5-83b3861685f1",
          "display": "Meaghan Neary"
        },
        "effectiveDateTime": "2016-12-05T22:11:04Z",
        "specimen": {
          "reference": "urn:uuid:f5d821cc-b3a4-4830-b36a-1904f8fbcf9e"
        }
      }
    },
    {
      "fullUrl": "urn:uuid:5b03a2b5-2429-4f7e-8e19-f0766107d415",
      "resource": {
        "resourceType": "Observation",
        "id": "5b03a2b5-2429-4f7e-8e19-f0766107d415",
        "meta": {
          "profile": [
            "http://hl7.eu/fhir/laboratory/StructureDefinition/Observation-resultslab-eu-lab"
          ]
        },
        "performer": [
          {
            "display": "The Central European Lab"
          }
        ],
        "category": [
          {
            "coding": [
              {
                "system": "http://terminology.hl7.org/CodeSystem/observation-category",
                "code": "laboratory"
              }
            ]
          }
        ],
        "code": {
          "coding": [
            {
              "code": "2823-3",
              "system": "http://loinc.org",
              "display": "Potassium [Moles/volume] in Serum or Plasma"
            }
          ],
          "text": "Potassium [Moles/volume] in Serum or Plasma"
        },
        "valueQuantity": {
          "system": "http://unitsofmeasure.org",
          "value": 4.5,
          "unit": "mmol/L",
          "code": "mmol/L"
        },
        "referenceRange": [
          {
            "low": {
              "value": 3.5,
              "code": "mmol/L",
              "system": "http://unitsofmeasure.org"
            }
          },
          {
            "high": {
              "value": 5.1,
              "code": "mmol/L",
              "system": "http://unitsofmeasure.org"
            }
          }
        ],
        "text": {
          "status": "generated",
          "div": "<div xmlns=\"http://www.w3.org/1999/xhtml\"><table class=\"hl7__eu__lab__report\"><tr><th>Test</th><th>05-Dec-2016</th><th>Reference&#xA0;Range</th><th>Unit</th></tr><tr><td>Potassium [Moles/volume] in Serum or Plasma</td><td>4.5</td><td>3.5 - 5.1</td><td></td><td>mmol/L</td></tr></table></div>"
        },
        "status": "final",
        "subject": {
          "reference": "urn:uuid:fa8d7fe6-7af7-4c05-9fb5-83b3861685f1",
          "display": "Meaghan Neary"
        },
        "effectiveDateTime": "2016-12-05T22:11:04Z",
        "specimen": {
          "reference": "urn:uuid:f5d821cc-b3a4-4830-b36a-1904f8fbcf9e"
        }
      }
    },
    {
      "fullUrl": "urn:uuid:d51ebab9-91d5-481e-bf56-d5c2237e69a1",
      "resource": {
        "resourceType": "Observation",
        "id": "d51ebab9-91d5-481e-bf56-d5c2237e69a1",
        "meta": {
          "profile": [
            "http://hl7.eu/fhir/laboratory/StructureDefinition/Observation-resultslab-eu-lab"
          ]
        },
        "performer": [
          {
            "display": "The Central European Lab"
          }
        ],
        "category": [
          {
            "coding": [
              {
                "system": "http://terminology.hl7.org/CodeSystem/observation-category",
                "code": "laboratory"
              }
            ]
          }
        ],
        "code": {
          "coding": [
            {
              "code": "2075-0",
              "system": "http://loinc.org",
              "display": "Chloride [Moles/volume] in Serum or Plasma"
            }
          ],
          "text": "Chloride [Moles/volume] in Serum or Plasma"
        },
        "valueQuantity": {
          "system": "http://unitsofmeasure.org",
          "value": 107.2,
          "unit": "mmol/L",
          "code": "mmol/L"
        },
        "referenceRange": [
          {
            "low": {
              "value": 98,
              "code": "mmol/L",
              "system": "http://unitsofmeasure.org"
            }
          },
          {
            "high": {
              "value": 108,
              "code": "mmol/L",
              "system": "http://unitsofmeasure.org"
            }
          }
        ],
        "text": {
          "status": "generated",
          "div": "<div xmlns=\"http://www.w3.org/1999/xhtml\"><table class=\"hl7__eu__lab__report\"><tr><th>Test</th><th>05-Dec-2016</th><th>Reference&#xA0;Range</th><th>Unit</th></tr><tr><td>Chloride [Moles/volume] in Serum or Plasma</td><td>107.2</td><td>98 - 108</td><td></td><td>mmol/L</td></tr></table></div>"
        },
        "status": "final",
        "subject": {
          "reference": "urn:uuid:fa8d7fe6-7af7-4c05-9fb5-83b3861685f1",
          "display": "Meaghan Neary"
        },
        "effectiveDateTime": "2016-12-05T22:11:04Z",
        "specimen": {
          "reference": "urn:uuid:f5d821cc-b3a4-4830-b36a-1904f8fbcf9e"
        }
      }
    },
    {
      "fullUrl": "urn:uuid:719f59ea-8631-43ee-a5d7-6f4d8860c366",
      "resource": {
        "resourceType": "Observation",
        "id": "719f59ea-8631-43ee-a5d7-6f4d8860c366",
        "meta": {
          "profile": [
            "http://hl7.eu/fhir/laboratory/StructureDefinition/Observation-resultslab-eu-lab"
          ]
        },
        "performer": [
          {
            "display": "The Central European Lab"
          }
        ],
        "category": [
          {
            "coding": [
              {
                "system": "http://terminology.hl7.org/CodeSystem/observation-category",
                "code": "laboratory"
              }
            ]
          }
        ],
        "code": {
          "coding": [
            {
              "code": "2028-9",
              "system": "http://loinc.org",
              "display": "Carbon dioxide, total [Moles/volume] in Serum or Plasma"
            }
          ],
          "text": "Carbon dioxide, total [Moles/volume] in Serum or Plasma"
        },
        "valueQuantity": {
          "system": "http://unitsofmeasure.org",
          "value": 20.6,
          "unit": "mmol/L",
          "code": "mmol/L"
        },
        "referenceRange": [
          {
            "low": {
              "value": 22,
              "code": "mmol/L",
              "system": "http://unitsofmeasure.org"
            }
          },
          {
            "high": {
              "value": 32,
              "code": "mmol/L",
              "system": "http://unitsofmeasure.org"
            }
          }
        ],
        "interpretation": [
          {
            "coding": [
              {
                "code": "L",
                "system": "http://terminology.hl7.org/CodeSystem/v3-ObservationInterpretation",
                "display": "Low"
              }
            ]
          }
        ],
        "text": {
          "status": "generated",
          "div": "<div xmlns=\"http://www.w3.org/1999/xhtml\"><table class=\"hl7__eu__lab__report\"><tr><th>Test</th><th>05-Dec-2016</th><th>Reference&#xA0;Range</th><th>Unit</th></tr><tr><td>Carbon dioxide, total [Moles/volume] in Serum or Plasma</td><td>20.6</td><td>22 - 32</td><td>L</td><td>mmol/L</td></tr></table></div>"
        },
        "status": "final",
        "subject": {
          "reference": "urn:uuid:fa8d7fe6-7af7-4c05-9fb5-83b3861685f1",
          "display": "Meaghan Neary"
        },
        "effectiveDateTime": "2016-12-05T22:11:04Z",
        "specimen": {
          "reference": "urn:uuid:f5d821cc-b3a4-4830-b36a-1904f8fbcf9e"
        }
      }
    },
    {
      "fullUrl": "urn:uuid:02b49d08-2957-4cc4-ab9f-abc97da51692",
      "resource": {
        "resourceType": "Observation",
        "id": "02b49d08-2957-4cc4-ab9f-abc97da51692",
        "meta": {
          "profile": [
            "http://hl7.eu/fhir/laboratory/StructureDefinition/Observation-resultslab-eu-lab"
          ]
        },
        "performer": [
          {
            "display": "The Central European Lab"
          }
        ],
        "category": [
          {
            "coding": [
              {
                "system": "http://terminology.hl7.org/CodeSystem/observation-category",
                "code": "laboratory"
              }
            ]
          }
        ],
        "code": {
          "coding": [
            {
              "code": "5767-9",
              "system": "http://loinc.org",
              "display": "Appearance of Urine"
            }
          ],
          "text": "Appearance of Urine"
        },
        "text": {
          "status": "generated",
          "div": "<div xmlns=\"http://www.w3.org/1999/xhtml\"><table class=\"hl7__eu__lab__report\"><tr><th>Test</th><th>05-Dec-2016</th><th>Reference&#xA0;Range</th><th>Unit</th></tr><tr><td>Appearance of Urine</td></tr></table></div>"
        },
        "status": "final",
        "subject": {
          "reference": "urn:uuid:fa8d7fe6-7af7-4c05-9fb5-83b3861685f1",
          "display": "Meaghan Neary"
        },
        "effectiveDateTime": "2016-12-05T22:11:04Z",
        "specimen": {
          "reference": "urn:uuid:265227f8-ba6e-453b-a3ec-b19dc1d88f72"
        }
      }
    },
    {
      "fullUrl": "urn:uuid:3a43dbfd-b022-4861-8813-5e4456ba8bbe",
      "resource": {
        "resourceType": "Observation",
        "id": "3a43dbfd-b022-4861-8813-5e4456ba8bbe",
        "meta": {
          "profile": [
            "http://hl7.eu/fhir/laboratory/StructureDefinition/Observation-resultslab-eu-lab"
          ]
        },
        "performer": [
          {
            "display": "The Central European Lab"
          }
        ],
        "category": [
          {
            "coding": [
              {
                "system": "http://terminology.hl7.org/CodeSystem/observation-category",
                "code": "laboratory"
              }
            ]
          }
        ],
        "code": {
          "coding": [
            {
              "code": "34533-0",
              "system": "http://loinc.org",
              "display": "Odor of Urine"
            }
          ],
          "text": "Odor of Urine"
        },
        "text": {
          "status": "generated",
          "div": "<div xmlns=\"http://www.w3.org/1999/xhtml\"><table class=\"hl7__eu__lab__report\"><tr><th>Test</th><th>05-Dec-2016</th><th>Reference&#xA0;Range</th><th>Unit</th></tr><tr><td>Odor of Urine</td></tr></table></div>"
        },
        "status": "final",
        "subject": {
          "reference": "urn:uuid:fa8d7fe6-7af7-4c05-9fb5-83b3861685f1",
          "display": "Meaghan Neary"
        },
        "effectiveDateTime": "2016-12-05T22:11:04Z",
        "specimen": {
          "reference": "urn:uuid:265227f8-ba6e-453b-a3ec-b19dc1d88f72"
        }
      }
    },
    {
      "fullUrl": "urn:uuid:7a07ab38-a5e0-46ec-9275-9f58f5d8a881",
      "resource": {
        "resourceType": "Observation",
        "id": "7a07ab38-a5e0-46ec-9275-9f58f5d8a881",
        "meta": {
          "profile": [
            "http://hl7.eu/fhir/laboratory/StructureDefinition/Observation-resultslab-eu-lab"
          ]
        },
        "performer": [
          {
            "display": "The Central European Lab"
          }
        ],
        "category": [
          {
            "coding": [
              {
                "system": "http://terminology.hl7.org/CodeSystem/observation-category",
                "code": "laboratory"
              }
            ]
          }
        ],
        "code": {
          "coding": [
            {
              "code": "32167-9",
              "system": "http://loinc.org",
              "display": "Clarity of Urine"
            }
          ],
          "text": "Clarity of Urine"
        },
        "text": {
          "status": "generated",
          "div": "<div xmlns=\"http://www.w3.org/1999/xhtml\"><table class=\"hl7__eu__lab__report\"><tr><th>Test</th><th>05-Dec-2016</th><th>Reference&#xA0;Range</th><th>Unit</th></tr><tr><td>Clarity of Urine</td></tr></table></div>"
        },
        "status": "final",
        "subject": {
          "reference": "urn:uuid:fa8d7fe6-7af7-4c05-9fb5-83b3861685f1",
          "display": "Meaghan Neary"
        },
        "effectiveDateTime": "2016-12-05T22:11:04Z",
        "specimen": {
          "reference": "urn:uuid:265227f8-ba6e-453b-a3ec-b19dc1d88f72"
        }
      }
    },
    {
      "fullUrl": "urn:uuid:0c0f354e-38b0-4844-ab03-e14cbcf443ae",
      "resource": {
        "resourceType": "Observation",
        "id": "0c0f354e-38b0-4844-ab03-e14cbcf443ae",
        "meta": {
          "profile": [
            "http://hl7.eu/fhir/laboratory/StructureDefinition/Observation-resultslab-eu-lab"
          ]
        },
        "performer": [
          {
            "display": "The Central European Lab"
          }
        ],
        "category": [
          {
            "coding": [
              {
                "system": "http://terminology.hl7.org/CodeSystem/observation-category",
                "code": "laboratory"
              }
            ]
          }
        ],
        "code": {
          "coding": [
            {
              "code": "5778-6",
              "system": "http://loinc.org",
              "display": "Color of Urine"
            }
          ],
          "text": "Color of Urine"
        },
        "text": {
          "status": "generated",
          "div": "<div xmlns=\"http://www.w3.org/1999/xhtml\"><table class=\"hl7__eu__lab__report\"><tr><th>Test</th><th>05-Dec-2016</th><th>Reference&#xA0;Range</th><th>Unit</th></tr><tr><td>Color of Urine</td></tr></table></div>"
        },
        "status": "final",
        "subject": {
          "reference": "urn:uuid:fa8d7fe6-7af7-4c05-9fb5-83b3861685f1",
          "display": "Meaghan Neary"
        },
        "effectiveDateTime": "2016-12-05T22:11:04Z",
        "specimen": {
          "reference": "urn:uuid:265227f8-ba6e-453b-a3ec-b19dc1d88f72"
        }
      }
    },
    {
      "fullUrl": "urn:uuid:40f96d91-29d9-410c-9545-c3ff274dd8bb",
      "resource": {
        "resourceType": "Observation",
        "id": "40f96d91-29d9-410c-9545-c3ff274dd8bb",
        "meta": {
          "profile": [
            "http://hl7.eu/fhir/laboratory/StructureDefinition/Observation-resultslab-eu-lab"
          ]
        },
        "performer": [
          {
            "display": "The Central European Lab"
          }
        ],
        "category": [
          {
            "coding": [
              {
                "system": "http://terminology.hl7.org/CodeSystem/observation-category",
                "code": "laboratory"
              }
            ]
          }
        ],
        "code": {
          "coding": [
            {
              "code": "5792-7",
              "system": "http://loinc.org",
              "display": "Glucose [Mass/volume] in Urine by Test strip"
            }
          ],
          "text": "Glucose [Mass/volume] in Urine by Test strip"
        },
        "valueQuantity": {
          "system": "http://unitsofmeasure.org",
          "value": 2,
          "unit": "mg/dL",
          "code": "mg/dL"
        },
        "referenceRange": [
          {
            "low": {
              "value": 0.8,
              "code": "mg/dL",
              "system": "http://unitsofmeasure.org"
            }
          },
          {
            "high": {
              "value": 0,
              "code": "mg/dL",
              "system": "http://unitsofmeasure.org"
            }
          }
        ],
        "interpretation": [
          {
            "coding": [
              {
                "code": "H",
                "system": "http://terminology.hl7.org/CodeSystem/v3-ObservationInterpretation",
                "display": "High"
              }
            ]
          }
        ],
        "text": {
          "status": "generated",
          "div": "<div xmlns=\"http://www.w3.org/1999/xhtml\"><table class=\"hl7__eu__lab__report\"><tr><th>Test</th><th>05-Dec-2016</th><th>Reference&#xA0;Range</th><th>Unit</th></tr><tr><td>Glucose [Mass/volume] in Urine by Test strip</td><td>2.0</td><td>0.8 - 0</td><td>H</td><td>mg/dL</td></tr></table></div>"
        },
        "status": "final",
        "subject": {
          "reference": "urn:uuid:fa8d7fe6-7af7-4c05-9fb5-83b3861685f1",
          "display": "Meaghan Neary"
        },
        "effectiveDateTime": "2016-12-05T22:11:04Z",
        "specimen": {
          "reference": "urn:uuid:265227f8-ba6e-453b-a3ec-b19dc1d88f72"
        }
      }
    },
    {
      "fullUrl": "urn:uuid:535b42b6-db11-4f89-90c8-83b872637535",
      "resource": {
        "resourceType": "Observation",
        "id": "535b42b6-db11-4f89-90c8-83b872637535",
        "meta": {
          "profile": [
            "http://hl7.eu/fhir/laboratory/StructureDefinition/Observation-resultslab-eu-lab"
          ]
        },
        "performer": [
          {
            "display": "The Central European Lab"
          }
        ],
        "category": [
          {
            "coding": [
              {
                "system": "http://terminology.hl7.org/CodeSystem/observation-category",
                "code": "laboratory"
              }
            ]
          }
        ],
        "code": {
          "coding": [
            {
              "code": "25428-4",
              "system": "http://loinc.org",
              "display": "Glucose [Presence] in Urine by Test strip"
            }
          ],
          "text": "Glucose [Presence] in Urine by Test strip"
        },
        "text": {
          "status": "generated",
          "div": "<div xmlns=\"http://www.w3.org/1999/xhtml\"><table class=\"hl7__eu__lab__report\"><tr><th>Test</th><th>05-Dec-2016</th><th>Reference&#xA0;Range</th><th>Unit</th></tr><tr><td>Glucose [Presence] in Urine by Test strip</td></tr></table></div>"
        },
        "status": "final",
        "subject": {
          "reference": "urn:uuid:fa8d7fe6-7af7-4c05-9fb5-83b3861685f1",
          "display": "Meaghan Neary"
        },
        "effectiveDateTime": "2016-12-05T22:11:04Z",
        "specimen": {
          "reference": "urn:uuid:265227f8-ba6e-453b-a3ec-b19dc1d88f72"
        }
      }
    },
    {
      "fullUrl": "urn:uuid:ebc0f752-d660-4226-b465-2cd026e85270",
      "resource": {
        "resourceType": "Observation",
        "id": "ebc0f752-d660-4226-b465-2cd026e85270",
        "meta": {
          "profile": [
            "http://hl7.eu/fhir/laboratory/StructureDefinition/Observation-resultslab-eu-lab"
          ]
        },
        "performer": [
          {
            "display": "The Central European Lab"
          }
        ],
        "category": [
          {
            "coding": [
              {
                "system": "http://terminology.hl7.org/CodeSystem/observation-category",
                "code": "laboratory"
              }
            ]
          }
        ],
        "code": {
          "coding": [
            {
              "code": "20505-4",
              "system": "http://loinc.org",
              "display": "Bilirubin.total [Mass/volume] in Urine by Test strip"
            }
          ],
          "text": "Bilirubin.total [Mass/volume] in Urine by Test strip"
        },
        "valueQuantity": {
          "system": "http://unitsofmeasure.org",
          "value": 0.6,
          "unit": "mg/dL",
          "code": "mg/dL"
        },
        "referenceRange": [
          {
            "low": {
              "value": 0,
              "code": "mg/dL",
              "system": "http://unitsofmeasure.org"
            }
          },
          {
            "high": {
              "value": 1,
              "code": "mg/dL",
              "system": "http://unitsofmeasure.org"
            }
          }
        ],
        "text": {
          "status": "generated",
          "div": "<div xmlns=\"http://www.w3.org/1999/xhtml\"><table class=\"hl7__eu__lab__report\"><tr><th>Test</th><th>05-Dec-2016</th><th>Reference&#xA0;Range</th><th>Unit</th></tr><tr><td>Bilirubin.total [Mass/volume] in Urine by Test strip</td><td>0.6</td><td>0 - 1</td><td></td><td>mg/dL</td></tr></table></div>"
        },
        "status": "final",
        "subject": {
          "reference": "urn:uuid:fa8d7fe6-7af7-4c05-9fb5-83b3861685f1",
          "display": "Meaghan Neary"
        },
        "effectiveDateTime": "2016-12-05T22:11:04Z",
        "specimen": {
          "reference": "urn:uuid:265227f8-ba6e-453b-a3ec-b19dc1d88f72"
        }
      }
    },
    {
      "fullUrl": "urn:uuid:ea4917cf-276f-48c8-81f7-744c8dd81e06",
      "resource": {
        "resourceType": "Observation",
        "id": "ea4917cf-276f-48c8-81f7-744c8dd81e06",
        "meta": {
          "profile": [
            "http://hl7.eu/fhir/laboratory/StructureDefinition/Observation-resultslab-eu-lab"
          ]
        },
        "performer": [
          {
            "display": "The Central European Lab"
          }
        ],
        "category": [
          {
            "coding": [
              {
                "system": "http://terminology.hl7.org/CodeSystem/observation-category",
                "code": "laboratory"
              }
            ]
          }
        ],
        "code": {
          "coding": [
            {
              "code": "5770-3",
              "system": "http://loinc.org",
              "display": "Bilirubin.total [Presence] in Urine by Test strip"
            }
          ],
          "text": "Bilirubin.total [Presence] in Urine by Test strip"
        },
        "text": {
          "status": "generated",
          "div": "<div xmlns=\"http://www.w3.org/1999/xhtml\"><table class=\"hl7__eu__lab__report\"><tr><th>Test</th><th>05-Dec-2016</th><th>Reference&#xA0;Range</th><th>Unit</th></tr><tr><td>Bilirubin.total [Presence] in Urine by Test strip</td></tr></table></div>"
        },
        "status": "final",
        "subject": {
          "reference": "urn:uuid:fa8d7fe6-7af7-4c05-9fb5-83b3861685f1",
          "display": "Meaghan Neary"
        },
        "effectiveDateTime": "2016-12-05T22:11:04Z",
        "specimen": {
          "reference": "urn:uuid:265227f8-ba6e-453b-a3ec-b19dc1d88f72"
        }
      }
    },
    {
      "fullUrl": "urn:uuid:16447a62-81a9-439f-91d5-dfc0c6fd4a1c",
      "resource": {
        "resourceType": "Observation",
        "id": "16447a62-81a9-439f-91d5-dfc0c6fd4a1c",
        "meta": {
          "profile": [
            "http://hl7.eu/fhir/laboratory/StructureDefinition/Observation-resultslab-eu-lab"
          ]
        },
        "performer": [
          {
            "display": "The Central European Lab"
          }
        ],
        "category": [
          {
            "coding": [
              {
                "system": "http://terminology.hl7.org/CodeSystem/observation-category",
                "code": "laboratory"
              }
            ]
          }
        ],
        "code": {
          "coding": [
            {
              "code": "5797-6",
              "system": "http://loinc.org",
              "display": "Ketones [Mass/volume] in Urine by Test strip"
            }
          ],
          "text": "Ketones [Mass/volume] in Urine by Test strip"
        },
        "valueQuantity": {
          "system": "http://unitsofmeasure.org",
          "value": 15.2,
          "unit": "mg/dL",
          "code": "mg/dL"
        },
        "referenceRange": [
          {
            "low": {
              "value": 0,
              "code": "mg/dL",
              "system": "http://unitsofmeasure.org"
            }
          },
          {
            "high": {
              "value": 4,
              "code": "mg/dL",
              "system": "http://unitsofmeasure.org"
            }
          }
        ],
        "interpretation": [
          {
            "coding": [
              {
                "code": "H",
                "system": "http://terminology.hl7.org/CodeSystem/v3-ObservationInterpretation",
                "display": "High"
              }
            ]
          }
        ],
        "text": {
          "status": "generated",
          "div": "<div xmlns=\"http://www.w3.org/1999/xhtml\"><table class=\"hl7__eu__lab__report\"><tr><th>Test</th><th>05-Dec-2016</th><th>Reference&#xA0;Range</th><th>Unit</th></tr><tr><td>Ketones [Mass/volume] in Urine by Test strip</td><td>15.2</td><td>0 - 4</td><td>H</td><td>mg/dL</td></tr></table></div>"
        },
        "status": "final",
        "subject": {
          "reference": "urn:uuid:fa8d7fe6-7af7-4c05-9fb5-83b3861685f1",
          "display": "Meaghan Neary"
        },
        "effectiveDateTime": "2016-12-05T22:11:04Z",
        "specimen": {
          "reference": "urn:uuid:265227f8-ba6e-453b-a3ec-b19dc1d88f72"
        }
      }
    },
    {
      "fullUrl": "urn:uuid:12be6146-56fa-4779-a106-ba7021cf82d4",
      "resource": {
        "resourceType": "Observation",
        "id": "12be6146-56fa-4779-a106-ba7021cf82d4",
        "meta": {
          "profile": [
            "http://hl7.eu/fhir/laboratory/StructureDefinition/Observation-resultslab-eu-lab"
          ]
        },
        "performer": [
          {
            "display": "The Central European Lab"
          }
        ],
        "category": [
          {
            "coding": [
              {
                "system": "http://terminology.hl7.org/CodeSystem/observation-category",
                "code": "laboratory"
              }
            ]
          }
        ],
        "code": {
          "coding": [
            {
              "code": "2514-8",
              "system": "http://loinc.org",
              "display": "Ketones [Presence] in Urine by Test strip"
            }
          ],
          "text": "Ketones [Presence] in Urine by Test strip"
        },
        "text": {
          "status": "generated",
          "div": "<div xmlns=\"http://www.w3.org/1999/xhtml\"><table class=\"hl7__eu__lab__report\"><tr><th>Test</th><th>05-Dec-2016</th><th>Reference&#xA0;Range</th><th>Unit</th></tr><tr><td>Ketones [Presence] in Urine by Test strip</td></tr></table></div>"
        },
        "status": "final",
        "subject": {
          "reference": "urn:uuid:fa8d7fe6-7af7-4c05-9fb5-83b3861685f1",
          "display": "Meaghan Neary"
        },
        "effectiveDateTime": "2016-12-05T22:11:04Z",
        "specimen": {
          "reference": "urn:uuid:265227f8-ba6e-453b-a3ec-b19dc1d88f72"
        }
      }
    },
    {
      "fullUrl": "urn:uuid:cb06174a-e0b5-4b93-bbc0-6165b9d08594",
      "resource": {
        "resourceType": "Observation",
        "id": "cb06174a-e0b5-4b93-bbc0-6165b9d08594",
        "meta": {
          "profile": [
            "http://hl7.eu/fhir/laboratory/StructureDefinition/Observation-resultslab-eu-lab"
          ]
        },
        "performer": [
          {
            "display": "The Central European Lab"
          }
        ],
        "category": [
          {
            "coding": [
              {
                "system": "http://terminology.hl7.org/CodeSystem/observation-category",
                "code": "laboratory"
              }
            ]
          }
        ],
        "code": {
          "coding": [
            {
              "code": "5811-5",
              "system": "http://loinc.org",
              "display": "Specific gravity of Urine by Test strip"
            }
          ],
          "text": "Specific gravity of Urine by Test strip"
        },
        "valueQuantity": {
          "system": "http://unitsofmeasure.org",
          "value": 1,
          "unit": "{nominal}",
          "code": "{nominal}"
        },
        "referenceRange": [
          {
            "low": {
              "value": 1.005,
              "code": "g/mL",
              "system": "http://unitsofmeasure.org"
            }
          },
          {
            "high": {
              "value": 1.03,
              "code": "g/mL",
              "system": "http://unitsofmeasure.org"
            }
          }
        ],
        "interpretation": [
          {
            "coding": [
              {
                "code": "L",
                "system": "http://terminology.hl7.org/CodeSystem/v3-ObservationInterpretation",
                "display": "Low"
              }
            ]
          }
        ],
        "text": {
          "status": "generated",
          "div": "<div xmlns=\"http://www.w3.org/1999/xhtml\"><table class=\"hl7__eu__lab__report\"><tr><th>Test</th><th>05-Dec-2016</th><th>Reference&#xA0;Range</th><th>Unit</th></tr><tr><td>Specific gravity of Urine by Test strip</td><td>1.0</td><td>1.005 - 1.03</td><td>L</td><td>{nominal}</td></tr></table></div>"
        },
        "status": "final",
        "subject": {
          "reference": "urn:uuid:fa8d7fe6-7af7-4c05-9fb5-83b3861685f1",
          "display": "Meaghan Neary"
        },
        "effectiveDateTime": "2016-12-05T22:11:04Z",
        "specimen": {
          "reference": "urn:uuid:265227f8-ba6e-453b-a3ec-b19dc1d88f72"
        }
      }
    },
    {
      "fullUrl": "urn:uuid:bb16a6b6-68f9-44f7-b8c0-42a572e24a86",
      "resource": {
        "resourceType": "Observation",
        "id": "bb16a6b6-68f9-44f7-b8c0-42a572e24a86",
        "meta": {
          "profile": [
            "http://hl7.eu/fhir/laboratory/StructureDefinition/Observation-resultslab-eu-lab"
          ]
        },
        "performer": [
          {
            "display": "The Central European Lab"
          }
        ],
        "category": [
          {
            "coding": [
              {
                "system": "http://terminology.hl7.org/CodeSystem/observation-category",
                "code": "laboratory"
              }
            ]
          }
        ],
        "code": {
          "coding": [
            {
              "code": "5803-2",
              "system": "http://loinc.org",
              "display": "pH of Urine by Test strip"
            }
          ],
          "text": "pH of Urine by Test strip"
        },
        "valueQuantity": {
          "system": "http://unitsofmeasure.org",
          "value": 5.5,
          "unit": "pH",
          "code": "pH"
        },
        "referenceRange": [
          {
            "low": {
              "value": 4.6,
              "code": "pH",
              "system": "http://unitsofmeasure.org"
            }
          },
          {
            "high": {
              "value": 7,
              "code": "pH",
              "system": "http://unitsofmeasure.org"
            }
          }
        ],
        "text": {
          "status": "generated",
          "div": "<div xmlns=\"http://www.w3.org/1999/xhtml\"><table class=\"hl7__eu__lab__report\"><tr><th>Test</th><th>05-Dec-2016</th><th>Reference&#xA0;Range</th><th>Unit</th></tr><tr><td>pH of Urine by Test strip</td><td>5.5</td><td>4.6 - 7</td><td></td><td>pH</td></tr></table></div>"
        },
        "status": "final",
        "subject": {
          "reference": "urn:uuid:fa8d7fe6-7af7-4c05-9fb5-83b3861685f1",
          "display": "Meaghan Neary"
        },
        "effectiveDateTime": "2016-12-05T22:11:04Z",
        "specimen": {
          "reference": "urn:uuid:265227f8-ba6e-453b-a3ec-b19dc1d88f72"
        }
      }
    },
    {
      "fullUrl": "urn:uuid:04f76c41-270a-4654-8195-8e4d10876aeb",
      "resource": {
        "resourceType": "Observation",
        "id": "04f76c41-270a-4654-8195-8e4d10876aeb",
        "meta": {
          "profile": [
            "http://hl7.eu/fhir/laboratory/StructureDefinition/Observation-resultslab-eu-lab"
          ]
        },
        "performer": [
          {
            "display": "The Central European Lab"
          }
        ],
        "category": [
          {
            "coding": [
              {
                "system": "http://terminology.hl7.org/CodeSystem/observation-category",
                "code": "laboratory"
              }
            ]
          }
        ],
        "code": {
          "coding": [
            {
              "code": "5804-0",
              "system": "http://loinc.org",
              "display": "Protein [Mass/volume] in Urine by Test strip"
            }
          ],
          "text": "Protein [Mass/volume] in Urine by Test strip"
        },
        "valueQuantity": {
          "system": "http://unitsofmeasure.org",
          "value": 278.6,
          "unit": "mg/dL",
          "code": "mg/dL"
        },
        "referenceRange": [
          {
            "low": {
              "value": 0,
              "code": "mg/dL",
              "system": "http://unitsofmeasure.org"
            }
          },
          {
            "high": {
              "value": 14,
              "code": "mg/dL",
              "system": "http://unitsofmeasure.org"
            }
          }
        ],
        "interpretation": [
          {
            "coding": [
              {
                "code": "H",
                "system": "http://terminology.hl7.org/CodeSystem/v3-ObservationInterpretation",
                "display": "High"
              }
            ]
          }
        ],
        "text": {
          "status": "generated",
          "div": "<div xmlns=\"http://www.w3.org/1999/xhtml\"><table class=\"hl7__eu__lab__report\"><tr><th>Test</th><th>05-Dec-2016</th><th>Reference&#xA0;Range</th><th>Unit</th></tr><tr><td>Protein [Mass/volume] in Urine by Test strip</td><td>278.6</td><td>0 - 14</td><td>H</td><td>mg/dL</td></tr></table></div>"
        },
        "status": "final",
        "subject": {
          "reference": "urn:uuid:fa8d7fe6-7af7-4c05-9fb5-83b3861685f1",
          "display": "Meaghan Neary"
        },
        "effectiveDateTime": "2016-12-05T22:11:04Z",
        "specimen": {
          "reference": "urn:uuid:265227f8-ba6e-453b-a3ec-b19dc1d88f72"
        }
      }
    },
    {
      "fullUrl": "urn:uuid:134a8a52-0d1d-402a-a16f-c41df8f0a40e",
      "resource": {
        "resourceType": "Observation",
        "id": "134a8a52-0d1d-402a-a16f-c41df8f0a40e",
        "meta": {
          "profile": [
            "http://hl7.eu/fhir/laboratory/StructureDefinition/Observation-resultslab-eu-lab"
          ]
        },
        "performer": [
          {
            "display": "The Central European Lab"
          }
        ],
        "category": [
          {
            "coding": [
              {
                "system": "http://terminology.hl7.org/CodeSystem/observation-category",
                "code": "laboratory"
              }
            ]
          }
        ],
        "code": {
          "coding": [
            {
              "code": "20454-5",
              "system": "http://loinc.org",
              "display": "Protein [Presence] in Urine by Test strip"
            }
          ],
          "text": "Protein [Presence] in Urine by Test strip"
        },
        "text": {
          "status": "generated",
          "div": "<div xmlns=\"http://www.w3.org/1999/xhtml\"><table class=\"hl7__eu__lab__report\"><tr><th>Test</th><th>05-Dec-2016</th><th>Reference&#xA0;Range</th><th>Unit</th></tr><tr><td>Protein [Presence] in Urine by Test strip</td></tr></table></div>"
        },
        "status": "final",
        "subject": {
          "reference": "urn:uuid:fa8d7fe6-7af7-4c05-9fb5-83b3861685f1",
          "display": "Meaghan Neary"
        },
        "effectiveDateTime": "2016-12-05T22:11:04Z",
        "specimen": {
          "reference": "urn:uuid:265227f8-ba6e-453b-a3ec-b19dc1d88f72"
        }
      }
    },
    {
      "fullUrl": "urn:uuid:f38e47cd-0a90-4f67-979a-5d8697d3635d",
      "resource": {
        "resourceType": "Observation",
        "id": "f38e47cd-0a90-4f67-979a-5d8697d3635d",
        "meta": {
          "profile": [
            "http://hl7.eu/fhir/laboratory/StructureDefinition/Observation-resultslab-eu-lab"
          ]
        },
        "performer": [
          {
            "display": "The Central European Lab"
          }
        ],
        "category": [
          {
            "coding": [
              {
                "system": "http://terminology.hl7.org/CodeSystem/observation-category",
                "code": "laboratory"
              }
            ]
          }
        ],
        "code": {
          "coding": [
            {
              "code": "5802-4",
              "system": "http://loinc.org",
              "display": "Nitrite [Presence] in Urine by Test strip"
            }
          ],
          "text": "Nitrite [Presence] in Urine by Test strip"
        },
        "text": {
          "status": "generated",
          "div": "<div xmlns=\"http://www.w3.org/1999/xhtml\"><table class=\"hl7__eu__lab__report\"><tr><th>Test</th><th>05-Dec-2016</th><th>Reference&#xA0;Range</th><th>Unit</th></tr><tr><td>Nitrite [Presence] in Urine by Test strip</td></tr></table></div>"
        },
        "status": "final",
        "subject": {
          "reference": "urn:uuid:fa8d7fe6-7af7-4c05-9fb5-83b3861685f1",
          "display": "Meaghan Neary"
        },
        "effectiveDateTime": "2016-12-05T22:11:04Z",
        "specimen": {
          "reference": "urn:uuid:265227f8-ba6e-453b-a3ec-b19dc1d88f72"
        }
      }
    },
    {
      "fullUrl": "urn:uuid:7d7f5f06-5062-40b1-8866-7ffe1e23f1ca",
      "resource": {
        "resourceType": "Observation",
        "id": "7d7f5f06-5062-40b1-8866-7ffe1e23f1ca",
        "meta": {
          "profile": [
            "http://hl7.eu/fhir/laboratory/StructureDefinition/Observation-resultslab-eu-lab"
          ]
        },
        "performer": [
          {
            "display": "The Central European Lab"
          }
        ],
        "category": [
          {
            "coding": [
              {
                "system": "http://terminology.hl7.org/CodeSystem/observation-category",
                "code": "laboratory"
              }
            ]
          }
        ],
        "code": {
          "coding": [
            {
              "code": "5794-3",
              "system": "http://loinc.org",
              "display": "Hemoglobin [Presence] in Urine by Test strip"
            }
          ],
          "text": "Hemoglobin [Presence] in Urine by Test strip"
        },
        "text": {
          "status": "generated",
          "div": "<div xmlns=\"http://www.w3.org/1999/xhtml\"><table class=\"hl7__eu__lab__report\"><tr><th>Test</th><th>05-Dec-2016</th><th>Reference&#xA0;Range</th><th>Unit</th></tr><tr><td>Hemoglobin [Presence] in Urine by Test strip</td></tr></table></div>"
        },
        "status": "final",
        "subject": {
          "reference": "urn:uuid:fa8d7fe6-7af7-4c05-9fb5-83b3861685f1",
          "display": "Meaghan Neary"
        },
        "effectiveDateTime": "2016-12-05T22:11:04Z",
        "specimen": {
          "reference": "urn:uuid:265227f8-ba6e-453b-a3ec-b19dc1d88f72"
        }
      }
    },
    {
      "fullUrl": "urn:uuid:fcbe3add-2aa0-4de9-82fc-26fd551685a2",
      "resource": {
        "resourceType": "Observation",
        "id": "fcbe3add-2aa0-4de9-82fc-26fd551685a2",
        "meta": {
          "profile": [
            "http://hl7.eu/fhir/laboratory/StructureDefinition/Observation-resultslab-eu-lab"
          ]
        },
        "performer": [
          {
            "display": "The Central European Lab"
          }
        ],
        "category": [
          {
            "coding": [
              {
                "system": "http://terminology.hl7.org/CodeSystem/observation-category",
                "code": "laboratory"
              }
            ]
          }
        ],
        "code": {
          "coding": [
            {
              "code": "5799-2",
              "system": "http://loinc.org",
              "display": "Leukocyte esterase [Presence] in Urine by Test strip"
            }
          ],
          "text": "Leukocyte esterase [Presence] in Urine by Test strip"
        },
        "text": {
          "status": "generated",
          "div": "<div xmlns=\"http://www.w3.org/1999/xhtml\"><table class=\"hl7__eu__lab__report\"><tr><th>Test</th><th>05-Dec-2016</th><th>Reference&#xA0;Range</th><th>Unit</th></tr><tr><td>Leukocyte esterase [Presence] in Urine by Test strip</td></tr></table></div>"
        },
        "status": "final",
        "subject": {
          "reference": "urn:uuid:fa8d7fe6-7af7-4c05-9fb5-83b3861685f1",
          "display": "Meaghan Neary"
        },
        "effectiveDateTime": "2016-12-05T22:11:04Z",
        "specimen": {
          "reference": "urn:uuid:265227f8-ba6e-453b-a3ec-b19dc1d88f72"
        }
      }
    },
    {
      "fullUrl": "urn:uuid:08021049-e9fb-403d-b636-53bfd2df28df",
      "resource": {
        "resourceType": "Observation",
        "id": "08021049-e9fb-403d-b636-53bfd2df28df",
        "meta": {
          "profile": [
            "http://hl7.eu/fhir/laboratory/StructureDefinition/Observation-resultslab-eu-lab"
          ]
        },
        "performer": [
          {
            "display": "The Central European Lab"
          }
        ],
        "category": [
          {
            "coding": [
              {
                "system": "http://terminology.hl7.org/CodeSystem/observation-category",
                "code": "laboratory"
              }
            ]
          }
        ],
        "code": {
          "coding": [
            {
              "code": "4548-4",
              "system": "http://loinc.org",
              "display": "Hemoglobin A1c/Hemoglobin.total in Blood"
            }
          ],
          "text": "Hemoglobin A1c/Hemoglobin.total in Blood"
        },
        "valueQuantity": {
          "system": "http://unitsofmeasure.org",
          "value": 3.1,
          "unit": "%",
          "code": "%"
        },
        "referenceRange": [
          {
            "low": {
              "value": 4,
              "code": "%",
              "system": "http://unitsofmeasure.org"
            }
          },
          {
            "high": {
              "value": 6.4,
              "code": "%",
              "system": "http://unitsofmeasure.org"
            }
          }
        ],
        "interpretation": [
          {
            "coding": [
              {
                "code": "L",
                "system": "http://terminology.hl7.org/CodeSystem/v3-ObservationInterpretation",
                "display": "Low"
              }
            ]
          }
        ],
        "text": {
          "status": "generated",
          "div": "<div xmlns=\"http://www.w3.org/1999/xhtml\"><table class=\"hl7__eu__lab__report\"><tr><th>Test</th><th>05-Dec-2016</th><th>Reference&#xA0;Range</th><th>Unit</th></tr><tr><td>Hemoglobin A1c/Hemoglobin.total in Blood</td><td>3.1</td><td>4 - 6.4</td><td>L</td><td>%</td></tr></table></div>"
        },
        "status": "final",
        "subject": {
          "reference": "urn:uuid:fa8d7fe6-7af7-4c05-9fb5-83b3861685f1",
          "display": "Meaghan Neary"
        },
        "effectiveDateTime": "2016-12-05T22:11:04Z",
        "specimen": {
          "reference": "urn:uuid:346dd6ae-9778-4bac-9c13-19824f38564c"
        }
      }
    },
    {
      "fullUrl": "urn:uuid:2f5d9a63-6632-44fc-aa03-764539671b56",
      "resource": {
        "resourceType": "Device",
        "id": "2f5d9a63-6632-44fc-aa03-764539671b56",
        "deviceName": [
          {
            "name": "SYNDERAI Synthetic Generator",
            "type": "manufacturer-name"
          }
        ],
        "version": [
          {
            "value": "5.0"
          }
        ],
        "text": {
          "status": "generated",
          "div": "<div xmlns=\"http://www.w3.org/1999/xhtml\">SYNDERAI Synthetic Generator v5.0</div>"
        },
        "status": "active\"",
        "distinctIdentifier": "synderai-generator-50",
        "manufacturer": "SYNDERAI Project"
      }
    },
    {
      "fullUrl": "urn:uuid:8d5c8637-e1bb-4d37-9bd5-6fb0ca965482",
      "resource": {
        "resourceType": "Provenance",
        "id": "8d5c8637-e1bb-4d37-9bd5-6fb0ca965482",
        "target": [
          {
            "reference": "Patient/fa8d7fe6-7af7-4c05-9fb5-83b3861685f1"
          },
          {
            "reference": "Bundle/186167b9-77b3-4ed7-be03-c6a50b3b4ab6"
          },
          {
            "reference": "Composition/7e427bce-0c11-4244-ba73-ec8bef97167e"
          },
          {
            "reference": "PractitionerRole/4dddb4c8-96d0-4a84-83be-8d3f64c939f5"
          },
          {
            "reference": "Practitioner/ad8af34a-b50b-4eef-bd94-3a7d3eb279cc"
          },
          {
            "reference": "PractitionerRole/891fd7d9-2bc6-4aa6-b3de-8272afdc3b77"
          },
          {
            "reference": "Organization/21194b27-cfa2-43d1-a27c-e35e85d2a15c"
          }
        ],
        "activity": {
          "text": "Synthetic Example Data Generation"
        },
        "policy": [
          "https://synderai.net/synderai-synthetic-data-policy"
        ],
        "agent": [
          {
            "type": {
              "text": "author"
            },
            "who": {
              "reference": "Device/2f5d9a63-6632-44fc-aa03-764539671b56"
            }
          }
        ],
        "reason": [
          {
            "text": "Interoperability Testing and Training (non-clinical use)"
          }
        ],
        "text": {
          "status": "generated",
          "div": "<div xmlns=\"http://www.w3.org/1999/xhtml\">Provenance for SYNDERAI Synthetic Example Data Resource</div>"
        },
        "recorded": "2016-12-05T23:11:04Z"
      }
    },
    {
      "fullUrl": "urn:uuid:4dddb4c8-96d0-4a84-83be-8d3f64c939f5",
      "resource": {
        "resourceType": "PractitionerRole",
        "id": "4dddb4c8-96d0-4a84-83be-8d3f64c939f5",
        "meta": {
          "profile": [
            "http://hl7.eu/fhir/base/StructureDefinition/practitionerRole-eu"
          ]
        },
        "text": {
          "status": "generated",
          "div": "<div xmlns=\"http://www.w3.org/1999/xhtml\">Laboratory Role Id: 4dddb4c8-96d0-4a84-83be-8d3f64c939f5</div>"
        },
        "practitioner": {
          "reference": "urn:uuid:ad8af34a-b50b-4eef-bd94-3a7d3eb279cc"
        }
      }
    },
    {
      "fullUrl": "urn:uuid:ad8af34a-b50b-4eef-bd94-3a7d3eb279cc",
      "resource": {
        "resourceType": "Practitioner",
        "id": "ad8af34a-b50b-4eef-bd94-3a7d3eb279cc",
        "meta": {
          "profile": [
            "http://hl7.eu/fhir/base/StructureDefinition/practitioner-eu"
          ]
        },
        "identifier": [
          {
            "assigner": {
              "display": "HL7 Europe"
            },
            "system": "urn:oid:2.16.840.1.113883.2.51.999",
            "value": "21f51b29-0a72-4238-bd8e-03c3b96c3c26"
          }
        ],
        "name": [
          {
            "prefix": [
              "dr"
            ],
            "given": [
              "Ex"
            ],
            "family": "Ample"
          }
        ],
        "address": [
          {
            "line": [
              "Laboratoire Central Européenne",
              "Boulevard du Jardin Botanique 32"
            ],
            "postalCode": "1000",
            "city": "Brussels",
            "country": "Belgium"
          }
        ],
        "text": {
          "status": "generated",
          "div": "<div xmlns=\"http://www.w3.org/1999/xhtml\">Laboratory: Laboratoire Central Européenne, 1000 Brussels, Belgium</div>"
        }
      }
    }
  ],
  "type": "document",
  "timestamp": "2016-12-05T23:11:04Z"
}
