{
  "resourceType": "Bundle",
  "id": "86be9888-7007-45f1-913f-e4f2eaab3fbc",
  "meta": {
    "profile": [
      "http://hl7.eu/fhir/laboratory/StructureDefinition/Bundle-eu-lab"
    ]
  },
  "identifier": {
    "assigner": {
      "display": "HL7 Europe"
    },
    "system": "urn:oid:2.16.840.1.113883.2.51.999",
    "value": "1ca359d5-5ff0-445b-b4fd-762952cae25b"
  },
  "entry": [
    {
      "fullUrl": "urn:uuid:03355e00-33bd-4599-adfd-3fc86cc7e892",
      "resource": {
        "resourceType": "Composition",
        "id": "03355e00-33bd-4599-adfd-3fc86cc7e892",
        "meta": {
          "profile": [
            "http://hl7.eu/fhir/laboratory/StructureDefinition/Composition-eu-lab"
          ]
        },
        "identifier": {
          "assigner": {
            "display": "HL7 Europe"
          },
          "system": "urn:oid:2.16.840.1.113883.2.51.999",
          "value": "687a2412-cd57-4ab7-b001-312c39d2479f"
        },
        "author": [
          {
            "reference": "urn:uuid:d54017e7-cc4f-4fda-96aa-46940bef70b9"
          }
        ],
        "category": [
          {
            "coding": [
              {
                "code": "26436-6",
                "system": "http://loinc.org",
                "display": "Laboratory studies (set)"
              }
            ]
          }
        ],
        "type": {
          "coding": [
            {
              "code": "11502-2",
              "system": "http://loinc.org",
              "display": "Laboratory report"
            }
          ],
          "text": "Laboratory Report"
        },
        "section": [
          {
            "code": {
              "coding": [
                {
                  "code": "26436-6",
                  "system": "http://loinc.org",
                  "display": "Laboratory studies (set)"
                }
              ],
              "text": "Laboratory studies"
            },
            "section": [
              {
                "code": {
                  "coding": [
                    {
                      "code": "$18719-5",
                      "system": "http://loinc.org",
                      "display": "Chemistry studies (set)"
                    }
                  ],
                  "text": "Chemistry"
                },
                "entry": [
                  {
                    "reference": "urn:uuid:1c54aaaf-fd6f-4790-a20b-1abe15f0ae8e"
                  },
                  {
                    "reference": "urn:uuid:8bd5d39f-3b7a-4212-bf4c-c1f74cde359b"
                  },
                  {
                    "reference": "urn:uuid:a45c5375-0bdf-4daa-b7d1-5d7f4917e836"
                  },
                  {
                    "reference": "urn:uuid:a5c17d57-df4d-41c2-bb47-35bd5e706361"
                  },
                  {
                    "reference": "urn:uuid:8ad5f9a2-8600-4fa6-a41b-a423e422a3a8"
                  },
                  {
                    "reference": "urn:uuid:387cf400-ad8e-479c-8349-ec489ef6d747"
                  },
                  {
                    "reference": "urn:uuid:0069b5f3-da28-45fb-8980-eb788733db0c"
                  },
                  {
                    "reference": "urn:uuid:d3198278-a9b4-4fb3-a2cb-954b19d6e6e1"
                  },
                  {
                    "reference": "urn:uuid:8ed79191-fdc1-473e-9f47-2300ede4d0e1"
                  },
                  {
                    "reference": "urn:uuid:6b07835b-ddcb-4685-8dd8-79c9d401c859"
                  },
                  {
                    "reference": "urn:uuid:221fc49c-cc45-4703-a728-9ba8977f0074"
                  },
                  {
                    "reference": "urn:uuid:98e6f8d6-8858-4799-82be-dd243481bbb6"
                  },
                  {
                    "reference": "urn:uuid:c7fb930d-31a5-419d-b7ea-f1e6fa6ff15c"
                  },
                  {
                    "reference": "urn:uuid:9943e779-18eb-41e3-a656-c2bcfdb172ba"
                  },
                  {
                    "reference": "urn:uuid:a218087c-5a7e-425e-9df3-b5e46c7c2f1f"
                  },
                  {
                    "reference": "urn:uuid:173b7b6b-f5fc-438e-b6f2-1352cfd837e1"
                  },
                  {
                    "reference": "urn:uuid:0de792cf-7e9c-4f76-8400-eb9261716915"
                  },
                  {
                    "reference": "urn:uuid:307325c7-1342-496b-9e8b-35d75e0e3d43"
                  }
                ],
                "text": {
                  "status": "generated",
                  "div": "<div xmlns=\"http://www.w3.org/1999/xhtml\"><h3>Chemistry</h3><table class=\"hl7__eu__lab__report\"><thead><tr><th>Test</th><th>04-MAY-2017</th><th>Reference&#xA0;Range</th><th>Unit</th></tr></thead><tbody><tr><td>Glucose [Mass/volume] in Serum or Plasma</td><td>78.3</td><td>70 - 139</td><td>mg/dL</td></tr><tr><td>Urea nitrogen [Mass/volume] in Serum or Plasma</td><td>7.5</td><td>7 - 20</td><td>mg/dL</td></tr><tr><td>Creatinine [Mass/volume] in Serum or Plasma</td><td><strong>2.0 H</strong></td><td>0.6 - 1.1</td><td>mg/dL</td></tr><tr><td>Calcium [Mass/volume] in Serum or Plasma</td><td>9.2</td><td>8.5 - 10.4</td><td>mg/dL</td></tr><tr><td>Sodium [Moles/volume] in Serum or Plasma</td><td>139.6</td><td>135 - 145</td><td>mmol/L</td></tr><tr><td>Potassium [Moles/volume] in Serum or Plasma</td><td>4.9</td><td>3.5 - 5.1</td><td>mmol/L</td></tr><tr><td>Chloride [Moles/volume] in Serum or Plasma</td><td>110.0</td><td>98 - 110</td><td>mmol/L</td></tr><tr><td>Carbon dioxide, total [Moles/volume] in Serum or Plasma</td><td>28.7</td><td>22 - 32</td><td>mmol/L</td></tr><tr><td>Ketones [Presence] in Urine by Test strip</td><td>Urine ketone test = +</td><td></td><td></td></tr><tr><td>Hemoglobin A1c/Hemoglobin.total in Blood</td><td><strong>3.0 L</strong></td><td>4 - 6</td><td>%</td></tr><tr><td>Glucose [Mass/volume] in Blood</td><td>78.3</td><td>70 - 100</td><td>mg/dL</td></tr><tr><td>Urea nitrogen [Mass/volume] in Blood</td><td>7.5</td><td>7 - 20</td><td>mg/dL</td></tr><tr><td>Creatinine [Mass/volume] in Blood</td><td><strong>2.0 H</strong></td><td>0.6 - 1.3</td><td>mg/dL</td></tr><tr><td>Calcium [Mass/volume] in Blood</td><td>9.2</td><td>8.6 - 10.4</td><td>mg/dL</td></tr><tr><td>Sodium [Moles/volume] in Blood</td><td>139.6</td><td>135 - 145</td><td>mmol/L</td></tr><tr><td>Potassium [Moles/volume] in Blood</td><td>4.9</td><td>3.5 - 5.1</td><td>mmol/L</td></tr><tr><td>Chloride [Moles/volume] in Blood</td><td>110.0</td><td>98 - 110</td><td>mmol/L</td></tr><tr><td>Carbon dioxide, total [Moles/volume] in Blood</td><td>28.7</td><td>22 - 29</td><td>mmol/L</td></tr></tbody></table></div>"
                },
                "title": "Chemistry"
              },
              {
                "code": {
                  "coding": [
                    {
                      "code": "$18729-4",
                      "system": "http://loinc.org",
                      "display": "Urinalysis studies (set)"
                    }
                  ],
                  "text": "Urinalysis"
                },
                "entry": [
                  {
                    "reference": "urn:uuid:c71b96a6-77a5-4a17-bdce-baf208116a88"
                  },
                  {
                    "reference": "urn:uuid:0abff53c-2dfa-4027-9d3c-0c2925d73280"
                  },
                  {
                    "reference": "urn:uuid:2011cd5c-a559-4057-92e7-06602c2c9c4a"
                  },
                  {
                    "reference": "urn:uuid:8947c437-3e25-4d72-b8ff-20a453a83eec"
                  },
                  {
                    "reference": "urn:uuid:15ce46eb-3bdb-4e36-af69-36762802528f"
                  },
                  {
                    "reference": "urn:uuid:b9d66c85-baa9-4eae-a5d9-958136f07609"
                  },
                  {
                    "reference": "urn:uuid:9ceb7b76-4393-492a-a34b-ad542d7312b8"
                  },
                  {
                    "reference": "urn:uuid:295acf25-9dfe-4038-a978-7c47e66e722e"
                  },
                  {
                    "reference": "urn:uuid:fe0e4c97-1239-49cf-a22e-e0a574721907"
                  },
                  {
                    "reference": "urn:uuid:1ad3baae-19bb-4f46-8baa-93095b4ab324"
                  },
                  {
                    "reference": "urn:uuid:f58f1b36-a77f-4739-9f19-3facd7891d96"
                  },
                  {
                    "reference": "urn:uuid:c4c5dee8-0a4f-40b9-a6db-dadb1aa79518"
                  }
                ],
                "text": {
                  "status": "generated",
                  "div": "<div xmlns=\"http://www.w3.org/1999/xhtml\"><h3>Urinalysis</h3><table class=\"hl7__eu__lab__report\"><thead><tr><th>Test</th><th>04-MAY-2017</th><th>Reference&#xA0;Range</th><th>Unit</th></tr></thead><tbody><tr><td>Glucose [Mass/volume] in Urine by Test strip</td><td><strong>1.6 H</strong></td><td>0 - 0</td><td>mg/dL</td></tr><tr><td>Glucose [Presence] in Urine by Test strip</td><td>++</td><td></td><td></td></tr><tr><td>Bilirubin.total [Mass/volume] in Urine by Test strip</td><td>1.4</td><td>0 - 1.6</td><td>mg/dL</td></tr><tr><td>Bilirubin.total [Presence] in Urine by Test strip</td><td>Finding of bilirubin in urine</td><td></td><td></td></tr><tr><td>Ketones [Mass/volume] in Urine by Test strip</td><td><strong>11.8 H</strong></td><td>0 - 0.5</td><td>mg/dL</td></tr><tr><td>Specific gravity of Urine by Test strip</td><td><strong>1.0 L</strong></td><td>1.005 - 1.03</td><td>{nominal}</td></tr><tr><td>pH of Urine by Test strip</td><td>5.1</td><td>4.5 - 7.5</td><td>pH</td></tr><tr><td>Protein [Mass/volume] in Urine by Test strip</td><td><strong>221.4 H</strong></td><td>0 - 15</td><td>mg/dL</td></tr><tr><td>Protein [Presence] in Urine by Test strip</td><td>Urine protein test = ++</td><td></td><td></td></tr><tr><td>Nitrite [Presence] in Urine by Test strip</td><td>Urine nitrite negative</td><td></td><td></td></tr><tr><td>Hemoglobin [Presence] in Urine by Test strip</td><td>Urine blood test = negative</td><td></td><td></td></tr><tr><td>Leukocyte esterase [Presence] in Urine by Test strip</td><td>Urine leukocyte test negative</td><td></td><td></td></tr></tbody></table></div>"
                },
                "title": "Urinalysis"
              },
              {
                "code": {
                  "coding": [
                    {
                      "code": "$LP7846-1",
                      "system": "http://loinc.org",
                      "display": "Specimen information"
                    }
                  ],
                  "text": "Specimen information"
                },
                "entry": [
                  {
                    "reference": "urn:uuid:1baee151-2de4-49e7-99fa-f156fa2b1157"
                  },
                  {
                    "reference": "urn:uuid:076f4a4e-6847-4d10-bf13-ede3cb4ad9c7"
                  },
                  {
                    "reference": "urn:uuid:e46e8d41-a6c2-4cb7-9c51-2ef7a4d9b101"
                  },
                  {
                    "reference": "urn:uuid:3690ecf4-760b-4a6d-adff-082fcc08c665"
                  }
                ],
                "text": {
                  "status": "generated",
                  "div": "<div xmlns=\"http://www.w3.org/1999/xhtml\"><h3>Specimen information</h3><table class=\"hl7__eu__lab__report\"><thead><tr><th>Test</th><th>04-MAY-2017</th><th>Specimen</th><th></th></tr></thead><tbody><tr><td>Appearance of Urine</td><td>Cloudy urine</td><td>Urine</td><td></td></tr><tr><td>Odor of Urine</td><td>Urine smell ammoniacal</td><td>Urine</td><td></td></tr><tr><td>Clarity of Urine</td><td>Translucent</td><td>Urine</td><td></td></tr><tr><td>Color of Urine</td><td>Brown color</td><td>Urine</td><td></td></tr></tbody></table></div>"
                },
                "title": "Specimen information"
              }
            ],
            "title": "Laboratory Report"
          },
          {
            "text": {
              "status": "generated",
              "div": "<div xmlns=\"http://www.w3.org/1999/xhtml\"><h3>Annotation</h3><table class=\"hl7__eu__lab__report\"><tr><th>Conclusion and Recommendations based on this report and previous findings known to us</th></tr><tr><td>The patient shows elevated creatinine, significant proteinuria, glycosuria, and ketonuria, with low urine specific gravity and a low HbA1c. These findings suggest impaired renal function, likely chronic kidney disease, and possible tubular dysfunction. The presence of glucose and ketones in urine with normal blood glucose and low HbA1c may indicate renal glycosuria and ketosis unrelated to diabetes. Urine abnormalities (cloudy, brown, ammoniacal) may suggest underlying renal or urinary tract pathology. Further nephrological evaluation is recommended.</td></tr></table></div>"
            },
            "code": {
              "coding": [
                {
                  "system": "http://loinc.org",
                  "code": "48767-8",
                  "display": "Annotation comment"
                }
              ]
            },
            "title": "Annotation comment"
          }
        ],
        "status": "final",
        "subject": {
          "reference": "urn:uuid:20345907-d65d-460a-97a7-9535819f762b",
          "display": "Molly Jenkins"
        },
        "date": "2017-05-04T16:42:11Z",
        "title": "Laboratory Report",
        "confidentiality": "N"
      }
    },
    {
      "fullUrl": "urn:uuid:a70c701e-8c04-46a5-97cd-add830f48fd3",
      "resource": {
        "resourceType": "DiagnosticReport",
        "id": "a70c701e-8c04-46a5-97cd-add830f48fd3",
        "meta": {
          "profile": [
            "http://hl7.eu/fhir/laboratory/StructureDefinition/DiagnosticReport-eu-lab"
          ]
        },
        "identifier": [
          {
            "assigner": {
              "display": "HL7 Europe"
            },
            "system": "urn:oid:2.16.840.1.113883.2.51.999",
            "value": "ef1ca01c-4dd5-46ae-b41f-533b14c1d354"
          }
        ],
        "extension": [
          {
            "url": "http://hl7.org/fhir/5.0/StructureDefinition/extension-DiagnosticReport.composition",
            "valueReference": {
              "reference": "urn:uuid:687a2412-cd57-4ab7-b001-312c39d2479f"
            }
          }
        ],
        "category": [
          {
            "coding": [
              {
                "code": "26436-6",
                "system": "http://loinc.org",
                "display": "Laboratory studies (set)"
              }
            ]
          }
        ],
        "specimen": [
          {
            "reference": "urn:uuid:d8659783-15e7-4b74-8eee-ca56b36d9b8d"
          },
          {
            "reference": "urn:uuid:8af1853a-b856-44d1-a25c-547751b5a240"
          },
          {
            "reference": "urn:uuid:a11510ae-634c-4571-8228-441a90da3bc1"
          }
        ],
        "result": [
          {
            "reference": "urn:uuid:1c54aaaf-fd6f-4790-a20b-1abe15f0ae8e"
          },
          {
            "reference": "urn:uuid:8bd5d39f-3b7a-4212-bf4c-c1f74cde359b"
          },
          {
            "reference": "urn:uuid:a45c5375-0bdf-4daa-b7d1-5d7f4917e836"
          },
          {
            "reference": "urn:uuid:a5c17d57-df4d-41c2-bb47-35bd5e706361"
          },
          {
            "reference": "urn:uuid:8ad5f9a2-8600-4fa6-a41b-a423e422a3a8"
          },
          {
            "reference": "urn:uuid:387cf400-ad8e-479c-8349-ec489ef6d747"
          },
          {
            "reference": "urn:uuid:0069b5f3-da28-45fb-8980-eb788733db0c"
          },
          {
            "reference": "urn:uuid:d3198278-a9b4-4fb3-a2cb-954b19d6e6e1"
          },
          {
            "reference": "urn:uuid:1baee151-2de4-49e7-99fa-f156fa2b1157"
          },
          {
            "reference": "urn:uuid:076f4a4e-6847-4d10-bf13-ede3cb4ad9c7"
          },
          {
            "reference": "urn:uuid:e46e8d41-a6c2-4cb7-9c51-2ef7a4d9b101"
          },
          {
            "reference": "urn:uuid:3690ecf4-760b-4a6d-adff-082fcc08c665"
          },
          {
            "reference": "urn:uuid:c71b96a6-77a5-4a17-bdce-baf208116a88"
          },
          {
            "reference": "urn:uuid:0abff53c-2dfa-4027-9d3c-0c2925d73280"
          },
          {
            "reference": "urn:uuid:2011cd5c-a559-4057-92e7-06602c2c9c4a"
          },
          {
            "reference": "urn:uuid:8947c437-3e25-4d72-b8ff-20a453a83eec"
          },
          {
            "reference": "urn:uuid:15ce46eb-3bdb-4e36-af69-36762802528f"
          },
          {
            "reference": "urn:uuid:8ed79191-fdc1-473e-9f47-2300ede4d0e1"
          },
          {
            "reference": "urn:uuid:b9d66c85-baa9-4eae-a5d9-958136f07609"
          },
          {
            "reference": "urn:uuid:9ceb7b76-4393-492a-a34b-ad542d7312b8"
          },
          {
            "reference": "urn:uuid:295acf25-9dfe-4038-a978-7c47e66e722e"
          },
          {
            "reference": "urn:uuid:fe0e4c97-1239-49cf-a22e-e0a574721907"
          },
          {
            "reference": "urn:uuid:1ad3baae-19bb-4f46-8baa-93095b4ab324"
          },
          {
            "reference": "urn:uuid:f58f1b36-a77f-4739-9f19-3facd7891d96"
          },
          {
            "reference": "urn:uuid:c4c5dee8-0a4f-40b9-a6db-dadb1aa79518"
          },
          {
            "reference": "urn:uuid:6b07835b-ddcb-4685-8dd8-79c9d401c859"
          },
          {
            "reference": "urn:uuid:221fc49c-cc45-4703-a728-9ba8977f0074"
          },
          {
            "reference": "urn:uuid:98e6f8d6-8858-4799-82be-dd243481bbb6"
          },
          {
            "reference": "urn:uuid:c7fb930d-31a5-419d-b7ea-f1e6fa6ff15c"
          },
          {
            "reference": "urn:uuid:9943e779-18eb-41e3-a656-c2bcfdb172ba"
          },
          {
            "reference": "urn:uuid:a218087c-5a7e-425e-9df3-b5e46c7c2f1f"
          },
          {
            "reference": "urn:uuid:173b7b6b-f5fc-438e-b6f2-1352cfd837e1"
          },
          {
            "reference": "urn:uuid:0de792cf-7e9c-4f76-8400-eb9261716915"
          },
          {
            "reference": "urn:uuid:307325c7-1342-496b-9e8b-35d75e0e3d43"
          }
        ],
        "status": "registered",
        "code": {
          "coding": [
            {
              "code": "11502-2",
              "system": "http://loinc.org",
              "display": "Laboratory report"
            }
          ]
        },
        "subject": {
          "reference": "urn:uuid:20345907-d65d-460a-97a7-9535819f762b",
          "display": "Molly Jenkins"
        }
      }
    },
    {
      "fullUrl": "urn:uuid:20345907-d65d-460a-97a7-9535819f762b",
      "resource": {
        "resourceType": "Patient",
        "id": "20345907-d65d-460a-97a7-9535819f762b",
        "meta": {
          "security": [
            {
              "system": "http://terminology.hl7.org/CodeSystem/v3-ActReason",
              "code": "HTEST"
            },
            {
              "system": "http://terminology.hl7.org/CodeSystem/v3-ActReason",
              "code": "TRAIN"
            }
          ],
          "tag": [
            {
              "system": "https://synderai.net/fhir/CodeSystem/tags",
              "code": "synthetic",
              "display": "SYNDERAI Synthetic data"
            }
          ],
          "profile": [
            "http://hl7.eu/fhir/base/StructureDefinition/patient-eu-core"
          ]
        },
        "identifier": [
          {
            "type": {
              "coding": [
                {
                  "code": "PT",
                  "system": "http://terminology.hl7.org/CodeSystem/v2-0203"
                }
              ]
            },
            "system": "http://ec.europa.eu/identifier/eci",
            "value": "7634-012682-0"
          },
          {
            "type": {
              "coding": [
                {
                  "code": "MR",
                  "system": "http://terminology.hl7.org/CodeSystem/v2-0203"
                }
              ]
            },
            "system": "http://local.setting.eu/identifier",
            "value": "9934a8eb-b6e1-34e1-edf5-57a0262d1bea"
          }
        ],
        "name": [
          {
            "family": "Jenkins"
          },
          {
            "given": [
              "Molly"
            ]
          },
          {
            "text": "Molly Jenkins"
          }
        ],
        "address": [
          {
            "line": [
              "98 Ali field"
            ],
            "use": "home",
            "type": "physical",
            "postalCode": "AB42",
            "city": "Port Jennamouth",
            "country": "United Kingdom"
          }
        ],
        "telecom": [
          {
            "system": "phone",
            "value": "(0118) 496 0334"
          }
        ],
        "extension": [
          {
            "url": "http://hl7.org/fhir/StructureDefinition/patient-nationality",
            "valueCodeableConcept": {
              "coding": [
                {
                  "code": "GB",
                  "system": "http://hl7.org/fhir/ValueSet/country"
                }
              ]
            }
          }
        ],
        "text": {
          "status": "generated",
          "div": "<div xmlns=\"http://www.w3.org/1999/xhtml\"><table class=\"hl7__ips\"><tr><td>Molly Jenkins</td><td>female</td><td>14-Aug-1967</td></tr></table></div>"
        },
        "gender": "female",
        "birthDate": "1967-08-14"
      }
    },
    {
      "fullUrl": "urn:uuid:66443721-a99a-41af-ae33-0a9041a8c79a",
      "resource": {
        "resourceType": "ServiceRequest",
        "id": "66443721-a99a-41af-ae33-0a9041a8c79a",
        "meta": {
          "profile": [
            "http://hl7.eu/fhir/laboratory/StructureDefinition/ServiceRequest-eu-lab"
          ]
        },
        "identifier": [
          {
            "system": "http://example.org",
            "value": "2280773c-d26a-4048-bff3-ed5d53d11b25"
          }
        ],
        "specimen": [
          {
            "reference": "urn:uuid:d8659783-15e7-4b74-8eee-ca56b36d9b8d"
          },
          {
            "reference": "urn:uuid:8af1853a-b856-44d1-a25c-547751b5a240"
          },
          {
            "reference": "urn:uuid:a11510ae-634c-4571-8228-441a90da3bc1"
          }
        ],
        "reasonCode": [
          {
            "coding": [
              {
                "code": "431856006",
                "system": "http://snomed.info/sct",
                "display": "Chronic kidney disease stage 2"
              }
            ]
          },
          {
            "coding": [
              {
                "code": "90781000119102",
                "system": "http://snomed.info/sct",
                "display": "Microalbuminuria due to type 2 diabetes mellitus"
              }
            ]
          },
          {
            "coding": [
              {
                "code": "127013003",
                "system": "http://snomed.info/sct",
                "display": "Disorder of kidney due to diabetes mellitus"
              }
            ]
          },
          {
            "coding": [
              {
                "code": "431855005",
                "system": "http://snomed.info/sct",
                "display": "Chronic kidney disease stage 1"
              }
            ]
          },
          {
            "coding": [
              {
                "code": "15777000",
                "system": "http://snomed.info/sct",
                "display": "Prediabetes"
              }
            ]
          },
          {
            "coding": [
              {
                "code": "59621000",
                "system": "http://snomed.info/sct",
                "display": "Essential hypertension"
              }
            ]
          },
          {
            "coding": [
              {
                "code": "53827007",
                "system": "http://snomed.info/sct",
                "display": "Excessive salivation"
              }
            ]
          },
          {
            "coding": [
              {
                "code": "64859006",
                "system": "http://snomed.info/sct",
                "display": "Osteoporosis"
              }
            ]
          },
          {
            "coding": [
              {
                "code": "128188000",
                "system": "http://snomed.info/sct",
                "display": "Cerebral palsy"
              }
            ]
          },
          {
            "coding": [
              {
                "code": "235595009",
                "system": "http://snomed.info/sct",
                "display": "Gastroesophageal reflux disease"
              }
            ]
          }
        ],
        "status": "active",
        "intent": "order",
        "code": {
          "coding": [
            {
              "code": "108252007",
              "system": "http://snomed.info/sct",
              "display": "Laboratory procedure"
            }
          ]
        },
        "subject": {
          "reference": "urn:uuid:20345907-d65d-460a-97a7-9535819f762b",
          "display": "Molly Jenkins"
        },
        "requester": {
          "reference": "urn:uuid:78e2c674-5ee8-40c7-9ced-3e27aee3ee8b"
        }
      }
    },
    {
      "fullUrl": "urn:uuid:78e2c674-5ee8-40c7-9ced-3e27aee3ee8b",
      "resource": {
        "resourceType": "PractitionerRole",
        "id": "78e2c674-5ee8-40c7-9ced-3e27aee3ee8b",
        "meta": {
          "profile": [
            "http://hl7.eu/fhir/base/StructureDefinition/practitionerRole-eu"
          ]
        },
        "text": {
          "status": "generated",
          "div": "<div xmlns=\"http://www.w3.org/1999/xhtml\">Provider Role Id: 78e2c674-5ee8-40c7-9ced-3e27aee3ee8b</div>"
        },
        "organization": {
          "reference": "urn:uuid:949960cb-6525-4016-852c-337d77e6207c"
        }
      }
    },
    {
      "fullUrl": "urn:uuid:949960cb-6525-4016-852c-337d77e6207c",
      "resource": {
        "resourceType": "Organization",
        "id": "949960cb-6525-4016-852c-337d77e6207c",
        "meta": {
          "profile": [
            "http://hl7.eu/fhir/base/StructureDefinition/organization-eu"
          ]
        },
        "identifier": [
          {
            "assigner": {
              "display": "HL7 Europe"
            },
            "system": "urn:oid:2.16.840.1.113883.2.51.999",
            "value": "42c1d6a2-71e2-4731-a67e-30090e42ee0d"
          }
        ],
        "address": [
          {
            "city": "Aberdeen",
            "postalCode": "AB11 6",
            "country": "United Kingdom"
          }
        ],
        "text": {
          "status": "generated",
          "div": "<div xmlns=\"http://www.w3.org/1999/xhtml\">Provider Organization: Aberdeen Community Health and Care Village</div>"
        },
        "name": "Aberdeen Community Health and Care Village"
      }
    },
    {
      "fullUrl": "urn:uuid:d8659783-15e7-4b74-8eee-ca56b36d9b8d",
      "resource": {
        "resourceType": "Specimen",
        "id": "d8659783-15e7-4b74-8eee-ca56b36d9b8d",
        "meta": {
          "profile": [
            "http://hl7.eu/fhir/laboratory/StructureDefinition/Specimen-eu-lab"
          ]
        },
        "collection": {
          "collectedDateTime": "2017-05-04"
        },
        "text": {
          "status": "generated",
          "div": "<div xmlns=\"http://www.w3.org/1999/xhtml\"><table class=\"hl7__eu__lab__report\"><tr><th>Specimen</th><th>Collection Date</th></tr><tr><td>Acellular blood (serum or plasma) specimen</td><td><span class=\"nb\">04-May-2017</span></td></tr></table></div>"
        },
        "type": {
          "coding": [
            {
              "code": "122592007",
              "system": "http://snomed.info/sct",
              "display": "Acellular blood (serum or plasma) specimen"
            }
          ]
        }
      }
    },
    {
      "fullUrl": "urn:uuid:8af1853a-b856-44d1-a25c-547751b5a240",
      "resource": {
        "resourceType": "Specimen",
        "id": "8af1853a-b856-44d1-a25c-547751b5a240",
        "meta": {
          "profile": [
            "http://hl7.eu/fhir/laboratory/StructureDefinition/Specimen-eu-lab"
          ]
        },
        "collection": {
          "collectedDateTime": "2017-05-04"
        },
        "text": {
          "status": "generated",
          "div": "<div xmlns=\"http://www.w3.org/1999/xhtml\"><table class=\"hl7__eu__lab__report\"><tr><th>Specimen</th><th>Collection Date</th></tr><tr><td>Urine specimen</td><td><span class=\"nb\">04-May-2017</span></td></tr></table></div>"
        },
        "type": {
          "coding": [
            {
              "code": "122575003",
              "system": "http://snomed.info/sct",
              "display": "Urine specimen"
            }
          ]
        }
      }
    },
    {
      "fullUrl": "urn:uuid:a11510ae-634c-4571-8228-441a90da3bc1",
      "resource": {
        "resourceType": "Specimen",
        "id": "a11510ae-634c-4571-8228-441a90da3bc1",
        "meta": {
          "profile": [
            "http://hl7.eu/fhir/laboratory/StructureDefinition/Specimen-eu-lab"
          ]
        },
        "collection": {
          "collectedDateTime": "2017-05-04"
        },
        "text": {
          "status": "generated",
          "div": "<div xmlns=\"http://www.w3.org/1999/xhtml\"><table class=\"hl7__eu__lab__report\"><tr><th>Specimen</th><th>Collection Date</th></tr><tr><td>Whole blood specimen (specimen)</td><td><span class=\"nb\">04-May-2017</span></td></tr></table></div>"
        },
        "type": {
          "coding": [
            {
              "code": "258580003",
              "system": "http://snomed.info/sct",
              "display": "Whole blood specimen (specimen)"
            }
          ]
        }
      }
    },
    {
      "fullUrl": "urn:uuid:1c54aaaf-fd6f-4790-a20b-1abe15f0ae8e",
      "resource": {
        "resourceType": "Observation",
        "id": "1c54aaaf-fd6f-4790-a20b-1abe15f0ae8e",
        "meta": {
          "profile": [
            "http://hl7.eu/fhir/laboratory/StructureDefinition/Observation-resultslab-eu-lab"
          ]
        },
        "performer": [
          {
            "display": "The Central European Lab"
          }
        ],
        "category": [
          {
            "coding": [
              {
                "system": "http://terminology.hl7.org/CodeSystem/observation-category",
                "code": "laboratory"
              }
            ]
          }
        ],
        "code": {
          "coding": [
            {
              "code": "2345-7",
              "system": "http://loinc.org",
              "display": "Glucose [Mass/volume] in Serum or Plasma"
            }
          ],
          "text": "Glucose [Mass/volume] in Serum or Plasma"
        },
        "valueQuantity": {
          "system": "http://unitsofmeasure.org",
          "value": 78.3,
          "unit": "mg/dL",
          "code": "mg/dL"
        },
        "referenceRange": [
          {
            "low": {
              "value": 70,
              "code": "mg/dL",
              "system": "http://unitsofmeasure.org"
            }
          },
          {
            "high": {
              "value": 139,
              "code": "mg/dL",
              "system": "http://unitsofmeasure.org"
            }
          }
        ],
        "text": {
          "status": "generated",
          "div": "<div xmlns=\"http://www.w3.org/1999/xhtml\"><table class=\"hl7__eu__lab__report\"><tr><th>Test</th><th>04-May-2017</th><th>Reference&#xA0;Range</th><th>Unit</th></tr><tr><td>Glucose [Mass/volume] in Serum or Plasma</td><td>78.3</td><td>70 - 139</td><td></td><td>mg/dL</td></tr></table></div>"
        },
        "status": "final",
        "subject": {
          "reference": "urn:uuid:20345907-d65d-460a-97a7-9535819f762b",
          "display": "Molly Jenkins"
        },
        "effectiveDateTime": "2017-05-04T14:42:11Z",
        "specimen": {
          "reference": "urn:uuid:d8659783-15e7-4b74-8eee-ca56b36d9b8d"
        }
      }
    },
    {
      "fullUrl": "urn:uuid:8bd5d39f-3b7a-4212-bf4c-c1f74cde359b",
      "resource": {
        "resourceType": "Observation",
        "id": "8bd5d39f-3b7a-4212-bf4c-c1f74cde359b",
        "meta": {
          "profile": [
            "http://hl7.eu/fhir/laboratory/StructureDefinition/Observation-resultslab-eu-lab"
          ]
        },
        "performer": [
          {
            "display": "The Central European Lab"
          }
        ],
        "category": [
          {
            "coding": [
              {
                "system": "http://terminology.hl7.org/CodeSystem/observation-category",
                "code": "laboratory"
              }
            ]
          }
        ],
        "code": {
          "coding": [
            {
              "code": "3094-0",
              "system": "http://loinc.org",
              "display": "Urea nitrogen [Mass/volume] in Serum or Plasma"
            }
          ],
          "text": "Urea nitrogen [Mass/volume] in Serum or Plasma"
        },
        "valueQuantity": {
          "system": "http://unitsofmeasure.org",
          "value": 7.5,
          "unit": "mg/dL",
          "code": "mg/dL"
        },
        "referenceRange": [
          {
            "low": {
              "value": 7,
              "code": "mg/dL",
              "system": "http://unitsofmeasure.org"
            }
          },
          {
            "high": {
              "value": 20,
              "code": "mg/dL",
              "system": "http://unitsofmeasure.org"
            }
          }
        ],
        "text": {
          "status": "generated",
          "div": "<div xmlns=\"http://www.w3.org/1999/xhtml\"><table class=\"hl7__eu__lab__report\"><tr><th>Test</th><th>04-May-2017</th><th>Reference&#xA0;Range</th><th>Unit</th></tr><tr><td>Urea nitrogen [Mass/volume] in Serum or Plasma</td><td>7.5</td><td>7 - 20</td><td></td><td>mg/dL</td></tr></table></div>"
        },
        "status": "final",
        "subject": {
          "reference": "urn:uuid:20345907-d65d-460a-97a7-9535819f762b",
          "display": "Molly Jenkins"
        },
        "effectiveDateTime": "2017-05-04T14:42:11Z",
        "specimen": {
          "reference": "urn:uuid:d8659783-15e7-4b74-8eee-ca56b36d9b8d"
        }
      }
    },
    {
      "fullUrl": "urn:uuid:a45c5375-0bdf-4daa-b7d1-5d7f4917e836",
      "resource": {
        "resourceType": "Observation",
        "id": "a45c5375-0bdf-4daa-b7d1-5d7f4917e836",
        "meta": {
          "profile": [
            "http://hl7.eu/fhir/laboratory/StructureDefinition/Observation-resultslab-eu-lab"
          ]
        },
        "performer": [
          {
            "display": "The Central European Lab"
          }
        ],
        "category": [
          {
            "coding": [
              {
                "system": "http://terminology.hl7.org/CodeSystem/observation-category",
                "code": "laboratory"
              }
            ]
          }
        ],
        "code": {
          "coding": [
            {
              "code": "2160-0",
              "system": "http://loinc.org",
              "display": "Creatinine [Mass/volume] in Serum or Plasma"
            }
          ],
          "text": "Creatinine [Mass/volume] in Serum or Plasma"
        },
        "valueQuantity": {
          "system": "http://unitsofmeasure.org",
          "value": 2,
          "unit": "mg/dL",
          "code": "mg/dL"
        },
        "referenceRange": [
          {
            "low": {
              "value": 0.6,
              "code": "mg/dL",
              "system": "http://unitsofmeasure.org"
            }
          },
          {
            "high": {
              "value": 1.1,
              "code": "mg/dL",
              "system": "http://unitsofmeasure.org"
            }
          }
        ],
        "interpretation": [
          {
            "coding": [
              {
                "code": "H",
                "system": "http://terminology.hl7.org/CodeSystem/v3-ObservationInterpretation",
                "display": "High"
              }
            ]
          }
        ],
        "text": {
          "status": "generated",
          "div": "<div xmlns=\"http://www.w3.org/1999/xhtml\"><table class=\"hl7__eu__lab__report\"><tr><th>Test</th><th>04-May-2017</th><th>Reference&#xA0;Range</th><th>Unit</th></tr><tr><td>Creatinine [Mass/volume] in Serum or Plasma</td><td>2.0</td><td>0.6 - 1.1</td><td>H</td><td>mg/dL</td></tr></table></div>"
        },
        "status": "final",
        "subject": {
          "reference": "urn:uuid:20345907-d65d-460a-97a7-9535819f762b",
          "display": "Molly Jenkins"
        },
        "effectiveDateTime": "2017-05-04T14:42:11Z",
        "specimen": {
          "reference": "urn:uuid:d8659783-15e7-4b74-8eee-ca56b36d9b8d"
        }
      }
    },
    {
      "fullUrl": "urn:uuid:a5c17d57-df4d-41c2-bb47-35bd5e706361",
      "resource": {
        "resourceType": "Observation",
        "id": "a5c17d57-df4d-41c2-bb47-35bd5e706361",
        "meta": {
          "profile": [
            "http://hl7.eu/fhir/laboratory/StructureDefinition/Observation-resultslab-eu-lab"
          ]
        },
        "performer": [
          {
            "display": "The Central European Lab"
          }
        ],
        "category": [
          {
            "coding": [
              {
                "system": "http://terminology.hl7.org/CodeSystem/observation-category",
                "code": "laboratory"
              }
            ]
          }
        ],
        "code": {
          "coding": [
            {
              "code": "17861-6",
              "system": "http://loinc.org",
              "display": "Calcium [Mass/volume] in Serum or Plasma"
            }
          ],
          "text": "Calcium [Mass/volume] in Serum or Plasma"
        },
        "valueQuantity": {
          "system": "http://unitsofmeasure.org",
          "value": 9.2,
          "unit": "mg/dL",
          "code": "mg/dL"
        },
        "referenceRange": [
          {
            "low": {
              "value": 8.5,
              "code": "mg/dL",
              "system": "http://unitsofmeasure.org"
            }
          },
          {
            "high": {
              "value": 10.4,
              "code": "mg/dL",
              "system": "http://unitsofmeasure.org"
            }
          }
        ],
        "text": {
          "status": "generated",
          "div": "<div xmlns=\"http://www.w3.org/1999/xhtml\"><table class=\"hl7__eu__lab__report\"><tr><th>Test</th><th>04-May-2017</th><th>Reference&#xA0;Range</th><th>Unit</th></tr><tr><td>Calcium [Mass/volume] in Serum or Plasma</td><td>9.2</td><td>8.5 - 10.4</td><td></td><td>mg/dL</td></tr></table></div>"
        },
        "status": "final",
        "subject": {
          "reference": "urn:uuid:20345907-d65d-460a-97a7-9535819f762b",
          "display": "Molly Jenkins"
        },
        "effectiveDateTime": "2017-05-04T14:42:11Z",
        "specimen": {
          "reference": "urn:uuid:d8659783-15e7-4b74-8eee-ca56b36d9b8d"
        }
      }
    },
    {
      "fullUrl": "urn:uuid:8ad5f9a2-8600-4fa6-a41b-a423e422a3a8",
      "resource": {
        "resourceType": "Observation",
        "id": "8ad5f9a2-8600-4fa6-a41b-a423e422a3a8",
        "meta": {
          "profile": [
            "http://hl7.eu/fhir/laboratory/StructureDefinition/Observation-resultslab-eu-lab"
          ]
        },
        "performer": [
          {
            "display": "The Central European Lab"
          }
        ],
        "category": [
          {
            "coding": [
              {
                "system": "http://terminology.hl7.org/CodeSystem/observation-category",
                "code": "laboratory"
              }
            ]
          }
        ],
        "code": {
          "coding": [
            {
              "code": "2951-2",
              "system": "http://loinc.org",
              "display": "Sodium [Moles/volume] in Serum or Plasma"
            }
          ],
          "text": "Sodium [Moles/volume] in Serum or Plasma"
        },
        "valueQuantity": {
          "system": "http://unitsofmeasure.org",
          "value": 139.6,
          "unit": "mmol/L",
          "code": "mmol/L"
        },
        "referenceRange": [
          {
            "low": {
              "value": 135,
              "code": "mmol/L",
              "system": "http://unitsofmeasure.org"
            }
          },
          {
            "high": {
              "value": 145,
              "code": "mmol/L",
              "system": "http://unitsofmeasure.org"
            }
          }
        ],
        "text": {
          "status": "generated",
          "div": "<div xmlns=\"http://www.w3.org/1999/xhtml\"><table class=\"hl7__eu__lab__report\"><tr><th>Test</th><th>04-May-2017</th><th>Reference&#xA0;Range</th><th>Unit</th></tr><tr><td>Sodium [Moles/volume] in Serum or Plasma</td><td>139.6</td><td>135 - 145</td><td></td><td>mmol/L</td></tr></table></div>"
        },
        "status": "final",
        "subject": {
          "reference": "urn:uuid:20345907-d65d-460a-97a7-9535819f762b",
          "display": "Molly Jenkins"
        },
        "effectiveDateTime": "2017-05-04T14:42:11Z",
        "specimen": {
          "reference": "urn:uuid:d8659783-15e7-4b74-8eee-ca56b36d9b8d"
        }
      }
    },
    {
      "fullUrl": "urn:uuid:387cf400-ad8e-479c-8349-ec489ef6d747",
      "resource": {
        "resourceType": "Observation",
        "id": "387cf400-ad8e-479c-8349-ec489ef6d747",
        "meta": {
          "profile": [
            "http://hl7.eu/fhir/laboratory/StructureDefinition/Observation-resultslab-eu-lab"
          ]
        },
        "performer": [
          {
            "display": "The Central European Lab"
          }
        ],
        "category": [
          {
            "coding": [
              {
                "system": "http://terminology.hl7.org/CodeSystem/observation-category",
                "code": "laboratory"
              }
            ]
          }
        ],
        "code": {
          "coding": [
            {
              "code": "2823-3",
              "system": "http://loinc.org",
              "display": "Potassium [Moles/volume] in Serum or Plasma"
            }
          ],
          "text": "Potassium [Moles/volume] in Serum or Plasma"
        },
        "valueQuantity": {
          "system": "http://unitsofmeasure.org",
          "value": 4.9,
          "unit": "mmol/L",
          "code": "mmol/L"
        },
        "referenceRange": [
          {
            "low": {
              "value": 3.5,
              "code": "mmol/L",
              "system": "http://unitsofmeasure.org"
            }
          },
          {
            "high": {
              "value": 5.1,
              "code": "mmol/L",
              "system": "http://unitsofmeasure.org"
            }
          }
        ],
        "text": {
          "status": "generated",
          "div": "<div xmlns=\"http://www.w3.org/1999/xhtml\"><table class=\"hl7__eu__lab__report\"><tr><th>Test</th><th>04-May-2017</th><th>Reference&#xA0;Range</th><th>Unit</th></tr><tr><td>Potassium [Moles/volume] in Serum or Plasma</td><td>4.9</td><td>3.5 - 5.1</td><td></td><td>mmol/L</td></tr></table></div>"
        },
        "status": "final",
        "subject": {
          "reference": "urn:uuid:20345907-d65d-460a-97a7-9535819f762b",
          "display": "Molly Jenkins"
        },
        "effectiveDateTime": "2017-05-04T14:42:11Z",
        "specimen": {
          "reference": "urn:uuid:d8659783-15e7-4b74-8eee-ca56b36d9b8d"
        }
      }
    },
    {
      "fullUrl": "urn:uuid:0069b5f3-da28-45fb-8980-eb788733db0c",
      "resource": {
        "resourceType": "Observation",
        "id": "0069b5f3-da28-45fb-8980-eb788733db0c",
        "meta": {
          "profile": [
            "http://hl7.eu/fhir/laboratory/StructureDefinition/Observation-resultslab-eu-lab"
          ]
        },
        "performer": [
          {
            "display": "The Central European Lab"
          }
        ],
        "category": [
          {
            "coding": [
              {
                "system": "http://terminology.hl7.org/CodeSystem/observation-category",
                "code": "laboratory"
              }
            ]
          }
        ],
        "code": {
          "coding": [
            {
              "code": "2075-0",
              "system": "http://loinc.org",
              "display": "Chloride [Moles/volume] in Serum or Plasma"
            }
          ],
          "text": "Chloride [Moles/volume] in Serum or Plasma"
        },
        "valueQuantity": {
          "system": "http://unitsofmeasure.org",
          "value": 110,
          "unit": "mmol/L",
          "code": "mmol/L"
        },
        "referenceRange": [
          {
            "low": {
              "value": 98,
              "code": "mmol/L",
              "system": "http://unitsofmeasure.org"
            }
          },
          {
            "high": {
              "value": 110,
              "code": "mmol/L",
              "system": "http://unitsofmeasure.org"
            }
          }
        ],
        "text": {
          "status": "generated",
          "div": "<div xmlns=\"http://www.w3.org/1999/xhtml\"><table class=\"hl7__eu__lab__report\"><tr><th>Test</th><th>04-May-2017</th><th>Reference&#xA0;Range</th><th>Unit</th></tr><tr><td>Chloride [Moles/volume] in Serum or Plasma</td><td>110.0</td><td>98 - 110</td><td></td><td>mmol/L</td></tr></table></div>"
        },
        "status": "final",
        "subject": {
          "reference": "urn:uuid:20345907-d65d-460a-97a7-9535819f762b",
          "display": "Molly Jenkins"
        },
        "effectiveDateTime": "2017-05-04T14:42:11Z",
        "specimen": {
          "reference": "urn:uuid:d8659783-15e7-4b74-8eee-ca56b36d9b8d"
        }
      }
    },
    {
      "fullUrl": "urn:uuid:d3198278-a9b4-4fb3-a2cb-954b19d6e6e1",
      "resource": {
        "resourceType": "Observation",
        "id": "d3198278-a9b4-4fb3-a2cb-954b19d6e6e1",
        "meta": {
          "profile": [
            "http://hl7.eu/fhir/laboratory/StructureDefinition/Observation-resultslab-eu-lab"
          ]
        },
        "performer": [
          {
            "display": "The Central European Lab"
          }
        ],
        "category": [
          {
            "coding": [
              {
                "system": "http://terminology.hl7.org/CodeSystem/observation-category",
                "code": "laboratory"
              }
            ]
          }
        ],
        "code": {
          "coding": [
            {
              "code": "2028-9",
              "system": "http://loinc.org",
              "display": "Carbon dioxide, total [Moles/volume] in Serum or Plasma"
            }
          ],
          "text": "Carbon dioxide, total [Moles/volume] in Serum or Plasma"
        },
        "valueQuantity": {
          "system": "http://unitsofmeasure.org",
          "value": 28.7,
          "unit": "mmol/L",
          "code": "mmol/L"
        },
        "referenceRange": [
          {
            "low": {
              "value": 22,
              "code": "mmol/L",
              "system": "http://unitsofmeasure.org"
            }
          },
          {
            "high": {
              "value": 32,
              "code": "mmol/L",
              "system": "http://unitsofmeasure.org"
            }
          }
        ],
        "text": {
          "status": "generated",
          "div": "<div xmlns=\"http://www.w3.org/1999/xhtml\"><table class=\"hl7__eu__lab__report\"><tr><th>Test</th><th>04-May-2017</th><th>Reference&#xA0;Range</th><th>Unit</th></tr><tr><td>Carbon dioxide, total [Moles/volume] in Serum or Plasma</td><td>28.7</td><td>22 - 32</td><td></td><td>mmol/L</td></tr></table></div>"
        },
        "status": "final",
        "subject": {
          "reference": "urn:uuid:20345907-d65d-460a-97a7-9535819f762b",
          "display": "Molly Jenkins"
        },
        "effectiveDateTime": "2017-05-04T14:42:11Z",
        "specimen": {
          "reference": "urn:uuid:d8659783-15e7-4b74-8eee-ca56b36d9b8d"
        }
      }
    },
    {
      "fullUrl": "urn:uuid:1baee151-2de4-49e7-99fa-f156fa2b1157",
      "resource": {
        "resourceType": "Observation",
        "id": "1baee151-2de4-49e7-99fa-f156fa2b1157",
        "meta": {
          "profile": [
            "http://hl7.eu/fhir/laboratory/StructureDefinition/Observation-resultslab-eu-lab"
          ]
        },
        "performer": [
          {
            "display": "The Central European Lab"
          }
        ],
        "category": [
          {
            "coding": [
              {
                "system": "http://terminology.hl7.org/CodeSystem/observation-category",
                "code": "laboratory"
              }
            ]
          }
        ],
        "code": {
          "coding": [
            {
              "code": "5767-9",
              "system": "http://loinc.org",
              "display": "Appearance of Urine"
            }
          ],
          "text": "Appearance of Urine"
        },
        "text": {
          "status": "generated",
          "div": "<div xmlns=\"http://www.w3.org/1999/xhtml\"><table class=\"hl7__eu__lab__report\"><tr><th>Test</th><th>04-May-2017</th><th>Reference&#xA0;Range</th><th>Unit</th></tr><tr><td>Appearance of Urine</td></tr></table></div>"
        },
        "status": "final",
        "subject": {
          "reference": "urn:uuid:20345907-d65d-460a-97a7-9535819f762b",
          "display": "Molly Jenkins"
        },
        "effectiveDateTime": "2017-05-04T14:42:11Z",
        "specimen": {
          "reference": "urn:uuid:8af1853a-b856-44d1-a25c-547751b5a240"
        }
      }
    },
    {
      "fullUrl": "urn:uuid:076f4a4e-6847-4d10-bf13-ede3cb4ad9c7",
      "resource": {
        "resourceType": "Observation",
        "id": "076f4a4e-6847-4d10-bf13-ede3cb4ad9c7",
        "meta": {
          "profile": [
            "http://hl7.eu/fhir/laboratory/StructureDefinition/Observation-resultslab-eu-lab"
          ]
        },
        "performer": [
          {
            "display": "The Central European Lab"
          }
        ],
        "category": [
          {
            "coding": [
              {
                "system": "http://terminology.hl7.org/CodeSystem/observation-category",
                "code": "laboratory"
              }
            ]
          }
        ],
        "code": {
          "coding": [
            {
              "code": "34533-0",
              "system": "http://loinc.org",
              "display": "Odor of Urine"
            }
          ],
          "text": "Odor of Urine"
        },
        "text": {
          "status": "generated",
          "div": "<div xmlns=\"http://www.w3.org/1999/xhtml\"><table class=\"hl7__eu__lab__report\"><tr><th>Test</th><th>04-May-2017</th><th>Reference&#xA0;Range</th><th>Unit</th></tr><tr><td>Odor of Urine</td></tr></table></div>"
        },
        "status": "final",
        "subject": {
          "reference": "urn:uuid:20345907-d65d-460a-97a7-9535819f762b",
          "display": "Molly Jenkins"
        },
        "effectiveDateTime": "2017-05-04T14:42:11Z",
        "specimen": {
          "reference": "urn:uuid:8af1853a-b856-44d1-a25c-547751b5a240"
        }
      }
    },
    {
      "fullUrl": "urn:uuid:e46e8d41-a6c2-4cb7-9c51-2ef7a4d9b101",
      "resource": {
        "resourceType": "Observation",
        "id": "e46e8d41-a6c2-4cb7-9c51-2ef7a4d9b101",
        "meta": {
          "profile": [
            "http://hl7.eu/fhir/laboratory/StructureDefinition/Observation-resultslab-eu-lab"
          ]
        },
        "performer": [
          {
            "display": "The Central European Lab"
          }
        ],
        "category": [
          {
            "coding": [
              {
                "system": "http://terminology.hl7.org/CodeSystem/observation-category",
                "code": "laboratory"
              }
            ]
          }
        ],
        "code": {
          "coding": [
            {
              "code": "32167-9",
              "system": "http://loinc.org",
              "display": "Clarity of Urine"
            }
          ],
          "text": "Clarity of Urine"
        },
        "text": {
          "status": "generated",
          "div": "<div xmlns=\"http://www.w3.org/1999/xhtml\"><table class=\"hl7__eu__lab__report\"><tr><th>Test</th><th>04-May-2017</th><th>Reference&#xA0;Range</th><th>Unit</th></tr><tr><td>Clarity of Urine</td></tr></table></div>"
        },
        "status": "final",
        "subject": {
          "reference": "urn:uuid:20345907-d65d-460a-97a7-9535819f762b",
          "display": "Molly Jenkins"
        },
        "effectiveDateTime": "2017-05-04T14:42:11Z",
        "specimen": {
          "reference": "urn:uuid:8af1853a-b856-44d1-a25c-547751b5a240"
        }
      }
    },
    {
      "fullUrl": "urn:uuid:3690ecf4-760b-4a6d-adff-082fcc08c665",
      "resource": {
        "resourceType": "Observation",
        "id": "3690ecf4-760b-4a6d-adff-082fcc08c665",
        "meta": {
          "profile": [
            "http://hl7.eu/fhir/laboratory/StructureDefinition/Observation-resultslab-eu-lab"
          ]
        },
        "performer": [
          {
            "display": "The Central European Lab"
          }
        ],
        "category": [
          {
            "coding": [
              {
                "system": "http://terminology.hl7.org/CodeSystem/observation-category",
                "code": "laboratory"
              }
            ]
          }
        ],
        "code": {
          "coding": [
            {
              "code": "5778-6",
              "system": "http://loinc.org",
              "display": "Color of Urine"
            }
          ],
          "text": "Color of Urine"
        },
        "text": {
          "status": "generated",
          "div": "<div xmlns=\"http://www.w3.org/1999/xhtml\"><table class=\"hl7__eu__lab__report\"><tr><th>Test</th><th>04-May-2017</th><th>Reference&#xA0;Range</th><th>Unit</th></tr><tr><td>Color of Urine</td></tr></table></div>"
        },
        "status": "final",
        "subject": {
          "reference": "urn:uuid:20345907-d65d-460a-97a7-9535819f762b",
          "display": "Molly Jenkins"
        },
        "effectiveDateTime": "2017-05-04T14:42:11Z",
        "specimen": {
          "reference": "urn:uuid:8af1853a-b856-44d1-a25c-547751b5a240"
        }
      }
    },
    {
      "fullUrl": "urn:uuid:c71b96a6-77a5-4a17-bdce-baf208116a88",
      "resource": {
        "resourceType": "Observation",
        "id": "c71b96a6-77a5-4a17-bdce-baf208116a88",
        "meta": {
          "profile": [
            "http://hl7.eu/fhir/laboratory/StructureDefinition/Observation-resultslab-eu-lab"
          ]
        },
        "performer": [
          {
            "display": "The Central European Lab"
          }
        ],
        "category": [
          {
            "coding": [
              {
                "system": "http://terminology.hl7.org/CodeSystem/observation-category",
                "code": "laboratory"
              }
            ]
          }
        ],
        "code": {
          "coding": [
            {
              "code": "5792-7",
              "system": "http://loinc.org",
              "display": "Glucose [Mass/volume] in Urine by Test strip"
            }
          ],
          "text": "Glucose [Mass/volume] in Urine by Test strip"
        },
        "valueQuantity": {
          "system": "http://unitsofmeasure.org",
          "value": 1.6,
          "unit": "mg/dL",
          "code": "mg/dL"
        },
        "referenceRange": [
          {
            "low": {
              "value": 0,
              "code": "mg/dL",
              "system": "http://unitsofmeasure.org"
            }
          },
          {
            "high": {
              "value": 0,
              "code": "mg/dL",
              "system": "http://unitsofmeasure.org"
            }
          }
        ],
        "interpretation": [
          {
            "coding": [
              {
                "code": "H",
                "system": "http://terminology.hl7.org/CodeSystem/v3-ObservationInterpretation",
                "display": "High"
              }
            ]
          }
        ],
        "text": {
          "status": "generated",
          "div": "<div xmlns=\"http://www.w3.org/1999/xhtml\"><table class=\"hl7__eu__lab__report\"><tr><th>Test</th><th>04-May-2017</th><th>Reference&#xA0;Range</th><th>Unit</th></tr><tr><td>Glucose [Mass/volume] in Urine by Test strip</td><td>1.6</td><td>0 - 0</td><td>H</td><td>mg/dL</td></tr></table></div>"
        },
        "status": "final",
        "subject": {
          "reference": "urn:uuid:20345907-d65d-460a-97a7-9535819f762b",
          "display": "Molly Jenkins"
        },
        "effectiveDateTime": "2017-05-04T14:42:11Z",
        "specimen": {
          "reference": "urn:uuid:8af1853a-b856-44d1-a25c-547751b5a240"
        }
      }
    },
    {
      "fullUrl": "urn:uuid:0abff53c-2dfa-4027-9d3c-0c2925d73280",
      "resource": {
        "resourceType": "Observation",
        "id": "0abff53c-2dfa-4027-9d3c-0c2925d73280",
        "meta": {
          "profile": [
            "http://hl7.eu/fhir/laboratory/StructureDefinition/Observation-resultslab-eu-lab"
          ]
        },
        "performer": [
          {
            "display": "The Central European Lab"
          }
        ],
        "category": [
          {
            "coding": [
              {
                "system": "http://terminology.hl7.org/CodeSystem/observation-category",
                "code": "laboratory"
              }
            ]
          }
        ],
        "code": {
          "coding": [
            {
              "code": "25428-4",
              "system": "http://loinc.org",
              "display": "Glucose [Presence] in Urine by Test strip"
            }
          ],
          "text": "Glucose [Presence] in Urine by Test strip"
        },
        "text": {
          "status": "generated",
          "div": "<div xmlns=\"http://www.w3.org/1999/xhtml\"><table class=\"hl7__eu__lab__report\"><tr><th>Test</th><th>04-May-2017</th><th>Reference&#xA0;Range</th><th>Unit</th></tr><tr><td>Glucose [Presence] in Urine by Test strip</td></tr></table></div>"
        },
        "status": "final",
        "subject": {
          "reference": "urn:uuid:20345907-d65d-460a-97a7-9535819f762b",
          "display": "Molly Jenkins"
        },
        "effectiveDateTime": "2017-05-04T14:42:11Z",
        "specimen": {
          "reference": "urn:uuid:8af1853a-b856-44d1-a25c-547751b5a240"
        }
      }
    },
    {
      "fullUrl": "urn:uuid:2011cd5c-a559-4057-92e7-06602c2c9c4a",
      "resource": {
        "resourceType": "Observation",
        "id": "2011cd5c-a559-4057-92e7-06602c2c9c4a",
        "meta": {
          "profile": [
            "http://hl7.eu/fhir/laboratory/StructureDefinition/Observation-resultslab-eu-lab"
          ]
        },
        "performer": [
          {
            "display": "The Central European Lab"
          }
        ],
        "category": [
          {
            "coding": [
              {
                "system": "http://terminology.hl7.org/CodeSystem/observation-category",
                "code": "laboratory"
              }
            ]
          }
        ],
        "code": {
          "coding": [
            {
              "code": "20505-4",
              "system": "http://loinc.org",
              "display": "Bilirubin.total [Mass/volume] in Urine by Test strip"
            }
          ],
          "text": "Bilirubin.total [Mass/volume] in Urine by Test strip"
        },
        "valueQuantity": {
          "system": "http://unitsofmeasure.org",
          "value": 1.4,
          "unit": "mg/dL",
          "code": "mg/dL"
        },
        "referenceRange": [
          {
            "low": {
              "value": 0,
              "code": "mg/dL",
              "system": "http://unitsofmeasure.org"
            }
          },
          {
            "high": {
              "value": 1.6,
              "code": "mg/dL",
              "system": "http://unitsofmeasure.org"
            }
          }
        ],
        "text": {
          "status": "generated",
          "div": "<div xmlns=\"http://www.w3.org/1999/xhtml\"><table class=\"hl7__eu__lab__report\"><tr><th>Test</th><th>04-May-2017</th><th>Reference&#xA0;Range</th><th>Unit</th></tr><tr><td>Bilirubin.total [Mass/volume] in Urine by Test strip</td><td>1.4</td><td>0 - 1.6</td><td></td><td>mg/dL</td></tr></table></div>"
        },
        "status": "final",
        "subject": {
          "reference": "urn:uuid:20345907-d65d-460a-97a7-9535819f762b",
          "display": "Molly Jenkins"
        },
        "effectiveDateTime": "2017-05-04T14:42:11Z",
        "specimen": {
          "reference": "urn:uuid:8af1853a-b856-44d1-a25c-547751b5a240"
        }
      }
    },
    {
      "fullUrl": "urn:uuid:8947c437-3e25-4d72-b8ff-20a453a83eec",
      "resource": {
        "resourceType": "Observation",
        "id": "8947c437-3e25-4d72-b8ff-20a453a83eec",
        "meta": {
          "profile": [
            "http://hl7.eu/fhir/laboratory/StructureDefinition/Observation-resultslab-eu-lab"
          ]
        },
        "performer": [
          {
            "display": "The Central European Lab"
          }
        ],
        "category": [
          {
            "coding": [
              {
                "system": "http://terminology.hl7.org/CodeSystem/observation-category",
                "code": "laboratory"
              }
            ]
          }
        ],
        "code": {
          "coding": [
            {
              "code": "5770-3",
              "system": "http://loinc.org",
              "display": "Bilirubin.total [Presence] in Urine by Test strip"
            }
          ],
          "text": "Bilirubin.total [Presence] in Urine by Test strip"
        },
        "text": {
          "status": "generated",
          "div": "<div xmlns=\"http://www.w3.org/1999/xhtml\"><table class=\"hl7__eu__lab__report\"><tr><th>Test</th><th>04-May-2017</th><th>Reference&#xA0;Range</th><th>Unit</th></tr><tr><td>Bilirubin.total [Presence] in Urine by Test strip</td></tr></table></div>"
        },
        "status": "final",
        "subject": {
          "reference": "urn:uuid:20345907-d65d-460a-97a7-9535819f762b",
          "display": "Molly Jenkins"
        },
        "effectiveDateTime": "2017-05-04T14:42:11Z",
        "specimen": {
          "reference": "urn:uuid:8af1853a-b856-44d1-a25c-547751b5a240"
        }
      }
    },
    {
      "fullUrl": "urn:uuid:15ce46eb-3bdb-4e36-af69-36762802528f",
      "resource": {
        "resourceType": "Observation",
        "id": "15ce46eb-3bdb-4e36-af69-36762802528f",
        "meta": {
          "profile": [
            "http://hl7.eu/fhir/laboratory/StructureDefinition/Observation-resultslab-eu-lab"
          ]
        },
        "performer": [
          {
            "display": "The Central European Lab"
          }
        ],
        "category": [
          {
            "coding": [
              {
                "system": "http://terminology.hl7.org/CodeSystem/observation-category",
                "code": "laboratory"
              }
            ]
          }
        ],
        "code": {
          "coding": [
            {
              "code": "5797-6",
              "system": "http://loinc.org",
              "display": "Ketones [Mass/volume] in Urine by Test strip"
            }
          ],
          "text": "Ketones [Mass/volume] in Urine by Test strip"
        },
        "valueQuantity": {
          "system": "http://unitsofmeasure.org",
          "value": 11.8,
          "unit": "mg/dL",
          "code": "mg/dL"
        },
        "referenceRange": [
          {
            "low": {
              "value": 0,
              "code": "mg/dL",
              "system": "http://unitsofmeasure.org"
            }
          },
          {
            "high": {
              "value": 0.5,
              "code": "mg/dL",
              "system": "http://unitsofmeasure.org"
            }
          }
        ],
        "interpretation": [
          {
            "coding": [
              {
                "code": "H",
                "system": "http://terminology.hl7.org/CodeSystem/v3-ObservationInterpretation",
                "display": "High"
              }
            ]
          }
        ],
        "text": {
          "status": "generated",
          "div": "<div xmlns=\"http://www.w3.org/1999/xhtml\"><table class=\"hl7__eu__lab__report\"><tr><th>Test</th><th>04-May-2017</th><th>Reference&#xA0;Range</th><th>Unit</th></tr><tr><td>Ketones [Mass/volume] in Urine by Test strip</td><td>11.8</td><td>0 - 0.5</td><td>H</td><td>mg/dL</td></tr></table></div>"
        },
        "status": "final",
        "subject": {
          "reference": "urn:uuid:20345907-d65d-460a-97a7-9535819f762b",
          "display": "Molly Jenkins"
        },
        "effectiveDateTime": "2017-05-04T14:42:11Z",
        "specimen": {
          "reference": "urn:uuid:8af1853a-b856-44d1-a25c-547751b5a240"
        }
      }
    },
    {
      "fullUrl": "urn:uuid:8ed79191-fdc1-473e-9f47-2300ede4d0e1",
      "resource": {
        "resourceType": "Observation",
        "id": "8ed79191-fdc1-473e-9f47-2300ede4d0e1",
        "meta": {
          "profile": [
            "http://hl7.eu/fhir/laboratory/StructureDefinition/Observation-resultslab-eu-lab"
          ]
        },
        "performer": [
          {
            "display": "The Central European Lab"
          }
        ],
        "category": [
          {
            "coding": [
              {
                "system": "http://terminology.hl7.org/CodeSystem/observation-category",
                "code": "laboratory"
              }
            ]
          }
        ],
        "code": {
          "coding": [
            {
              "code": "2514-8",
              "system": "http://loinc.org",
              "display": "Ketones [Presence] in Urine by Test strip"
            }
          ],
          "text": "Ketones [Presence] in Urine by Test strip"
        },
        "text": {
          "status": "generated",
          "div": "<div xmlns=\"http://www.w3.org/1999/xhtml\"><table class=\"hl7__eu__lab__report\"><tr><th>Test</th><th>04-May-2017</th><th>Reference&#xA0;Range</th><th>Unit</th></tr><tr><td>Ketones [Presence] in Urine by Test strip</td></tr></table></div>"
        },
        "status": "final",
        "subject": {
          "reference": "urn:uuid:20345907-d65d-460a-97a7-9535819f762b",
          "display": "Molly Jenkins"
        },
        "effectiveDateTime": "2017-05-04T14:42:11Z",
        "specimen": {
          "reference": "urn:uuid:8af1853a-b856-44d1-a25c-547751b5a240"
        }
      }
    },
    {
      "fullUrl": "urn:uuid:b9d66c85-baa9-4eae-a5d9-958136f07609",
      "resource": {
        "resourceType": "Observation",
        "id": "b9d66c85-baa9-4eae-a5d9-958136f07609",
        "meta": {
          "profile": [
            "http://hl7.eu/fhir/laboratory/StructureDefinition/Observation-resultslab-eu-lab"
          ]
        },
        "performer": [
          {
            "display": "The Central European Lab"
          }
        ],
        "category": [
          {
            "coding": [
              {
                "system": "http://terminology.hl7.org/CodeSystem/observation-category",
                "code": "laboratory"
              }
            ]
          }
        ],
        "code": {
          "coding": [
            {
              "code": "5811-5",
              "system": "http://loinc.org",
              "display": "Specific gravity of Urine by Test strip"
            }
          ],
          "text": "Specific gravity of Urine by Test strip"
        },
        "valueQuantity": {
          "system": "http://unitsofmeasure.org",
          "value": 1,
          "unit": "{nominal}",
          "code": "{nominal}"
        },
        "referenceRange": [
          {
            "low": {
              "value": 1.005,
              "code": "g/mL",
              "system": "http://unitsofmeasure.org"
            }
          },
          {
            "high": {
              "value": 1.03,
              "code": "g/mL",
              "system": "http://unitsofmeasure.org"
            }
          }
        ],
        "interpretation": [
          {
            "coding": [
              {
                "code": "L",
                "system": "http://terminology.hl7.org/CodeSystem/v3-ObservationInterpretation",
                "display": "Low"
              }
            ]
          }
        ],
        "text": {
          "status": "generated",
          "div": "<div xmlns=\"http://www.w3.org/1999/xhtml\"><table class=\"hl7__eu__lab__report\"><tr><th>Test</th><th>04-May-2017</th><th>Reference&#xA0;Range</th><th>Unit</th></tr><tr><td>Specific gravity of Urine by Test strip</td><td>1.0</td><td>1.005 - 1.03</td><td>L</td><td>{nominal}</td></tr></table></div>"
        },
        "status": "final",
        "subject": {
          "reference": "urn:uuid:20345907-d65d-460a-97a7-9535819f762b",
          "display": "Molly Jenkins"
        },
        "effectiveDateTime": "2017-05-04T14:42:11Z",
        "specimen": {
          "reference": "urn:uuid:8af1853a-b856-44d1-a25c-547751b5a240"
        }
      }
    },
    {
      "fullUrl": "urn:uuid:9ceb7b76-4393-492a-a34b-ad542d7312b8",
      "resource": {
        "resourceType": "Observation",
        "id": "9ceb7b76-4393-492a-a34b-ad542d7312b8",
        "meta": {
          "profile": [
            "http://hl7.eu/fhir/laboratory/StructureDefinition/Observation-resultslab-eu-lab"
          ]
        },
        "performer": [
          {
            "display": "The Central European Lab"
          }
        ],
        "category": [
          {
            "coding": [
              {
                "system": "http://terminology.hl7.org/CodeSystem/observation-category",
                "code": "laboratory"
              }
            ]
          }
        ],
        "code": {
          "coding": [
            {
              "code": "5803-2",
              "system": "http://loinc.org",
              "display": "pH of Urine by Test strip"
            }
          ],
          "text": "pH of Urine by Test strip"
        },
        "valueQuantity": {
          "system": "http://unitsofmeasure.org",
          "value": 5.1,
          "unit": "pH",
          "code": "pH"
        },
        "referenceRange": [
          {
            "low": {
              "value": 4.5,
              "code": "pH",
              "system": "http://unitsofmeasure.org"
            }
          },
          {
            "high": {
              "value": 7.5,
              "code": "pH",
              "system": "http://unitsofmeasure.org"
            }
          }
        ],
        "text": {
          "status": "generated",
          "div": "<div xmlns=\"http://www.w3.org/1999/xhtml\"><table class=\"hl7__eu__lab__report\"><tr><th>Test</th><th>04-May-2017</th><th>Reference&#xA0;Range</th><th>Unit</th></tr><tr><td>pH of Urine by Test strip</td><td>5.1</td><td>4.5 - 7.5</td><td></td><td>pH</td></tr></table></div>"
        },
        "status": "final",
        "subject": {
          "reference": "urn:uuid:20345907-d65d-460a-97a7-9535819f762b",
          "display": "Molly Jenkins"
        },
        "effectiveDateTime": "2017-05-04T14:42:11Z",
        "specimen": {
          "reference": "urn:uuid:8af1853a-b856-44d1-a25c-547751b5a240"
        }
      }
    },
    {
      "fullUrl": "urn:uuid:295acf25-9dfe-4038-a978-7c47e66e722e",
      "resource": {
        "resourceType": "Observation",
        "id": "295acf25-9dfe-4038-a978-7c47e66e722e",
        "meta": {
          "profile": [
            "http://hl7.eu/fhir/laboratory/StructureDefinition/Observation-resultslab-eu-lab"
          ]
        },
        "performer": [
          {
            "display": "The Central European Lab"
          }
        ],
        "category": [
          {
            "coding": [
              {
                "system": "http://terminology.hl7.org/CodeSystem/observation-category",
                "code": "laboratory"
              }
            ]
          }
        ],
        "code": {
          "coding": [
            {
              "code": "5804-0",
              "system": "http://loinc.org",
              "display": "Protein [Mass/volume] in Urine by Test strip"
            }
          ],
          "text": "Protein [Mass/volume] in Urine by Test strip"
        },
        "valueQuantity": {
          "system": "http://unitsofmeasure.org",
          "value": 221.4,
          "unit": "mg/dL",
          "code": "mg/dL"
        },
        "referenceRange": [
          {
            "low": {
              "value": 0,
              "code": "mg/dL",
              "system": "http://unitsofmeasure.org"
            }
          },
          {
            "high": {
              "value": 15,
              "code": "mg/dL",
              "system": "http://unitsofmeasure.org"
            }
          }
        ],
        "interpretation": [
          {
            "coding": [
              {
                "code": "H",
                "system": "http://terminology.hl7.org/CodeSystem/v3-ObservationInterpretation",
                "display": "High"
              }
            ]
          }
        ],
        "text": {
          "status": "generated",
          "div": "<div xmlns=\"http://www.w3.org/1999/xhtml\"><table class=\"hl7__eu__lab__report\"><tr><th>Test</th><th>04-May-2017</th><th>Reference&#xA0;Range</th><th>Unit</th></tr><tr><td>Protein [Mass/volume] in Urine by Test strip</td><td>221.4</td><td>0 - 15</td><td>H</td><td>mg/dL</td></tr></table></div>"
        },
        "status": "final",
        "subject": {
          "reference": "urn:uuid:20345907-d65d-460a-97a7-9535819f762b",
          "display": "Molly Jenkins"
        },
        "effectiveDateTime": "2017-05-04T14:42:11Z",
        "specimen": {
          "reference": "urn:uuid:8af1853a-b856-44d1-a25c-547751b5a240"
        }
      }
    },
    {
      "fullUrl": "urn:uuid:fe0e4c97-1239-49cf-a22e-e0a574721907",
      "resource": {
        "resourceType": "Observation",
        "id": "fe0e4c97-1239-49cf-a22e-e0a574721907",
        "meta": {
          "profile": [
            "http://hl7.eu/fhir/laboratory/StructureDefinition/Observation-resultslab-eu-lab"
          ]
        },
        "performer": [
          {
            "display": "The Central European Lab"
          }
        ],
        "category": [
          {
            "coding": [
              {
                "system": "http://terminology.hl7.org/CodeSystem/observation-category",
                "code": "laboratory"
              }
            ]
          }
        ],
        "code": {
          "coding": [
            {
              "code": "20454-5",
              "system": "http://loinc.org",
              "display": "Protein [Presence] in Urine by Test strip"
            }
          ],
          "text": "Protein [Presence] in Urine by Test strip"
        },
        "text": {
          "status": "generated",
          "div": "<div xmlns=\"http://www.w3.org/1999/xhtml\"><table class=\"hl7__eu__lab__report\"><tr><th>Test</th><th>04-May-2017</th><th>Reference&#xA0;Range</th><th>Unit</th></tr><tr><td>Protein [Presence] in Urine by Test strip</td></tr></table></div>"
        },
        "status": "final",
        "subject": {
          "reference": "urn:uuid:20345907-d65d-460a-97a7-9535819f762b",
          "display": "Molly Jenkins"
        },
        "effectiveDateTime": "2017-05-04T14:42:11Z",
        "specimen": {
          "reference": "urn:uuid:8af1853a-b856-44d1-a25c-547751b5a240"
        }
      }
    },
    {
      "fullUrl": "urn:uuid:1ad3baae-19bb-4f46-8baa-93095b4ab324",
      "resource": {
        "resourceType": "Observation",
        "id": "1ad3baae-19bb-4f46-8baa-93095b4ab324",
        "meta": {
          "profile": [
            "http://hl7.eu/fhir/laboratory/StructureDefinition/Observation-resultslab-eu-lab"
          ]
        },
        "performer": [
          {
            "display": "The Central European Lab"
          }
        ],
        "category": [
          {
            "coding": [
              {
                "system": "http://terminology.hl7.org/CodeSystem/observation-category",
                "code": "laboratory"
              }
            ]
          }
        ],
        "code": {
          "coding": [
            {
              "code": "5802-4",
              "system": "http://loinc.org",
              "display": "Nitrite [Presence] in Urine by Test strip"
            }
          ],
          "text": "Nitrite [Presence] in Urine by Test strip"
        },
        "text": {
          "status": "generated",
          "div": "<div xmlns=\"http://www.w3.org/1999/xhtml\"><table class=\"hl7__eu__lab__report\"><tr><th>Test</th><th>04-May-2017</th><th>Reference&#xA0;Range</th><th>Unit</th></tr><tr><td>Nitrite [Presence] in Urine by Test strip</td></tr></table></div>"
        },
        "status": "final",
        "subject": {
          "reference": "urn:uuid:20345907-d65d-460a-97a7-9535819f762b",
          "display": "Molly Jenkins"
        },
        "effectiveDateTime": "2017-05-04T14:42:11Z",
        "specimen": {
          "reference": "urn:uuid:8af1853a-b856-44d1-a25c-547751b5a240"
        }
      }
    },
    {
      "fullUrl": "urn:uuid:f58f1b36-a77f-4739-9f19-3facd7891d96",
      "resource": {
        "resourceType": "Observation",
        "id": "f58f1b36-a77f-4739-9f19-3facd7891d96",
        "meta": {
          "profile": [
            "http://hl7.eu/fhir/laboratory/StructureDefinition/Observation-resultslab-eu-lab"
          ]
        },
        "performer": [
          {
            "display": "The Central European Lab"
          }
        ],
        "category": [
          {
            "coding": [
              {
                "system": "http://terminology.hl7.org/CodeSystem/observation-category",
                "code": "laboratory"
              }
            ]
          }
        ],
        "code": {
          "coding": [
            {
              "code": "5794-3",
              "system": "http://loinc.org",
              "display": "Hemoglobin [Presence] in Urine by Test strip"
            }
          ],
          "text": "Hemoglobin [Presence] in Urine by Test strip"
        },
        "text": {
          "status": "generated",
          "div": "<div xmlns=\"http://www.w3.org/1999/xhtml\"><table class=\"hl7__eu__lab__report\"><tr><th>Test</th><th>04-May-2017</th><th>Reference&#xA0;Range</th><th>Unit</th></tr><tr><td>Hemoglobin [Presence] in Urine by Test strip</td></tr></table></div>"
        },
        "status": "final",
        "subject": {
          "reference": "urn:uuid:20345907-d65d-460a-97a7-9535819f762b",
          "display": "Molly Jenkins"
        },
        "effectiveDateTime": "2017-05-04T14:42:11Z",
        "specimen": {
          "reference": "urn:uuid:8af1853a-b856-44d1-a25c-547751b5a240"
        }
      }
    },
    {
      "fullUrl": "urn:uuid:c4c5dee8-0a4f-40b9-a6db-dadb1aa79518",
      "resource": {
        "resourceType": "Observation",
        "id": "c4c5dee8-0a4f-40b9-a6db-dadb1aa79518",
        "meta": {
          "profile": [
            "http://hl7.eu/fhir/laboratory/StructureDefinition/Observation-resultslab-eu-lab"
          ]
        },
        "performer": [
          {
            "display": "The Central European Lab"
          }
        ],
        "category": [
          {
            "coding": [
              {
                "system": "http://terminology.hl7.org/CodeSystem/observation-category",
                "code": "laboratory"
              }
            ]
          }
        ],
        "code": {
          "coding": [
            {
              "code": "5799-2",
              "system": "http://loinc.org",
              "display": "Leukocyte esterase [Presence] in Urine by Test strip"
            }
          ],
          "text": "Leukocyte esterase [Presence] in Urine by Test strip"
        },
        "text": {
          "status": "generated",
          "div": "<div xmlns=\"http://www.w3.org/1999/xhtml\"><table class=\"hl7__eu__lab__report\"><tr><th>Test</th><th>04-May-2017</th><th>Reference&#xA0;Range</th><th>Unit</th></tr><tr><td>Leukocyte esterase [Presence] in Urine by Test strip</td></tr></table></div>"
        },
        "status": "final",
        "subject": {
          "reference": "urn:uuid:20345907-d65d-460a-97a7-9535819f762b",
          "display": "Molly Jenkins"
        },
        "effectiveDateTime": "2017-05-04T14:42:11Z",
        "specimen": {
          "reference": "urn:uuid:8af1853a-b856-44d1-a25c-547751b5a240"
        }
      }
    },
    {
      "fullUrl": "urn:uuid:6b07835b-ddcb-4685-8dd8-79c9d401c859",
      "resource": {
        "resourceType": "Observation",
        "id": "6b07835b-ddcb-4685-8dd8-79c9d401c859",
        "meta": {
          "profile": [
            "http://hl7.eu/fhir/laboratory/StructureDefinition/Observation-resultslab-eu-lab"
          ]
        },
        "performer": [
          {
            "display": "The Central European Lab"
          }
        ],
        "category": [
          {
            "coding": [
              {
                "system": "http://terminology.hl7.org/CodeSystem/observation-category",
                "code": "laboratory"
              }
            ]
          }
        ],
        "code": {
          "coding": [
            {
              "code": "4548-4",
              "system": "http://loinc.org",
              "display": "Hemoglobin A1c/Hemoglobin.total in Blood"
            }
          ],
          "text": "Hemoglobin A1c/Hemoglobin.total in Blood"
        },
        "valueQuantity": {
          "system": "http://unitsofmeasure.org",
          "value": 3,
          "unit": "%",
          "code": "%"
        },
        "referenceRange": [
          {
            "low": {
              "value": 4,
              "code": "%",
              "system": "http://unitsofmeasure.org"
            }
          },
          {
            "high": {
              "value": 6,
              "code": "%",
              "system": "http://unitsofmeasure.org"
            }
          }
        ],
        "interpretation": [
          {
            "coding": [
              {
                "code": "L",
                "system": "http://terminology.hl7.org/CodeSystem/v3-ObservationInterpretation",
                "display": "Low"
              }
            ]
          }
        ],
        "text": {
          "status": "generated",
          "div": "<div xmlns=\"http://www.w3.org/1999/xhtml\"><table class=\"hl7__eu__lab__report\"><tr><th>Test</th><th>04-May-2017</th><th>Reference&#xA0;Range</th><th>Unit</th></tr><tr><td>Hemoglobin A1c/Hemoglobin.total in Blood</td><td>3.0</td><td>4 - 6</td><td>L</td><td>%</td></tr></table></div>"
        },
        "status": "final",
        "subject": {
          "reference": "urn:uuid:20345907-d65d-460a-97a7-9535819f762b",
          "display": "Molly Jenkins"
        },
        "effectiveDateTime": "2017-05-04T14:42:11Z",
        "specimen": {
          "reference": "urn:uuid:a11510ae-634c-4571-8228-441a90da3bc1"
        }
      }
    },
    {
      "fullUrl": "urn:uuid:221fc49c-cc45-4703-a728-9ba8977f0074",
      "resource": {
        "resourceType": "Observation",
        "id": "221fc49c-cc45-4703-a728-9ba8977f0074",
        "meta": {
          "profile": [
            "http://hl7.eu/fhir/laboratory/StructureDefinition/Observation-resultslab-eu-lab"
          ]
        },
        "performer": [
          {
            "display": "The Central European Lab"
          }
        ],
        "category": [
          {
            "coding": [
              {
                "system": "http://terminology.hl7.org/CodeSystem/observation-category",
                "code": "laboratory"
              }
            ]
          }
        ],
        "code": {
          "coding": [
            {
              "code": "2339-0",
              "system": "http://loinc.org",
              "display": "Glucose [Mass/volume] in Blood"
            }
          ],
          "text": "Glucose [Mass/volume] in Blood"
        },
        "valueQuantity": {
          "system": "http://unitsofmeasure.org",
          "value": 78.3,
          "unit": "mg/dL",
          "code": "mg/dL"
        },
        "referenceRange": [
          {
            "low": {
              "value": 70,
              "code": "mg/dL",
              "system": "http://unitsofmeasure.org"
            }
          },
          {
            "high": {
              "value": 100,
              "code": "mg/dL",
              "system": "http://unitsofmeasure.org"
            }
          }
        ],
        "text": {
          "status": "generated",
          "div": "<div xmlns=\"http://www.w3.org/1999/xhtml\"><table class=\"hl7__eu__lab__report\"><tr><th>Test</th><th>04-May-2017</th><th>Reference&#xA0;Range</th><th>Unit</th></tr><tr><td>Glucose [Mass/volume] in Blood</td><td>78.3</td><td>70 - 100</td><td></td><td>mg/dL</td></tr></table></div>"
        },
        "status": "final",
        "subject": {
          "reference": "urn:uuid:20345907-d65d-460a-97a7-9535819f762b",
          "display": "Molly Jenkins"
        },
        "effectiveDateTime": "2017-05-04T14:42:11Z",
        "specimen": {
          "reference": "urn:uuid:a11510ae-634c-4571-8228-441a90da3bc1"
        }
      }
    },
    {
      "fullUrl": "urn:uuid:98e6f8d6-8858-4799-82be-dd243481bbb6",
      "resource": {
        "resourceType": "Observation",
        "id": "98e6f8d6-8858-4799-82be-dd243481bbb6",
        "meta": {
          "profile": [
            "http://hl7.eu/fhir/laboratory/StructureDefinition/Observation-resultslab-eu-lab"
          ]
        },
        "performer": [
          {
            "display": "The Central European Lab"
          }
        ],
        "category": [
          {
            "coding": [
              {
                "system": "http://terminology.hl7.org/CodeSystem/observation-category",
                "code": "laboratory"
              }
            ]
          }
        ],
        "code": {
          "coding": [
            {
              "code": "6299-2",
              "system": "http://loinc.org",
              "display": "Urea nitrogen [Mass/volume] in Blood"
            }
          ],
          "text": "Urea nitrogen [Mass/volume] in Blood"
        },
        "valueQuantity": {
          "system": "http://unitsofmeasure.org",
          "value": 7.5,
          "unit": "mg/dL",
          "code": "mg/dL"
        },
        "referenceRange": [
          {
            "low": {
              "value": 7,
              "code": "mg/dL",
              "system": "http://unitsofmeasure.org"
            }
          },
          {
            "high": {
              "value": 20,
              "code": "mg/dL",
              "system": "http://unitsofmeasure.org"
            }
          }
        ],
        "text": {
          "status": "generated",
          "div": "<div xmlns=\"http://www.w3.org/1999/xhtml\"><table class=\"hl7__eu__lab__report\"><tr><th>Test</th><th>04-May-2017</th><th>Reference&#xA0;Range</th><th>Unit</th></tr><tr><td>Urea nitrogen [Mass/volume] in Blood</td><td>7.5</td><td>7 - 20</td><td></td><td>mg/dL</td></tr></table></div>"
        },
        "status": "final",
        "subject": {
          "reference": "urn:uuid:20345907-d65d-460a-97a7-9535819f762b",
          "display": "Molly Jenkins"
        },
        "effectiveDateTime": "2017-05-04T14:42:11Z",
        "specimen": {
          "reference": "urn:uuid:a11510ae-634c-4571-8228-441a90da3bc1"
        }
      }
    },
    {
      "fullUrl": "urn:uuid:c7fb930d-31a5-419d-b7ea-f1e6fa6ff15c",
      "resource": {
        "resourceType": "Observation",
        "id": "c7fb930d-31a5-419d-b7ea-f1e6fa6ff15c",
        "meta": {
          "profile": [
            "http://hl7.eu/fhir/laboratory/StructureDefinition/Observation-resultslab-eu-lab"
          ]
        },
        "performer": [
          {
            "display": "The Central European Lab"
          }
        ],
        "category": [
          {
            "coding": [
              {
                "system": "http://terminology.hl7.org/CodeSystem/observation-category",
                "code": "laboratory"
              }
            ]
          }
        ],
        "code": {
          "coding": [
            {
              "code": "38483-4",
              "system": "http://loinc.org",
              "display": "Creatinine [Mass/volume] in Blood"
            }
          ],
          "text": "Creatinine [Mass/volume] in Blood"
        },
        "valueQuantity": {
          "system": "http://unitsofmeasure.org",
          "value": 2,
          "unit": "mg/dL",
          "code": "mg/dL"
        },
        "referenceRange": [
          {
            "low": {
              "value": 0.6,
              "code": "mg/dL",
              "system": "http://unitsofmeasure.org"
            }
          },
          {
            "high": {
              "value": 1.3,
              "code": "mg/dL",
              "system": "http://unitsofmeasure.org"
            }
          }
        ],
        "interpretation": [
          {
            "coding": [
              {
                "code": "H",
                "system": "http://terminology.hl7.org/CodeSystem/v3-ObservationInterpretation",
                "display": "High"
              }
            ]
          }
        ],
        "text": {
          "status": "generated",
          "div": "<div xmlns=\"http://www.w3.org/1999/xhtml\"><table class=\"hl7__eu__lab__report\"><tr><th>Test</th><th>04-May-2017</th><th>Reference&#xA0;Range</th><th>Unit</th></tr><tr><td>Creatinine [Mass/volume] in Blood</td><td>2.0</td><td>0.6 - 1.3</td><td>H</td><td>mg/dL</td></tr></table></div>"
        },
        "status": "final",
        "subject": {
          "reference": "urn:uuid:20345907-d65d-460a-97a7-9535819f762b",
          "display": "Molly Jenkins"
        },
        "effectiveDateTime": "2017-05-04T14:42:11Z",
        "specimen": {
          "reference": "urn:uuid:a11510ae-634c-4571-8228-441a90da3bc1"
        }
      }
    },
    {
      "fullUrl": "urn:uuid:9943e779-18eb-41e3-a656-c2bcfdb172ba",
      "resource": {
        "resourceType": "Observation",
        "id": "9943e779-18eb-41e3-a656-c2bcfdb172ba",
        "meta": {
          "profile": [
            "http://hl7.eu/fhir/laboratory/StructureDefinition/Observation-resultslab-eu-lab"
          ]
        },
        "performer": [
          {
            "display": "The Central European Lab"
          }
        ],
        "category": [
          {
            "coding": [
              {
                "system": "http://terminology.hl7.org/CodeSystem/observation-category",
                "code": "laboratory"
              }
            ]
          }
        ],
        "code": {
          "coding": [
            {
              "code": "49765-1",
              "system": "http://loinc.org",
              "display": "Calcium [Mass/volume] in Blood"
            }
          ],
          "text": "Calcium [Mass/volume] in Blood"
        },
        "valueQuantity": {
          "system": "http://unitsofmeasure.org",
          "value": 9.2,
          "unit": "mg/dL",
          "code": "mg/dL"
        },
        "referenceRange": [
          {
            "low": {
              "value": 8.6,
              "code": "mg/dL",
              "system": "http://unitsofmeasure.org"
            }
          },
          {
            "high": {
              "value": 10.4,
              "code": "mg/dL",
              "system": "http://unitsofmeasure.org"
            }
          }
        ],
        "text": {
          "status": "generated",
          "div": "<div xmlns=\"http://www.w3.org/1999/xhtml\"><table class=\"hl7__eu__lab__report\"><tr><th>Test</th><th>04-May-2017</th><th>Reference&#xA0;Range</th><th>Unit</th></tr><tr><td>Calcium [Mass/volume] in Blood</td><td>9.2</td><td>8.6 - 10.4</td><td></td><td>mg/dL</td></tr></table></div>"
        },
        "status": "final",
        "subject": {
          "reference": "urn:uuid:20345907-d65d-460a-97a7-9535819f762b",
          "display": "Molly Jenkins"
        },
        "effectiveDateTime": "2017-05-04T14:42:11Z",
        "specimen": {
          "reference": "urn:uuid:a11510ae-634c-4571-8228-441a90da3bc1"
        }
      }
    },
    {
      "fullUrl": "urn:uuid:a218087c-5a7e-425e-9df3-b5e46c7c2f1f",
      "resource": {
        "resourceType": "Observation",
        "id": "a218087c-5a7e-425e-9df3-b5e46c7c2f1f",
        "meta": {
          "profile": [
            "http://hl7.eu/fhir/laboratory/StructureDefinition/Observation-resultslab-eu-lab"
          ]
        },
        "performer": [
          {
            "display": "The Central European Lab"
          }
        ],
        "category": [
          {
            "coding": [
              {
                "system": "http://terminology.hl7.org/CodeSystem/observation-category",
                "code": "laboratory"
              }
            ]
          }
        ],
        "code": {
          "coding": [
            {
              "code": "2947-0",
              "system": "http://loinc.org",
              "display": "Sodium [Moles/volume] in Blood"
            }
          ],
          "text": "Sodium [Moles/volume] in Blood"
        },
        "valueQuantity": {
          "system": "http://unitsofmeasure.org",
          "value": 139.6,
          "unit": "mmol/L",
          "code": "mmol/L"
        },
        "referenceRange": [
          {
            "low": {
              "value": 135,
              "code": "mmol/L",
              "system": "http://unitsofmeasure.org"
            }
          },
          {
            "high": {
              "value": 145,
              "code": "mmol/L",
              "system": "http://unitsofmeasure.org"
            }
          }
        ],
        "text": {
          "status": "generated",
          "div": "<div xmlns=\"http://www.w3.org/1999/xhtml\"><table class=\"hl7__eu__lab__report\"><tr><th>Test</th><th>04-May-2017</th><th>Reference&#xA0;Range</th><th>Unit</th></tr><tr><td>Sodium [Moles/volume] in Blood</td><td>139.6</td><td>135 - 145</td><td></td><td>mmol/L</td></tr></table></div>"
        },
        "status": "final",
        "subject": {
          "reference": "urn:uuid:20345907-d65d-460a-97a7-9535819f762b",
          "display": "Molly Jenkins"
        },
        "effectiveDateTime": "2017-05-04T14:42:11Z",
        "specimen": {
          "reference": "urn:uuid:a11510ae-634c-4571-8228-441a90da3bc1"
        }
      }
    },
    {
      "fullUrl": "urn:uuid:173b7b6b-f5fc-438e-b6f2-1352cfd837e1",
      "resource": {
        "resourceType": "Observation",
        "id": "173b7b6b-f5fc-438e-b6f2-1352cfd837e1",
        "meta": {
          "profile": [
            "http://hl7.eu/fhir/laboratory/StructureDefinition/Observation-resultslab-eu-lab"
          ]
        },
        "performer": [
          {
            "display": "The Central European Lab"
          }
        ],
        "category": [
          {
            "coding": [
              {
                "system": "http://terminology.hl7.org/CodeSystem/observation-category",
                "code": "laboratory"
              }
            ]
          }
        ],
        "code": {
          "coding": [
            {
              "code": "6298-4",
              "system": "http://loinc.org",
              "display": "Potassium [Moles/volume] in Blood"
            }
          ],
          "text": "Potassium [Moles/volume] in Blood"
        },
        "valueQuantity": {
          "system": "http://unitsofmeasure.org",
          "value": 4.9,
          "unit": "mmol/L",
          "code": "mmol/L"
        },
        "referenceRange": [
          {
            "low": {
              "value": 3.5,
              "code": "mmol/L",
              "system": "http://unitsofmeasure.org"
            }
          },
          {
            "high": {
              "value": 5.1,
              "code": "mmol/L",
              "system": "http://unitsofmeasure.org"
            }
          }
        ],
        "text": {
          "status": "generated",
          "div": "<div xmlns=\"http://www.w3.org/1999/xhtml\"><table class=\"hl7__eu__lab__report\"><tr><th>Test</th><th>04-May-2017</th><th>Reference&#xA0;Range</th><th>Unit</th></tr><tr><td>Potassium [Moles/volume] in Blood</td><td>4.9</td><td>3.5 - 5.1</td><td></td><td>mmol/L</td></tr></table></div>"
        },
        "status": "final",
        "subject": {
          "reference": "urn:uuid:20345907-d65d-460a-97a7-9535819f762b",
          "display": "Molly Jenkins"
        },
        "effectiveDateTime": "2017-05-04T14:42:11Z",
        "specimen": {
          "reference": "urn:uuid:a11510ae-634c-4571-8228-441a90da3bc1"
        }
      }
    },
    {
      "fullUrl": "urn:uuid:0de792cf-7e9c-4f76-8400-eb9261716915",
      "resource": {
        "resourceType": "Observation",
        "id": "0de792cf-7e9c-4f76-8400-eb9261716915",
        "meta": {
          "profile": [
            "http://hl7.eu/fhir/laboratory/StructureDefinition/Observation-resultslab-eu-lab"
          ]
        },
        "performer": [
          {
            "display": "The Central European Lab"
          }
        ],
        "category": [
          {
            "coding": [
              {
                "system": "http://terminology.hl7.org/CodeSystem/observation-category",
                "code": "laboratory"
              }
            ]
          }
        ],
        "code": {
          "coding": [
            {
              "code": "2069-3",
              "system": "http://loinc.org",
              "display": "Chloride [Moles/volume] in Blood"
            }
          ],
          "text": "Chloride [Moles/volume] in Blood"
        },
        "valueQuantity": {
          "system": "http://unitsofmeasure.org",
          "value": 110,
          "unit": "mmol/L",
          "code": "mmol/L"
        },
        "referenceRange": [
          {
            "low": {
              "value": 98,
              "code": "mmol/L",
              "system": "http://unitsofmeasure.org"
            }
          },
          {
            "high": {
              "value": 110,
              "code": "mmol/L",
              "system": "http://unitsofmeasure.org"
            }
          }
        ],
        "text": {
          "status": "generated",
          "div": "<div xmlns=\"http://www.w3.org/1999/xhtml\"><table class=\"hl7__eu__lab__report\"><tr><th>Test</th><th>04-May-2017</th><th>Reference&#xA0;Range</th><th>Unit</th></tr><tr><td>Chloride [Moles/volume] in Blood</td><td>110.0</td><td>98 - 110</td><td></td><td>mmol/L</td></tr></table></div>"
        },
        "status": "final",
        "subject": {
          "reference": "urn:uuid:20345907-d65d-460a-97a7-9535819f762b",
          "display": "Molly Jenkins"
        },
        "effectiveDateTime": "2017-05-04T14:42:11Z",
        "specimen": {
          "reference": "urn:uuid:a11510ae-634c-4571-8228-441a90da3bc1"
        }
      }
    },
    {
      "fullUrl": "urn:uuid:307325c7-1342-496b-9e8b-35d75e0e3d43",
      "resource": {
        "resourceType": "Observation",
        "id": "307325c7-1342-496b-9e8b-35d75e0e3d43",
        "meta": {
          "profile": [
            "http://hl7.eu/fhir/laboratory/StructureDefinition/Observation-resultslab-eu-lab"
          ]
        },
        "performer": [
          {
            "display": "The Central European Lab"
          }
        ],
        "category": [
          {
            "coding": [
              {
                "system": "http://terminology.hl7.org/CodeSystem/observation-category",
                "code": "laboratory"
              }
            ]
          }
        ],
        "code": {
          "coding": [
            {
              "code": "20565-8",
              "system": "http://loinc.org",
              "display": "Carbon dioxide, total [Moles/volume] in Blood"
            }
          ],
          "text": "Carbon dioxide, total [Moles/volume] in Blood"
        },
        "valueQuantity": {
          "system": "http://unitsofmeasure.org",
          "value": 28.7,
          "unit": "mmol/L",
          "code": "mmol/L"
        },
        "referenceRange": [
          {
            "low": {
              "value": 22,
              "code": "mmol/L",
              "system": "http://unitsofmeasure.org"
            }
          },
          {
            "high": {
              "value": 29,
              "code": "mmol/L",
              "system": "http://unitsofmeasure.org"
            }
          }
        ],
        "text": {
          "status": "generated",
          "div": "<div xmlns=\"http://www.w3.org/1999/xhtml\"><table class=\"hl7__eu__lab__report\"><tr><th>Test</th><th>04-May-2017</th><th>Reference&#xA0;Range</th><th>Unit</th></tr><tr><td>Carbon dioxide, total [Moles/volume] in Blood</td><td>28.7</td><td>22 - 29</td><td></td><td>mmol/L</td></tr></table></div>"
        },
        "status": "final",
        "subject": {
          "reference": "urn:uuid:20345907-d65d-460a-97a7-9535819f762b",
          "display": "Molly Jenkins"
        },
        "effectiveDateTime": "2017-05-04T14:42:11Z",
        "specimen": {
          "reference": "urn:uuid:a11510ae-634c-4571-8228-441a90da3bc1"
        }
      }
    },
    {
      "fullUrl": "urn:uuid:7b785005-e8b3-464f-9b42-77831aec8e2c",
      "resource": {
        "resourceType": "Device",
        "id": "7b785005-e8b3-464f-9b42-77831aec8e2c",
        "deviceName": [
          {
            "name": "SYNDERAI Synthetic Generator",
            "type": "manufacturer-name"
          }
        ],
        "version": [
          {
            "value": "5.0"
          }
        ],
        "text": {
          "status": "generated",
          "div": "<div xmlns=\"http://www.w3.org/1999/xhtml\">SYNDERAI Synthetic Generator v5.0</div>"
        },
        "status": "active\"",
        "distinctIdentifier": "synderai-generator-50",
        "manufacturer": "SYNDERAI Project"
      }
    },
    {
      "fullUrl": "urn:uuid:6e1c7495-0f84-4297-b585-7d40b16f2290",
      "resource": {
        "resourceType": "Provenance",
        "id": "6e1c7495-0f84-4297-b585-7d40b16f2290",
        "target": [
          {
            "reference": "Patient/20345907-d65d-460a-97a7-9535819f762b"
          },
          {
            "reference": "Bundle/86be9888-7007-45f1-913f-e4f2eaab3fbc"
          },
          {
            "reference": "Composition/03355e00-33bd-4599-adfd-3fc86cc7e892"
          },
          {
            "reference": "PractitionerRole/d54017e7-cc4f-4fda-96aa-46940bef70b9"
          },
          {
            "reference": "Practitioner/f8db2da1-708b-4335-acd5-4adf330268e1"
          },
          {
            "reference": "PractitionerRole/78e2c674-5ee8-40c7-9ced-3e27aee3ee8b"
          },
          {
            "reference": "Organization/949960cb-6525-4016-852c-337d77e6207c"
          }
        ],
        "activity": {
          "text": "Synthetic Example Data Generation"
        },
        "policy": [
          "https://synderai.net/synderai-synthetic-data-policy"
        ],
        "agent": [
          {
            "type": {
              "text": "author"
            },
            "who": {
              "reference": "Device/7b785005-e8b3-464f-9b42-77831aec8e2c"
            }
          }
        ],
        "reason": [
          {
            "text": "Interoperability Testing and Training (non-clinical use)"
          }
        ],
        "text": {
          "status": "generated",
          "div": "<div xmlns=\"http://www.w3.org/1999/xhtml\">Provenance for SYNDERAI Synthetic Example Data Resource</div>"
        },
        "recorded": "2017-05-04T16:42:11Z"
      }
    },
    {
      "fullUrl": "urn:uuid:d54017e7-cc4f-4fda-96aa-46940bef70b9",
      "resource": {
        "resourceType": "PractitionerRole",
        "id": "d54017e7-cc4f-4fda-96aa-46940bef70b9",
        "meta": {
          "profile": [
            "http://hl7.eu/fhir/base/StructureDefinition/practitionerRole-eu"
          ]
        },
        "text": {
          "status": "generated",
          "div": "<div xmlns=\"http://www.w3.org/1999/xhtml\">Laboratory Role Id: d54017e7-cc4f-4fda-96aa-46940bef70b9</div>"
        },
        "practitioner": {
          "reference": "urn:uuid:f8db2da1-708b-4335-acd5-4adf330268e1"
        }
      }
    },
    {
      "fullUrl": "urn:uuid:f8db2da1-708b-4335-acd5-4adf330268e1",
      "resource": {
        "resourceType": "Practitioner",
        "id": "f8db2da1-708b-4335-acd5-4adf330268e1",
        "meta": {
          "profile": [
            "http://hl7.eu/fhir/base/StructureDefinition/practitioner-eu"
          ]
        },
        "identifier": [
          {
            "assigner": {
              "display": "HL7 Europe"
            },
            "system": "urn:oid:2.16.840.1.113883.2.51.999",
            "value": "c22ccb13-9bbc-44b4-b0a5-08a16b9baffc"
          }
        ],
        "name": [
          {
            "prefix": [
              "dr"
            ],
            "given": [
              "Ex"
            ],
            "family": "Ample"
          }
        ],
        "address": [
          {
            "line": [
              "Laboratoire Central Européenne",
              "Boulevard du Jardin Botanique 32"
            ],
            "postalCode": "1000",
            "city": "Brussels",
            "country": "Belgium"
          }
        ],
        "text": {
          "status": "generated",
          "div": "<div xmlns=\"http://www.w3.org/1999/xhtml\">Laboratory: Laboratoire Central Européenne, 1000 Brussels, Belgium</div>"
        }
      }
    }
  ],
  "type": "document",
  "timestamp": "2017-05-04T16:42:11Z"
}
