{
  "resourceType": "Bundle",
  "id": "f135bfab-03b2-4083-a49f-40ff92266e0c",
  "meta": {
    "profile": [
      "http://hl7.eu/fhir/laboratory/StructureDefinition/Bundle-eu-lab"
    ]
  },
  "identifier": {
    "assigner": {
      "display": "HL7 Europe"
    },
    "system": "urn:oid:2.16.840.1.113883.2.51.999",
    "value": "b681a88a-1b4d-4a27-a0da-27ad15a19856"
  },
  "entry": [
    {
      "fullUrl": "urn:uuid:7014889b-9a61-413c-b008-8ff59e41bf16",
      "resource": {
        "resourceType": "Composition",
        "id": "7014889b-9a61-413c-b008-8ff59e41bf16",
        "meta": {
          "profile": [
            "http://hl7.eu/fhir/laboratory/StructureDefinition/Composition-eu-lab"
          ]
        },
        "identifier": {
          "assigner": {
            "display": "HL7 Europe"
          },
          "system": "urn:oid:2.16.840.1.113883.2.51.999",
          "value": "828224b7-3281-4544-9f25-6ffcca0d5378"
        },
        "author": [
          {
            "reference": "urn:uuid:c5e78ec1-342a-4688-ad8d-cff23b98e810"
          }
        ],
        "category": [
          {
            "coding": [
              {
                "code": "26436-6",
                "system": "http://loinc.org",
                "display": "Laboratory studies (set)"
              }
            ]
          }
        ],
        "type": {
          "coding": [
            {
              "code": "11502-2",
              "system": "http://loinc.org",
              "display": "Laboratory report"
            }
          ],
          "text": "Laboratory Report"
        },
        "section": [
          {
            "code": {
              "coding": [
                {
                  "code": "26436-6",
                  "system": "http://loinc.org",
                  "display": "Laboratory studies (set)"
                }
              ],
              "text": "Laboratory studies"
            },
            "section": [
              {
                "code": {
                  "coding": [
                    {
                      "code": "$18723-7",
                      "system": "http://loinc.org",
                      "display": "Hematology studies (set)"
                    }
                  ],
                  "text": "Hematology"
                },
                "entry": [
                  {
                    "reference": "urn:uuid:5cc3bbb0-8c5a-41ff-a286-a44a12330013"
                  },
                  {
                    "reference": "urn:uuid:49afa452-6185-446b-bb37-dfe9be273cac"
                  },
                  {
                    "reference": "urn:uuid:fcb65a55-fd5f-418c-8cac-33441784f015"
                  },
                  {
                    "reference": "urn:uuid:e6d95eff-c0aa-4926-ba15-10557f083fc1"
                  },
                  {
                    "reference": "urn:uuid:8b2a27a8-46eb-4f32-abcb-a285e12a83e8"
                  },
                  {
                    "reference": "urn:uuid:2233fe04-418a-4c5d-a7b2-4b408ef3ad92"
                  },
                  {
                    "reference": "urn:uuid:fd3741ca-f06d-48bf-8747-4bb7c149c731"
                  },
                  {
                    "reference": "urn:uuid:6ef28f4d-9045-47b6-8f12-5a399385b2cc"
                  },
                  {
                    "reference": "urn:uuid:c0793caf-787d-41a5-aa56-daaa19f22faa"
                  },
                  {
                    "reference": "urn:uuid:2d48bd66-16e5-43e2-9e07-65e796b4f668"
                  },
                  {
                    "reference": "urn:uuid:dbe219fd-a2c5-4b2a-a775-432962ee9e74"
                  }
                ],
                "text": {
                  "status": "generated",
                  "div": "<div xmlns=\"http://www.w3.org/1999/xhtml\"><h3>Hematology</h3><table class=\"hl7__eu__lab__report\"><thead><tr><th>Test</th><th>09-DEC-2018</th><th>Reference&#xA0;Range</th><th>Unit</th></tr></thead><tbody><tr><td>Leukocytes [#/volume] in Blood by Automated count</td><td>4.6</td><td>3.4 - 10.6</td><td>10*3/uL</td></tr><tr><td>Erythrocytes [#/volume] in Blood by Automated count</td><td><strong>4.0 L</strong></td><td>4.2 - 6.2</td><td>10*6/uL</td></tr><tr><td>Hemoglobin [Mass/volume] in Blood</td><td><strong>13.2 L</strong></td><td>13.8 - 17.5</td><td>g/dL</td></tr><tr><td>Hematocrit [Volume Fraction] of Blood by Automated count</td><td>42.0</td><td>38 - 50</td><td>%</td></tr><tr><td>MCV [Entitic volume] by Automated count</td><td>92.2</td><td>76 - 98</td><td>fL</td></tr><tr><td>MCH [Entitic mass] by Automated count</td><td>29.2</td><td>27 - 34</td><td>pg</td></tr><tr><td>MCHC [Mass/volume] by Automated count</td><td>33.2</td><td>31 - 37</td><td>g/dL</td></tr><tr><td>Erythrocyte distribution width [Entitic volume] by Automated count</td><td>42.7</td><td>36 - 56</td><td>fL</td></tr><tr><td>Platelets [#/volume] in Blood by Automated count</td><td>166.9</td><td>150 - 363</td><td>10*3/uL</td></tr><tr><td>Platelet distribution width [Entitic volume] in Blood by Automated count</td><td><strong>261.8 H</strong></td><td>13.4 - 17.4</td><td>fL</td></tr><tr><td>Platelet mean volume [Entitic volume] in Blood by Automated count</td><td>12.1</td><td>7.2 - 13.5</td><td>fL</td></tr></tbody></table></div>"
                },
                "title": "Hematology"
              }
            ],
            "title": "Laboratory Report"
          },
          {
            "text": {
              "status": "generated",
              "div": "<div xmlns=\"http://www.w3.org/1999/xhtml\"><h3>Annotation</h3><table class=\"hl7__eu__lab__report\"><tr><th>Conclusion and Recommendations based on this report and previous findings known to us</th></tr><tr><td>The patient shows mild normocytic, normochromic anemia (low erythrocytes and hemoglobin, normal MCV/MCH), with normal leukocyte and platelet counts. The markedly elevated platelet distribution width may indicate increased platelet size variability, possibly reflecting reactive changes. No acute hematological abnormalities detected; recommend clinical correlation and monitoring for anemia etiology.</td></tr></table></div>"
            },
            "code": {
              "coding": [
                {
                  "system": "http://loinc.org",
                  "code": "48767-8",
                  "display": "Annotation comment"
                }
              ]
            },
            "title": "Annotation comment"
          }
        ],
        "status": "final",
        "subject": {
          "reference": "urn:uuid:b575d485-27fa-43d3-935f-e0b5a4c982cb",
          "display": "Gastone Farnese"
        },
        "date": "2018-12-09T00:10:08Z",
        "title": "Laboratory Report",
        "confidentiality": "N"
      }
    },
    {
      "fullUrl": "urn:uuid:9183fa0f-cf14-485f-bba6-659b92cc8909",
      "resource": {
        "resourceType": "DiagnosticReport",
        "id": "9183fa0f-cf14-485f-bba6-659b92cc8909",
        "meta": {
          "profile": [
            "http://hl7.eu/fhir/laboratory/StructureDefinition/DiagnosticReport-eu-lab"
          ]
        },
        "identifier": [
          {
            "assigner": {
              "display": "HL7 Europe"
            },
            "system": "urn:oid:2.16.840.1.113883.2.51.999",
            "value": "d3a54474-78c8-4ec5-b283-217d33cdf000"
          }
        ],
        "extension": [
          {
            "url": "http://hl7.org/fhir/5.0/StructureDefinition/extension-DiagnosticReport.composition",
            "valueReference": {
              "reference": "urn:uuid:828224b7-3281-4544-9f25-6ffcca0d5378"
            }
          }
        ],
        "category": [
          {
            "coding": [
              {
                "code": "26436-6",
                "system": "http://loinc.org",
                "display": "Laboratory studies (set)"
              }
            ]
          }
        ],
        "specimen": [
          {
            "reference": "urn:uuid:fee97598-ae68-4f1c-9673-dcbd0f9824b0"
          },
          {
            "reference": "urn:uuid:fee97598-ae68-4f1c-9673-dcbd0f9824b0"
          }
        ],
        "result": [
          {
            "reference": "urn:uuid:5cc3bbb0-8c5a-41ff-a286-a44a12330013"
          },
          {
            "reference": "urn:uuid:49afa452-6185-446b-bb37-dfe9be273cac"
          },
          {
            "reference": "urn:uuid:fcb65a55-fd5f-418c-8cac-33441784f015"
          },
          {
            "reference": "urn:uuid:e6d95eff-c0aa-4926-ba15-10557f083fc1"
          },
          {
            "reference": "urn:uuid:8b2a27a8-46eb-4f32-abcb-a285e12a83e8"
          },
          {
            "reference": "urn:uuid:2233fe04-418a-4c5d-a7b2-4b408ef3ad92"
          },
          {
            "reference": "urn:uuid:fd3741ca-f06d-48bf-8747-4bb7c149c731"
          },
          {
            "reference": "urn:uuid:6ef28f4d-9045-47b6-8f12-5a399385b2cc"
          },
          {
            "reference": "urn:uuid:c0793caf-787d-41a5-aa56-daaa19f22faa"
          },
          {
            "reference": "urn:uuid:2d48bd66-16e5-43e2-9e07-65e796b4f668"
          },
          {
            "reference": "urn:uuid:dbe219fd-a2c5-4b2a-a775-432962ee9e74"
          }
        ],
        "status": "registered",
        "code": {
          "coding": [
            {
              "code": "11502-2",
              "system": "http://loinc.org",
              "display": "Laboratory report"
            }
          ]
        },
        "subject": {
          "reference": "urn:uuid:b575d485-27fa-43d3-935f-e0b5a4c982cb",
          "display": "Gastone Farnese"
        }
      }
    },
    {
      "fullUrl": "urn:uuid:b575d485-27fa-43d3-935f-e0b5a4c982cb",
      "resource": {
        "resourceType": "Patient",
        "id": "b575d485-27fa-43d3-935f-e0b5a4c982cb",
        "meta": {
          "security": [
            {
              "system": "http://terminology.hl7.org/CodeSystem/v3-ActReason",
              "code": "HTEST"
            },
            {
              "system": "http://terminology.hl7.org/CodeSystem/v3-ActReason",
              "code": "TRAIN"
            }
          ],
          "tag": [
            {
              "system": "https://synderai.net/fhir/CodeSystem/tags",
              "code": "synthetic",
              "display": "SYNDERAI Synthetic data"
            }
          ],
          "profile": [
            "http://hl7.eu/fhir/base/StructureDefinition/patient-eu-core"
          ]
        },
        "identifier": [
          {
            "type": {
              "coding": [
                {
                  "code": "PT",
                  "system": "http://terminology.hl7.org/CodeSystem/v2-0203"
                }
              ]
            },
            "system": "http://ec.europa.eu/identifier/eci",
            "value": "9783-008691-0"
          },
          {
            "type": {
              "coding": [
                {
                  "code": "MR",
                  "system": "http://terminology.hl7.org/CodeSystem/v2-0203"
                }
              ]
            },
            "system": "http://local.setting.eu/identifier",
            "value": "3a83b0c2-9162-b4ed-57ec-07c0d12b05d8"
          }
        ],
        "name": [
          {
            "family": "Farnese"
          },
          {
            "given": [
              "Gastone"
            ]
          },
          {
            "text": "Gastone Farnese"
          }
        ],
        "address": [
          {
            "line": [
              "Rotonda Verdone, 9 Appartamento 6"
            ],
            "use": "home",
            "type": "physical",
            "postalCode": "35030",
            "city": "Galzignano Terme",
            "country": "Italy"
          }
        ],
        "telecom": [
          {
            "system": "phone",
            "value": "+39 350079040"
          }
        ],
        "extension": [
          {
            "url": "http://hl7.org/fhir/StructureDefinition/patient-nationality",
            "valueCodeableConcept": {
              "coding": [
                {
                  "code": "IT",
                  "system": "http://hl7.org/fhir/ValueSet/country"
                }
              ]
            }
          }
        ],
        "text": {
          "status": "generated",
          "div": "<div xmlns=\"http://www.w3.org/1999/xhtml\"><table class=\"hl7__ips\"><tr><td>Gastone Farnese</td><td>male</td><td>16-Apr-1939</td></tr></table></div>"
        },
        "gender": "male",
        "birthDate": "1939-04-16"
      }
    },
    {
      "fullUrl": "urn:uuid:c896124c-5c25-4c13-8ebf-aa77fdaa1c43",
      "resource": {
        "resourceType": "ServiceRequest",
        "id": "c896124c-5c25-4c13-8ebf-aa77fdaa1c43",
        "meta": {
          "profile": [
            "http://hl7.eu/fhir/laboratory/StructureDefinition/ServiceRequest-eu-lab"
          ]
        },
        "identifier": [
          {
            "system": "http://example.org",
            "value": "b129b7f0-65c4-4f7c-a945-fbcaaf59fcc1"
          }
        ],
        "specimen": [
          {
            "reference": "urn:uuid:fee97598-ae68-4f1c-9673-dcbd0f9824b0"
          }
        ],
        "reasonCode": [
          {
            "coding": [
              {
                "code": "414545008",
                "system": "http://snomed.info/sct",
                "display": "Ischemic heart disease"
              }
            ]
          }
        ],
        "status": "active",
        "intent": "order",
        "code": {
          "coding": [
            {
              "code": "108252007",
              "system": "http://snomed.info/sct",
              "display": "Laboratory procedure"
            }
          ]
        },
        "subject": {
          "reference": "urn:uuid:b575d485-27fa-43d3-935f-e0b5a4c982cb",
          "display": "Gastone Farnese"
        },
        "requester": {
          "reference": "urn:uuid:78cdcb22-558f-4cc3-9e01-76764f4b1c8d"
        }
      }
    },
    {
      "fullUrl": "urn:uuid:78cdcb22-558f-4cc3-9e01-76764f4b1c8d",
      "resource": {
        "resourceType": "PractitionerRole",
        "id": "78cdcb22-558f-4cc3-9e01-76764f4b1c8d",
        "meta": {
          "profile": [
            "http://hl7.eu/fhir/base/StructureDefinition/practitionerRole-eu"
          ]
        },
        "text": {
          "status": "generated",
          "div": "<div xmlns=\"http://www.w3.org/1999/xhtml\">Provider Role Id: 78cdcb22-558f-4cc3-9e01-76764f4b1c8d</div>"
        },
        "organization": {
          "reference": "urn:uuid:cf570768-1762-4f3f-b3d2-018abc16443b"
        }
      }
    },
    {
      "fullUrl": "urn:uuid:cf570768-1762-4f3f-b3d2-018abc16443b",
      "resource": {
        "resourceType": "Organization",
        "id": "cf570768-1762-4f3f-b3d2-018abc16443b",
        "meta": {
          "profile": [
            "http://hl7.eu/fhir/base/StructureDefinition/organization-eu"
          ]
        },
        "identifier": [
          {
            "assigner": {
              "display": "HL7 Europe"
            },
            "system": "urn:oid:2.16.840.1.113883.2.51.999",
            "value": "82676e5a-f447-48be-aa94-9cf99d2ea2f7"
          }
        ],
        "address": [
          {
            "line": [
              "Via Albere nan"
            ],
            "city": "Este",
            "postalCode": "35042",
            "country": "Italy"
          }
        ],
        "text": {
          "status": "generated",
          "div": "<div xmlns=\"http://www.w3.org/1999/xhtml\">Provider Organization: Ospedali Riuniti Padova Sud &quot;Madre Teresa di Calcutta&quot;</div>"
        },
        "name": "Ospedali Riuniti Padova Sud &quot;Madre Teresa di Calcutta&quot;"
      }
    },
    {
      "fullUrl": "urn:uuid:fee97598-ae68-4f1c-9673-dcbd0f9824b0",
      "resource": {
        "resourceType": "Specimen",
        "id": "fee97598-ae68-4f1c-9673-dcbd0f9824b0",
        "meta": {
          "profile": [
            "http://hl7.eu/fhir/laboratory/StructureDefinition/Specimen-eu-lab"
          ]
        },
        "collection": {
          "collectedDateTime": "2018-12-08"
        },
        "text": {
          "status": "generated",
          "div": "<div xmlns=\"http://www.w3.org/1999/xhtml\"><table class=\"hl7__eu__lab__report\"><tr><th>Specimen</th><th>Collection Date</th></tr><tr><td>Whole blood specimen (specimen)</td><td><span class=\"nb\">08-Dec-2018</span></td></tr></table></div>"
        },
        "type": {
          "coding": [
            {
              "code": "258580003",
              "system": "http://snomed.info/sct",
              "display": "Whole blood specimen (specimen)"
            }
          ]
        }
      }
    },
    {
      "fullUrl": "urn:uuid:fee97598-ae68-4f1c-9673-dcbd0f9824b0",
      "resource": {
        "resourceType": "Specimen",
        "id": "fee97598-ae68-4f1c-9673-dcbd0f9824b0",
        "meta": {
          "profile": [
            "http://hl7.eu/fhir/laboratory/StructureDefinition/Specimen-eu-lab"
          ]
        },
        "collection": {
          "collectedDateTime": "2018-12-08"
        },
        "text": {
          "status": "generated",
          "div": "<div xmlns=\"http://www.w3.org/1999/xhtml\"><table class=\"hl7__eu__lab__report\"><tr><th>Specimen</th><th>Collection Date</th></tr><tr><td>Whole blood specimen (specimen)</td><td><span class=\"nb\">08-Dec-2018</span></td></tr></table></div>"
        },
        "type": {
          "coding": [
            {
              "code": "258580003",
              "system": "http://snomed.info/sct",
              "display": "Whole blood specimen (specimen)"
            }
          ]
        }
      }
    },
    {
      "fullUrl": "urn:uuid:5cc3bbb0-8c5a-41ff-a286-a44a12330013",
      "resource": {
        "resourceType": "Observation",
        "id": "5cc3bbb0-8c5a-41ff-a286-a44a12330013",
        "meta": {
          "profile": [
            "http://hl7.eu/fhir/laboratory/StructureDefinition/Observation-resultslab-eu-lab"
          ]
        },
        "performer": [
          {
            "display": "The Central European Lab"
          }
        ],
        "category": [
          {
            "coding": [
              {
                "system": "http://terminology.hl7.org/CodeSystem/observation-category",
                "code": "laboratory"
              }
            ]
          }
        ],
        "code": {
          "coding": [
            {
              "code": "6690-2",
              "system": "http://loinc.org",
              "display": "Leukocytes [#/volume] in Blood by Automated count"
            }
          ],
          "text": "Leukocytes [#/volume] in Blood by Automated count"
        },
        "valueQuantity": {
          "system": "http://unitsofmeasure.org",
          "value": 4.6,
          "unit": "10*3/uL",
          "code": "10*3/uL"
        },
        "referenceRange": [
          {
            "low": {
              "value": 3.4,
              "code": "10*3/uL",
              "system": "http://unitsofmeasure.org"
            }
          },
          {
            "high": {
              "value": 10.6,
              "code": "10*3/uL",
              "system": "http://unitsofmeasure.org"
            }
          }
        ],
        "text": {
          "status": "generated",
          "div": "<div xmlns=\"http://www.w3.org/1999/xhtml\"><table class=\"hl7__eu__lab__report\"><tr><th>Test</th><th>09-Dec-2018</th><th>Reference&#xA0;Range</th><th>Unit</th></tr><tr><td>Leukocytes [#/volume] in Blood by Automated count</td><td>4.6</td><td>3.4 - 10.6</td><td></td><td>10*3/uL</td></tr></table></div>"
        },
        "status": "final",
        "subject": {
          "reference": "urn:uuid:b575d485-27fa-43d3-935f-e0b5a4c982cb",
          "display": "Gastone Farnese"
        },
        "effectiveDateTime": "2018-12-08T23:10:08Z",
        "specimen": {
          "reference": "urn:uuid:fee97598-ae68-4f1c-9673-dcbd0f9824b0"
        }
      }
    },
    {
      "fullUrl": "urn:uuid:49afa452-6185-446b-bb37-dfe9be273cac",
      "resource": {
        "resourceType": "Observation",
        "id": "49afa452-6185-446b-bb37-dfe9be273cac",
        "meta": {
          "profile": [
            "http://hl7.eu/fhir/laboratory/StructureDefinition/Observation-resultslab-eu-lab"
          ]
        },
        "performer": [
          {
            "display": "The Central European Lab"
          }
        ],
        "category": [
          {
            "coding": [
              {
                "system": "http://terminology.hl7.org/CodeSystem/observation-category",
                "code": "laboratory"
              }
            ]
          }
        ],
        "code": {
          "coding": [
            {
              "code": "789-8",
              "system": "http://loinc.org",
              "display": "Erythrocytes [#/volume] in Blood by Automated count"
            }
          ],
          "text": "Erythrocytes [#/volume] in Blood by Automated count"
        },
        "valueQuantity": {
          "system": "http://unitsofmeasure.org",
          "value": 4,
          "unit": "10*6/uL",
          "code": "10*6/uL"
        },
        "referenceRange": [
          {
            "low": {
              "value": 4.2,
              "code": "10*6/uL",
              "system": "http://unitsofmeasure.org"
            }
          },
          {
            "high": {
              "value": 6.2,
              "code": "10*6/uL",
              "system": "http://unitsofmeasure.org"
            }
          }
        ],
        "interpretation": [
          {
            "coding": [
              {
                "code": "L",
                "system": "http://terminology.hl7.org/CodeSystem/v3-ObservationInterpretation",
                "display": "Low"
              }
            ]
          }
        ],
        "text": {
          "status": "generated",
          "div": "<div xmlns=\"http://www.w3.org/1999/xhtml\"><table class=\"hl7__eu__lab__report\"><tr><th>Test</th><th>09-Dec-2018</th><th>Reference&#xA0;Range</th><th>Unit</th></tr><tr><td>Erythrocytes [#/volume] in Blood by Automated count</td><td>4.0</td><td>4.2 - 6.2</td><td>L</td><td>10*6/uL</td></tr></table></div>"
        },
        "status": "final",
        "subject": {
          "reference": "urn:uuid:b575d485-27fa-43d3-935f-e0b5a4c982cb",
          "display": "Gastone Farnese"
        },
        "effectiveDateTime": "2018-12-08T23:10:08Z",
        "specimen": {
          "reference": "urn:uuid:fee97598-ae68-4f1c-9673-dcbd0f9824b0"
        }
      }
    },
    {
      "fullUrl": "urn:uuid:fcb65a55-fd5f-418c-8cac-33441784f015",
      "resource": {
        "resourceType": "Observation",
        "id": "fcb65a55-fd5f-418c-8cac-33441784f015",
        "meta": {
          "profile": [
            "http://hl7.eu/fhir/laboratory/StructureDefinition/Observation-resultslab-eu-lab"
          ]
        },
        "performer": [
          {
            "display": "The Central European Lab"
          }
        ],
        "category": [
          {
            "coding": [
              {
                "system": "http://terminology.hl7.org/CodeSystem/observation-category",
                "code": "laboratory"
              }
            ]
          }
        ],
        "code": {
          "coding": [
            {
              "code": "718-7",
              "system": "http://loinc.org",
              "display": "Hemoglobin [Mass/volume] in Blood"
            }
          ],
          "text": "Hemoglobin [Mass/volume] in Blood"
        },
        "valueQuantity": {
          "system": "http://unitsofmeasure.org",
          "value": 13.2,
          "unit": "g/dL",
          "code": "g/dL"
        },
        "referenceRange": [
          {
            "low": {
              "value": 13.8,
              "code": "g/dL",
              "system": "http://unitsofmeasure.org"
            }
          },
          {
            "high": {
              "value": 17.5,
              "code": "g/dL",
              "system": "http://unitsofmeasure.org"
            }
          }
        ],
        "interpretation": [
          {
            "coding": [
              {
                "code": "L",
                "system": "http://terminology.hl7.org/CodeSystem/v3-ObservationInterpretation",
                "display": "Low"
              }
            ]
          }
        ],
        "text": {
          "status": "generated",
          "div": "<div xmlns=\"http://www.w3.org/1999/xhtml\"><table class=\"hl7__eu__lab__report\"><tr><th>Test</th><th>09-Dec-2018</th><th>Reference&#xA0;Range</th><th>Unit</th></tr><tr><td>Hemoglobin [Mass/volume] in Blood</td><td>13.2</td><td>13.8 - 17.5</td><td>L</td><td>g/dL</td></tr></table></div>"
        },
        "status": "final",
        "subject": {
          "reference": "urn:uuid:b575d485-27fa-43d3-935f-e0b5a4c982cb",
          "display": "Gastone Farnese"
        },
        "effectiveDateTime": "2018-12-08T23:10:08Z",
        "specimen": {
          "reference": "urn:uuid:fee97598-ae68-4f1c-9673-dcbd0f9824b0"
        }
      }
    },
    {
      "fullUrl": "urn:uuid:e6d95eff-c0aa-4926-ba15-10557f083fc1",
      "resource": {
        "resourceType": "Observation",
        "id": "e6d95eff-c0aa-4926-ba15-10557f083fc1",
        "meta": {
          "profile": [
            "http://hl7.eu/fhir/laboratory/StructureDefinition/Observation-resultslab-eu-lab"
          ]
        },
        "performer": [
          {
            "display": "The Central European Lab"
          }
        ],
        "category": [
          {
            "coding": [
              {
                "system": "http://terminology.hl7.org/CodeSystem/observation-category",
                "code": "laboratory"
              }
            ]
          }
        ],
        "code": {
          "coding": [
            {
              "code": "4544-3",
              "system": "http://loinc.org",
              "display": "Hematocrit [Volume Fraction] of Blood by Automated count"
            }
          ],
          "text": "Hematocrit [Volume Fraction] of Blood by Automated count"
        },
        "valueQuantity": {
          "system": "http://unitsofmeasure.org",
          "value": 42,
          "unit": "%",
          "code": "%"
        },
        "referenceRange": [
          {
            "low": {
              "value": 38,
              "code": "%",
              "system": "http://unitsofmeasure.org"
            }
          },
          {
            "high": {
              "value": 50,
              "code": "%",
              "system": "http://unitsofmeasure.org"
            }
          }
        ],
        "text": {
          "status": "generated",
          "div": "<div xmlns=\"http://www.w3.org/1999/xhtml\"><table class=\"hl7__eu__lab__report\"><tr><th>Test</th><th>09-Dec-2018</th><th>Reference&#xA0;Range</th><th>Unit</th></tr><tr><td>Hematocrit [Volume Fraction] of Blood by Automated count</td><td>42.0</td><td>38 - 50</td><td></td><td>%</td></tr></table></div>"
        },
        "status": "final",
        "subject": {
          "reference": "urn:uuid:b575d485-27fa-43d3-935f-e0b5a4c982cb",
          "display": "Gastone Farnese"
        },
        "effectiveDateTime": "2018-12-08T23:10:08Z",
        "specimen": {
          "reference": "urn:uuid:fee97598-ae68-4f1c-9673-dcbd0f9824b0"
        }
      }
    },
    {
      "fullUrl": "urn:uuid:8b2a27a8-46eb-4f32-abcb-a285e12a83e8",
      "resource": {
        "resourceType": "Observation",
        "id": "8b2a27a8-46eb-4f32-abcb-a285e12a83e8",
        "meta": {
          "profile": [
            "http://hl7.eu/fhir/laboratory/StructureDefinition/Observation-resultslab-eu-lab"
          ]
        },
        "performer": [
          {
            "display": "The Central European Lab"
          }
        ],
        "category": [
          {
            "coding": [
              {
                "system": "http://terminology.hl7.org/CodeSystem/observation-category",
                "code": "laboratory"
              }
            ]
          }
        ],
        "code": {
          "coding": [
            {
              "code": "787-2",
              "system": "http://loinc.org",
              "display": "MCV [Entitic volume] by Automated count"
            }
          ],
          "text": "MCV [Entitic volume] by Automated count"
        },
        "valueQuantity": {
          "system": "http://unitsofmeasure.org",
          "value": 92.2,
          "unit": "fL",
          "code": "fL"
        },
        "referenceRange": [
          {
            "low": {
              "value": 76,
              "code": "fL",
              "system": "http://unitsofmeasure.org"
            }
          },
          {
            "high": {
              "value": 98,
              "code": "fL",
              "system": "http://unitsofmeasure.org"
            }
          }
        ],
        "text": {
          "status": "generated",
          "div": "<div xmlns=\"http://www.w3.org/1999/xhtml\"><table class=\"hl7__eu__lab__report\"><tr><th>Test</th><th>09-Dec-2018</th><th>Reference&#xA0;Range</th><th>Unit</th></tr><tr><td>MCV [Entitic volume] by Automated count</td><td>92.2</td><td>76 - 98</td><td></td><td>fL</td></tr></table></div>"
        },
        "status": "final",
        "subject": {
          "reference": "urn:uuid:b575d485-27fa-43d3-935f-e0b5a4c982cb",
          "display": "Gastone Farnese"
        },
        "effectiveDateTime": "2018-12-08T23:10:08Z",
        "specimen": {
          "reference": "urn:uuid:fee97598-ae68-4f1c-9673-dcbd0f9824b0"
        }
      }
    },
    {
      "fullUrl": "urn:uuid:2233fe04-418a-4c5d-a7b2-4b408ef3ad92",
      "resource": {
        "resourceType": "Observation",
        "id": "2233fe04-418a-4c5d-a7b2-4b408ef3ad92",
        "meta": {
          "profile": [
            "http://hl7.eu/fhir/laboratory/StructureDefinition/Observation-resultslab-eu-lab"
          ]
        },
        "performer": [
          {
            "display": "The Central European Lab"
          }
        ],
        "category": [
          {
            "coding": [
              {
                "system": "http://terminology.hl7.org/CodeSystem/observation-category",
                "code": "laboratory"
              }
            ]
          }
        ],
        "code": {
          "coding": [
            {
              "code": "785-6",
              "system": "http://loinc.org",
              "display": "MCH [Entitic mass] by Automated count"
            }
          ],
          "text": "MCH [Entitic mass] by Automated count"
        },
        "valueQuantity": {
          "system": "http://unitsofmeasure.org",
          "value": 29.2,
          "unit": "pg",
          "code": "pg"
        },
        "referenceRange": [
          {
            "low": {
              "value": 27,
              "code": "pg",
              "system": "http://unitsofmeasure.org"
            }
          },
          {
            "high": {
              "value": 34,
              "code": "pg",
              "system": "http://unitsofmeasure.org"
            }
          }
        ],
        "text": {
          "status": "generated",
          "div": "<div xmlns=\"http://www.w3.org/1999/xhtml\"><table class=\"hl7__eu__lab__report\"><tr><th>Test</th><th>09-Dec-2018</th><th>Reference&#xA0;Range</th><th>Unit</th></tr><tr><td>MCH [Entitic mass] by Automated count</td><td>29.2</td><td>27 - 34</td><td></td><td>pg</td></tr></table></div>"
        },
        "status": "final",
        "subject": {
          "reference": "urn:uuid:b575d485-27fa-43d3-935f-e0b5a4c982cb",
          "display": "Gastone Farnese"
        },
        "effectiveDateTime": "2018-12-08T23:10:08Z",
        "specimen": {
          "reference": "urn:uuid:fee97598-ae68-4f1c-9673-dcbd0f9824b0"
        }
      }
    },
    {
      "fullUrl": "urn:uuid:fd3741ca-f06d-48bf-8747-4bb7c149c731",
      "resource": {
        "resourceType": "Observation",
        "id": "fd3741ca-f06d-48bf-8747-4bb7c149c731",
        "meta": {
          "profile": [
            "http://hl7.eu/fhir/laboratory/StructureDefinition/Observation-resultslab-eu-lab"
          ]
        },
        "performer": [
          {
            "display": "The Central European Lab"
          }
        ],
        "category": [
          {
            "coding": [
              {
                "system": "http://terminology.hl7.org/CodeSystem/observation-category",
                "code": "laboratory"
              }
            ]
          }
        ],
        "code": {
          "coding": [
            {
              "code": "786-4",
              "system": "http://loinc.org",
              "display": "MCHC [Mass/volume] by Automated count"
            }
          ],
          "text": "MCHC [Mass/volume] by Automated count"
        },
        "valueQuantity": {
          "system": "http://unitsofmeasure.org",
          "value": 33.2,
          "unit": "g/dL",
          "code": "g/dL"
        },
        "referenceRange": [
          {
            "low": {
              "value": 31,
              "code": "g/dL",
              "system": "http://unitsofmeasure.org"
            }
          },
          {
            "high": {
              "value": 37,
              "code": "g/dL",
              "system": "http://unitsofmeasure.org"
            }
          }
        ],
        "text": {
          "status": "generated",
          "div": "<div xmlns=\"http://www.w3.org/1999/xhtml\"><table class=\"hl7__eu__lab__report\"><tr><th>Test</th><th>09-Dec-2018</th><th>Reference&#xA0;Range</th><th>Unit</th></tr><tr><td>MCHC [Mass/volume] by Automated count</td><td>33.2</td><td>31 - 37</td><td></td><td>g/dL</td></tr></table></div>"
        },
        "status": "final",
        "subject": {
          "reference": "urn:uuid:b575d485-27fa-43d3-935f-e0b5a4c982cb",
          "display": "Gastone Farnese"
        },
        "effectiveDateTime": "2018-12-08T23:10:08Z",
        "specimen": {
          "reference": "urn:uuid:fee97598-ae68-4f1c-9673-dcbd0f9824b0"
        }
      }
    },
    {
      "fullUrl": "urn:uuid:6ef28f4d-9045-47b6-8f12-5a399385b2cc",
      "resource": {
        "resourceType": "Observation",
        "id": "6ef28f4d-9045-47b6-8f12-5a399385b2cc",
        "meta": {
          "profile": [
            "http://hl7.eu/fhir/laboratory/StructureDefinition/Observation-resultslab-eu-lab"
          ]
        },
        "performer": [
          {
            "display": "The Central European Lab"
          }
        ],
        "category": [
          {
            "coding": [
              {
                "system": "http://terminology.hl7.org/CodeSystem/observation-category",
                "code": "laboratory"
              }
            ]
          }
        ],
        "code": {
          "coding": [
            {
              "code": "21000-5",
              "system": "http://loinc.org",
              "display": "Erythrocyte distribution width [Entitic volume] by Automated count"
            }
          ],
          "text": "Erythrocyte distribution width [Entitic volume] by Automated count"
        },
        "valueQuantity": {
          "system": "http://unitsofmeasure.org",
          "value": 42.7,
          "unit": "fL",
          "code": "fL"
        },
        "referenceRange": [
          {
            "low": {
              "value": 36,
              "code": "fL",
              "system": "http://unitsofmeasure.org"
            }
          },
          {
            "high": {
              "value": 56,
              "code": "fL",
              "system": "http://unitsofmeasure.org"
            }
          }
        ],
        "text": {
          "status": "generated",
          "div": "<div xmlns=\"http://www.w3.org/1999/xhtml\"><table class=\"hl7__eu__lab__report\"><tr><th>Test</th><th>09-Dec-2018</th><th>Reference&#xA0;Range</th><th>Unit</th></tr><tr><td>Erythrocyte distribution width [Entitic volume] by Automated count</td><td>42.7</td><td>36 - 56</td><td></td><td>fL</td></tr></table></div>"
        },
        "status": "final",
        "subject": {
          "reference": "urn:uuid:b575d485-27fa-43d3-935f-e0b5a4c982cb",
          "display": "Gastone Farnese"
        },
        "effectiveDateTime": "2018-12-08T23:10:08Z",
        "specimen": {
          "reference": "urn:uuid:fee97598-ae68-4f1c-9673-dcbd0f9824b0"
        }
      }
    },
    {
      "fullUrl": "urn:uuid:c0793caf-787d-41a5-aa56-daaa19f22faa",
      "resource": {
        "resourceType": "Observation",
        "id": "c0793caf-787d-41a5-aa56-daaa19f22faa",
        "meta": {
          "profile": [
            "http://hl7.eu/fhir/laboratory/StructureDefinition/Observation-resultslab-eu-lab"
          ]
        },
        "performer": [
          {
            "display": "The Central European Lab"
          }
        ],
        "category": [
          {
            "coding": [
              {
                "system": "http://terminology.hl7.org/CodeSystem/observation-category",
                "code": "laboratory"
              }
            ]
          }
        ],
        "code": {
          "coding": [
            {
              "code": "777-3",
              "system": "http://loinc.org",
              "display": "Platelets [#/volume] in Blood by Automated count"
            }
          ],
          "text": "Platelets [#/volume] in Blood by Automated count"
        },
        "valueQuantity": {
          "system": "http://unitsofmeasure.org",
          "value": 166.9,
          "unit": "10*3/uL",
          "code": "10*3/uL"
        },
        "referenceRange": [
          {
            "low": {
              "value": 150,
              "code": "10*3/uL",
              "system": "http://unitsofmeasure.org"
            }
          },
          {
            "high": {
              "value": 363,
              "code": "10*3/uL",
              "system": "http://unitsofmeasure.org"
            }
          }
        ],
        "text": {
          "status": "generated",
          "div": "<div xmlns=\"http://www.w3.org/1999/xhtml\"><table class=\"hl7__eu__lab__report\"><tr><th>Test</th><th>09-Dec-2018</th><th>Reference&#xA0;Range</th><th>Unit</th></tr><tr><td>Platelets [#/volume] in Blood by Automated count</td><td>166.9</td><td>150 - 363</td><td></td><td>10*3/uL</td></tr></table></div>"
        },
        "status": "final",
        "subject": {
          "reference": "urn:uuid:b575d485-27fa-43d3-935f-e0b5a4c982cb",
          "display": "Gastone Farnese"
        },
        "effectiveDateTime": "2018-12-08T23:10:08Z",
        "specimen": {
          "reference": "urn:uuid:fee97598-ae68-4f1c-9673-dcbd0f9824b0"
        }
      }
    },
    {
      "fullUrl": "urn:uuid:2d48bd66-16e5-43e2-9e07-65e796b4f668",
      "resource": {
        "resourceType": "Observation",
        "id": "2d48bd66-16e5-43e2-9e07-65e796b4f668",
        "meta": {
          "profile": [
            "http://hl7.eu/fhir/laboratory/StructureDefinition/Observation-resultslab-eu-lab"
          ]
        },
        "performer": [
          {
            "display": "The Central European Lab"
          }
        ],
        "category": [
          {
            "coding": [
              {
                "system": "http://terminology.hl7.org/CodeSystem/observation-category",
                "code": "laboratory"
              }
            ]
          }
        ],
        "code": {
          "coding": [
            {
              "code": "32207-3",
              "system": "http://loinc.org",
              "display": "Platelet distribution width [Entitic volume] in Blood by Automated count"
            }
          ],
          "text": "Platelet distribution width [Entitic volume] in Blood by Automated count"
        },
        "valueQuantity": {
          "system": "http://unitsofmeasure.org",
          "value": 261.8,
          "unit": "fL",
          "code": "fL"
        },
        "referenceRange": [
          {
            "low": {
              "value": 13.4,
              "code": "fL",
              "system": "http://unitsofmeasure.org"
            }
          },
          {
            "high": {
              "value": 17.4,
              "code": "fL",
              "system": "http://unitsofmeasure.org"
            }
          }
        ],
        "interpretation": [
          {
            "coding": [
              {
                "code": "H",
                "system": "http://terminology.hl7.org/CodeSystem/v3-ObservationInterpretation",
                "display": "High"
              }
            ]
          }
        ],
        "text": {
          "status": "generated",
          "div": "<div xmlns=\"http://www.w3.org/1999/xhtml\"><table class=\"hl7__eu__lab__report\"><tr><th>Test</th><th>09-Dec-2018</th><th>Reference&#xA0;Range</th><th>Unit</th></tr><tr><td>Platelet distribution width [Entitic volume] in Blood by Automated count</td><td>261.8</td><td>13.4 - 17.4</td><td>H</td><td>fL</td></tr></table></div>"
        },
        "status": "final",
        "subject": {
          "reference": "urn:uuid:b575d485-27fa-43d3-935f-e0b5a4c982cb",
          "display": "Gastone Farnese"
        },
        "effectiveDateTime": "2018-12-08T23:10:08Z",
        "specimen": {
          "reference": "urn:uuid:fee97598-ae68-4f1c-9673-dcbd0f9824b0"
        }
      }
    },
    {
      "fullUrl": "urn:uuid:dbe219fd-a2c5-4b2a-a775-432962ee9e74",
      "resource": {
        "resourceType": "Observation",
        "id": "dbe219fd-a2c5-4b2a-a775-432962ee9e74",
        "meta": {
          "profile": [
            "http://hl7.eu/fhir/laboratory/StructureDefinition/Observation-resultslab-eu-lab"
          ]
        },
        "performer": [
          {
            "display": "The Central European Lab"
          }
        ],
        "category": [
          {
            "coding": [
              {
                "system": "http://terminology.hl7.org/CodeSystem/observation-category",
                "code": "laboratory"
              }
            ]
          }
        ],
        "code": {
          "coding": [
            {
              "code": "32623-1",
              "system": "http://loinc.org",
              "display": "Platelet mean volume [Entitic volume] in Blood by Automated count"
            }
          ],
          "text": "Platelet mean volume [Entitic volume] in Blood by Automated count"
        },
        "valueQuantity": {
          "system": "http://unitsofmeasure.org",
          "value": 12.1,
          "unit": "fL",
          "code": "fL"
        },
        "referenceRange": [
          {
            "low": {
              "value": 7.2,
              "code": "fL",
              "system": "http://unitsofmeasure.org"
            }
          },
          {
            "high": {
              "value": 13.5,
              "code": "fL",
              "system": "http://unitsofmeasure.org"
            }
          }
        ],
        "text": {
          "status": "generated",
          "div": "<div xmlns=\"http://www.w3.org/1999/xhtml\"><table class=\"hl7__eu__lab__report\"><tr><th>Test</th><th>09-Dec-2018</th><th>Reference&#xA0;Range</th><th>Unit</th></tr><tr><td>Platelet mean volume [Entitic volume] in Blood by Automated count</td><td>12.1</td><td>7.2 - 13.5</td><td></td><td>fL</td></tr></table></div>"
        },
        "status": "final",
        "subject": {
          "reference": "urn:uuid:b575d485-27fa-43d3-935f-e0b5a4c982cb",
          "display": "Gastone Farnese"
        },
        "effectiveDateTime": "2018-12-08T23:10:08Z",
        "specimen": {
          "reference": "urn:uuid:fee97598-ae68-4f1c-9673-dcbd0f9824b0"
        }
      }
    },
    {
      "fullUrl": "urn:uuid:744bd4bf-9a5b-4087-9015-fcbe805dc4ca",
      "resource": {
        "resourceType": "Device",
        "id": "744bd4bf-9a5b-4087-9015-fcbe805dc4ca",
        "deviceName": [
          {
            "name": "SYNDERAI Synthetic Generator",
            "type": "manufacturer-name"
          }
        ],
        "version": [
          {
            "value": "5.0"
          }
        ],
        "text": {
          "status": "generated",
          "div": "<div xmlns=\"http://www.w3.org/1999/xhtml\">SYNDERAI Synthetic Generator v5.0</div>"
        },
        "status": "active\"",
        "distinctIdentifier": "synderai-generator-50",
        "manufacturer": "SYNDERAI Project"
      }
    },
    {
      "fullUrl": "urn:uuid:ea70c627-0022-4dec-a6df-365dd0678d67",
      "resource": {
        "resourceType": "Provenance",
        "id": "ea70c627-0022-4dec-a6df-365dd0678d67",
        "target": [
          {
            "reference": "Patient/b575d485-27fa-43d3-935f-e0b5a4c982cb"
          },
          {
            "reference": "Bundle/f135bfab-03b2-4083-a49f-40ff92266e0c"
          },
          {
            "reference": "Composition/7014889b-9a61-413c-b008-8ff59e41bf16"
          },
          {
            "reference": "PractitionerRole/c5e78ec1-342a-4688-ad8d-cff23b98e810"
          },
          {
            "reference": "Practitioner/e6a0986e-6b71-4508-8e63-d6f77caf479f"
          },
          {
            "reference": "PractitionerRole/78cdcb22-558f-4cc3-9e01-76764f4b1c8d"
          },
          {
            "reference": "Organization/cf570768-1762-4f3f-b3d2-018abc16443b"
          }
        ],
        "activity": {
          "text": "Synthetic Example Data Generation"
        },
        "policy": [
          "https://synderai.net/synderai-synthetic-data-policy"
        ],
        "agent": [
          {
            "type": {
              "text": "author"
            },
            "who": {
              "reference": "Device/744bd4bf-9a5b-4087-9015-fcbe805dc4ca"
            }
          }
        ],
        "reason": [
          {
            "text": "Interoperability Testing and Training (non-clinical use)"
          }
        ],
        "text": {
          "status": "generated",
          "div": "<div xmlns=\"http://www.w3.org/1999/xhtml\">Provenance for SYNDERAI Synthetic Example Data Resource</div>"
        },
        "recorded": "2018-12-09T00:10:08Z"
      }
    },
    {
      "fullUrl": "urn:uuid:c5e78ec1-342a-4688-ad8d-cff23b98e810",
      "resource": {
        "resourceType": "PractitionerRole",
        "id": "c5e78ec1-342a-4688-ad8d-cff23b98e810",
        "meta": {
          "profile": [
            "http://hl7.eu/fhir/base/StructureDefinition/practitionerRole-eu"
          ]
        },
        "text": {
          "status": "generated",
          "div": "<div xmlns=\"http://www.w3.org/1999/xhtml\">Laboratory Role Id: c5e78ec1-342a-4688-ad8d-cff23b98e810</div>"
        },
        "practitioner": {
          "reference": "urn:uuid:e6a0986e-6b71-4508-8e63-d6f77caf479f"
        }
      }
    },
    {
      "fullUrl": "urn:uuid:e6a0986e-6b71-4508-8e63-d6f77caf479f",
      "resource": {
        "resourceType": "Practitioner",
        "id": "e6a0986e-6b71-4508-8e63-d6f77caf479f",
        "meta": {
          "profile": [
            "http://hl7.eu/fhir/base/StructureDefinition/practitioner-eu"
          ]
        },
        "identifier": [
          {
            "assigner": {
              "display": "HL7 Europe"
            },
            "system": "urn:oid:2.16.840.1.113883.2.51.999",
            "value": "a20e04ef-262b-438d-b531-e4d618b3c11f"
          }
        ],
        "name": [
          {
            "prefix": [
              "dr"
            ],
            "given": [
              "Ex"
            ],
            "family": "Ample"
          }
        ],
        "address": [
          {
            "line": [
              "Laboratoire Central Européenne",
              "Boulevard du Jardin Botanique 32"
            ],
            "postalCode": "1000",
            "city": "Brussels",
            "country": "Belgium"
          }
        ],
        "text": {
          "status": "generated",
          "div": "<div xmlns=\"http://www.w3.org/1999/xhtml\">Laboratory: Laboratoire Central Européenne, 1000 Brussels, Belgium</div>"
        }
      }
    }
  ],
  "type": "document",
  "timestamp": "2018-12-09T00:10:08Z"
}
