{
  "resourceType": "Bundle",
  "id": "82e815da-4d53-45c5-bcba-5969189697f2",
  "meta": {
    "profile": [
      "http://hl7.eu/fhir/laboratory/StructureDefinition/Bundle-eu-lab"
    ]
  },
  "identifier": {
    "assigner": {
      "display": "HL7 Europe"
    },
    "system": "urn:oid:2.16.840.1.113883.2.51.999",
    "value": "cebebae7-5e01-4a44-b809-d6d2c6daffe5"
  },
  "entry": [
    {
      "fullUrl": "urn:uuid:149e84a8-7fb5-4077-a081-dfcda7c9ab4a",
      "resource": {
        "resourceType": "Composition",
        "id": "149e84a8-7fb5-4077-a081-dfcda7c9ab4a",
        "meta": {
          "profile": [
            "http://hl7.eu/fhir/laboratory/StructureDefinition/Composition-eu-lab"
          ]
        },
        "identifier": {
          "assigner": {
            "display": "HL7 Europe"
          },
          "system": "urn:oid:2.16.840.1.113883.2.51.999",
          "value": "f539833c-2037-4b0a-b179-d2489ba11863"
        },
        "author": [
          {
            "reference": "urn:uuid:64c0b392-4344-424c-ab14-5f7d36886670"
          }
        ],
        "category": [
          {
            "coding": [
              {
                "code": "26436-6",
                "system": "http://loinc.org",
                "display": "Laboratory studies (set)"
              }
            ]
          }
        ],
        "type": {
          "coding": [
            {
              "code": "11502-2",
              "system": "http://loinc.org",
              "display": "Laboratory report"
            }
          ],
          "text": "Laboratory Report"
        },
        "section": [
          {
            "code": {
              "coding": [
                {
                  "code": "26436-6",
                  "system": "http://loinc.org",
                  "display": "Laboratory studies (set)"
                }
              ],
              "text": "Laboratory studies"
            },
            "section": [
              {
                "code": {
                  "coding": [
                    {
                      "code": "$18719-5",
                      "system": "http://loinc.org",
                      "display": "Chemistry studies (set)"
                    }
                  ],
                  "text": "Chemistry"
                },
                "entry": [
                  {
                    "reference": "urn:uuid:d6f63462-136d-4986-8f0b-4315e709a916"
                  },
                  {
                    "reference": "urn:uuid:54291d74-04cd-489b-977d-99c3f7712e33"
                  },
                  {
                    "reference": "urn:uuid:9febc174-1d1f-441b-ba18-fac42f28e3b4"
                  },
                  {
                    "reference": "urn:uuid:334a79b6-f574-48d5-a268-1afac569dd3a"
                  },
                  {
                    "reference": "urn:uuid:c08cd59d-2573-4cb3-9696-0b8d06900f08"
                  },
                  {
                    "reference": "urn:uuid:332e258d-7eb3-4e7c-b3a3-7afcfa8f2ca6"
                  },
                  {
                    "reference": "urn:uuid:c1dcf5c1-f617-451c-a154-b0c94f06d489"
                  },
                  {
                    "reference": "urn:uuid:b172cdb1-42e0-4469-819d-72e021b13b92"
                  },
                  {
                    "reference": "urn:uuid:7adf1da9-5119-46f7-9424-6a46b7ca9797"
                  }
                ],
                "text": {
                  "status": "generated",
                  "div": "<div xmlns=\"http://www.w3.org/1999/xhtml\"><h3>Chemistry</h3><table class=\"hl7__eu__lab__report\"><thead><tr><th>Test</th><th>21-DEC-2021</th><th>Reference&#xA0;Range</th><th>Unit</th></tr></thead><tbody><tr><td>Hemoglobin A1c/Hemoglobin.total in Blood</td><td><strong>6.1 H</strong></td><td>4.8 - 5.7</td><td>%</td></tr><tr><td>Glucose [Mass/volume] in Blood</td><td>70.9</td><td>70 - 99</td><td>mg/dL</td></tr><tr><td>Urea nitrogen [Mass/volume] in Blood</td><td>18.7</td><td>7 - 20</td><td>mg/dL</td></tr><tr><td>Creatinine [Mass/volume] in Blood</td><td>0.8</td><td>0.6 - 1.1</td><td>mg/dL</td></tr><tr><td>Calcium [Mass/volume] in Blood</td><td>9.1</td><td>8.5 - 10.5</td><td>mg/dL</td></tr><tr><td>Sodium [Moles/volume] in Blood</td><td>136.0</td><td>135 - 145</td><td>mmol/L</td></tr><tr><td>Potassium [Moles/volume] in Blood</td><td>5.1</td><td>3.5 - 5.3</td><td>mmol/L</td></tr><tr><td>Chloride [Moles/volume] in Blood</td><td>106.2</td><td>98 - 114</td><td>mmol/L</td></tr><tr><td>Carbon dioxide, total [Moles/volume] in Blood</td><td>27.2</td><td>22 - 29</td><td>mmol/L</td></tr></tbody></table></div>"
                },
                "title": "Chemistry"
              }
            ],
            "title": "Laboratory Report"
          },
          {
            "text": {
              "status": "generated",
              "div": "<div xmlns=\"http://www.w3.org/1999/xhtml\"><h3>Annotation</h3><table class=\"hl7__eu__lab__report\"><tr><th>Conclusion and Recommendations based on this report and previous findings known to us</th></tr><tr><td>All parameters are within normal limits except for a mildly elevated HbA1c (6.1%), indicating impaired glucose regulation or prediabetes. Renal function, electrolytes, and other metabolic markers are normal. Recommend clinical follow-up for glycemic control and consideration of lifestyle modification to prevent progression to diabetes.</td></tr></table></div>"
            },
            "code": {
              "coding": [
                {
                  "system": "http://loinc.org",
                  "code": "48767-8",
                  "display": "Annotation comment"
                }
              ]
            },
            "title": "Annotation comment"
          }
        ],
        "status": "final",
        "subject": {
          "reference": "urn:uuid:67e5e3c0-03fc-4b59-b550-f0ba1006fb68",
          "display": "Aniela Sacharczuk"
        },
        "date": "2021-12-21T06:26:59Z",
        "title": "Laboratory Report",
        "confidentiality": "N"
      }
    },
    {
      "fullUrl": "urn:uuid:2ac0e49e-d02e-417b-aa14-05a27c2d8fe4",
      "resource": {
        "resourceType": "DiagnosticReport",
        "id": "2ac0e49e-d02e-417b-aa14-05a27c2d8fe4",
        "meta": {
          "profile": [
            "http://hl7.eu/fhir/laboratory/StructureDefinition/DiagnosticReport-eu-lab"
          ]
        },
        "identifier": [
          {
            "assigner": {
              "display": "HL7 Europe"
            },
            "system": "urn:oid:2.16.840.1.113883.2.51.999",
            "value": "d700a008-7896-47d5-879d-f80e03044316"
          }
        ],
        "extension": [
          {
            "url": "http://hl7.org/fhir/5.0/StructureDefinition/extension-DiagnosticReport.composition",
            "valueReference": {
              "reference": "urn:uuid:f539833c-2037-4b0a-b179-d2489ba11863"
            }
          }
        ],
        "category": [
          {
            "coding": [
              {
                "code": "26436-6",
                "system": "http://loinc.org",
                "display": "Laboratory studies (set)"
              }
            ]
          }
        ],
        "specimen": [
          {
            "reference": "urn:uuid:94992953-e8be-4dff-8718-9faac757ed3f"
          }
        ],
        "result": [
          {
            "reference": "urn:uuid:d6f63462-136d-4986-8f0b-4315e709a916"
          },
          {
            "reference": "urn:uuid:54291d74-04cd-489b-977d-99c3f7712e33"
          },
          {
            "reference": "urn:uuid:9febc174-1d1f-441b-ba18-fac42f28e3b4"
          },
          {
            "reference": "urn:uuid:334a79b6-f574-48d5-a268-1afac569dd3a"
          },
          {
            "reference": "urn:uuid:c08cd59d-2573-4cb3-9696-0b8d06900f08"
          },
          {
            "reference": "urn:uuid:332e258d-7eb3-4e7c-b3a3-7afcfa8f2ca6"
          },
          {
            "reference": "urn:uuid:c1dcf5c1-f617-451c-a154-b0c94f06d489"
          },
          {
            "reference": "urn:uuid:b172cdb1-42e0-4469-819d-72e021b13b92"
          },
          {
            "reference": "urn:uuid:7adf1da9-5119-46f7-9424-6a46b7ca9797"
          }
        ],
        "status": "registered",
        "code": {
          "coding": [
            {
              "code": "11502-2",
              "system": "http://loinc.org",
              "display": "Laboratory report"
            }
          ]
        },
        "subject": {
          "reference": "urn:uuid:67e5e3c0-03fc-4b59-b550-f0ba1006fb68",
          "display": "Aniela Sacharczuk"
        }
      }
    },
    {
      "fullUrl": "urn:uuid:67e5e3c0-03fc-4b59-b550-f0ba1006fb68",
      "resource": {
        "resourceType": "Patient",
        "id": "67e5e3c0-03fc-4b59-b550-f0ba1006fb68",
        "meta": {
          "security": [
            {
              "system": "http://terminology.hl7.org/CodeSystem/v3-ActReason",
              "code": "HTEST"
            },
            {
              "system": "http://terminology.hl7.org/CodeSystem/v3-ActReason",
              "code": "TRAIN"
            }
          ],
          "tag": [
            {
              "system": "https://synderai.net/fhir/CodeSystem/tags",
              "code": "synthetic",
              "display": "SYNDERAI Synthetic data"
            }
          ],
          "profile": [
            "http://hl7.eu/fhir/base/StructureDefinition/patient-eu-core"
          ]
        },
        "identifier": [
          {
            "type": {
              "coding": [
                {
                  "code": "PT",
                  "system": "http://terminology.hl7.org/CodeSystem/v2-0203"
                }
              ]
            },
            "system": "http://ec.europa.eu/identifier/eci",
            "value": "3843-787162-7"
          },
          {
            "type": {
              "coding": [
                {
                  "code": "MR",
                  "system": "http://terminology.hl7.org/CodeSystem/v2-0203"
                }
              ]
            },
            "system": "http://local.setting.eu/identifier",
            "value": "cd2e7aac-e2c0-8306-b862-9ed4c443c8b5"
          }
        ],
        "name": [
          {
            "family": "Sacharczuk"
          },
          {
            "given": [
              "Aniela"
            ]
          },
          {
            "text": "Aniela Sacharczuk"
          }
        ],
        "address": [
          {
            "line": [
              "plac Szpitalna 13"
            ],
            "use": "home",
            "type": "physical",
            "postalCode": "27-600",
            "city": "Sandomierz",
            "country": "Poland"
          }
        ],
        "telecom": [
          {
            "system": "phone",
            "value": "+48 536 227 035"
          }
        ],
        "extension": [
          {
            "url": "http://hl7.org/fhir/StructureDefinition/patient-nationality",
            "valueCodeableConcept": {
              "coding": [
                {
                  "code": "PL",
                  "system": "http://hl7.org/fhir/ValueSet/country"
                }
              ]
            }
          }
        ],
        "text": {
          "status": "generated",
          "div": "<div xmlns=\"http://www.w3.org/1999/xhtml\"><table class=\"hl7__ips\"><tr><td>Aniela Sacharczuk</td><td>female</td><td>02-Nov-1970</td></tr></table></div>"
        },
        "gender": "female",
        "birthDate": "1970-11-02"
      }
    },
    {
      "fullUrl": "urn:uuid:5867c6a5-4ad2-45d3-b175-44a4f859a9cf",
      "resource": {
        "resourceType": "ServiceRequest",
        "id": "5867c6a5-4ad2-45d3-b175-44a4f859a9cf",
        "meta": {
          "profile": [
            "http://hl7.eu/fhir/laboratory/StructureDefinition/ServiceRequest-eu-lab"
          ]
        },
        "identifier": [
          {
            "system": "http://example.org",
            "value": "a34333dd-6eae-4b57-860c-158865408011"
          }
        ],
        "specimen": [
          {
            "reference": "urn:uuid:94992953-e8be-4dff-8718-9faac757ed3f"
          }
        ],
        "reasonCode": [
          {
            "coding": [
              {
                "code": "237602007",
                "system": "http://snomed.info/sct",
                "display": "Metabolic syndrome X"
              }
            ]
          },
          {
            "coding": [
              {
                "code": "15777000",
                "system": "http://snomed.info/sct",
                "display": "Prediabetes"
              }
            ]
          },
          {
            "coding": [
              {
                "code": "59621000",
                "system": "http://snomed.info/sct",
                "display": "Essential hypertension"
              }
            ]
          }
        ],
        "status": "active",
        "intent": "order",
        "code": {
          "coding": [
            {
              "code": "108252007",
              "system": "http://snomed.info/sct",
              "display": "Laboratory procedure"
            }
          ]
        },
        "subject": {
          "reference": "urn:uuid:67e5e3c0-03fc-4b59-b550-f0ba1006fb68",
          "display": "Aniela Sacharczuk"
        },
        "requester": {
          "reference": "urn:uuid:34047b04-d5ee-47dd-ba3e-1663ff854b59"
        }
      }
    },
    {
      "fullUrl": "urn:uuid:34047b04-d5ee-47dd-ba3e-1663ff854b59",
      "resource": {
        "resourceType": "PractitionerRole",
        "id": "34047b04-d5ee-47dd-ba3e-1663ff854b59",
        "meta": {
          "profile": [
            "http://hl7.eu/fhir/base/StructureDefinition/practitionerRole-eu"
          ]
        },
        "text": {
          "status": "generated",
          "div": "<div xmlns=\"http://www.w3.org/1999/xhtml\">Provider Role Id: 34047b04-d5ee-47dd-ba3e-1663ff854b59</div>"
        },
        "organization": {
          "reference": "urn:uuid:a1ab4009-c3df-4247-b5ab-ebe9aa42494a"
        }
      }
    },
    {
      "fullUrl": "urn:uuid:a1ab4009-c3df-4247-b5ab-ebe9aa42494a",
      "resource": {
        "resourceType": "Organization",
        "id": "a1ab4009-c3df-4247-b5ab-ebe9aa42494a",
        "meta": {
          "profile": [
            "http://hl7.eu/fhir/base/StructureDefinition/organization-eu"
          ]
        },
        "identifier": [
          {
            "assigner": {
              "display": "HL7 Europe"
            },
            "system": "urn:oid:2.16.840.1.113883.2.51.999",
            "value": "562acc3c-9379-4786-851f-fe692fded20a"
          }
        ],
        "address": [
          {
            "line": [
              "Józefa Piłsudskiego 17"
            ],
            "city": "Gorzyce",
            "postalCode": "39-432",
            "country": "Poland"
          }
        ],
        "text": {
          "status": "generated",
          "div": "<div xmlns=\"http://www.w3.org/1999/xhtml\">Provider Organization: Ośrodek Zdrowia</div>"
        },
        "name": "Ośrodek Zdrowia"
      }
    },
    {
      "fullUrl": "urn:uuid:94992953-e8be-4dff-8718-9faac757ed3f",
      "resource": {
        "resourceType": "Specimen",
        "id": "94992953-e8be-4dff-8718-9faac757ed3f",
        "meta": {
          "profile": [
            "http://hl7.eu/fhir/laboratory/StructureDefinition/Specimen-eu-lab"
          ]
        },
        "collection": {
          "collectedDateTime": "2021-12-21"
        },
        "text": {
          "status": "generated",
          "div": "<div xmlns=\"http://www.w3.org/1999/xhtml\"><table class=\"hl7__eu__lab__report\"><tr><th>Specimen</th><th>Collection Date</th></tr><tr><td>Whole blood specimen (specimen)</td><td><span class=\"nb\">21-Dec-2021</span></td></tr></table></div>"
        },
        "type": {
          "coding": [
            {
              "code": "258580003",
              "system": "http://snomed.info/sct",
              "display": "Whole blood specimen (specimen)"
            }
          ]
        }
      }
    },
    {
      "fullUrl": "urn:uuid:d6f63462-136d-4986-8f0b-4315e709a916",
      "resource": {
        "resourceType": "Observation",
        "id": "d6f63462-136d-4986-8f0b-4315e709a916",
        "meta": {
          "profile": [
            "http://hl7.eu/fhir/laboratory/StructureDefinition/Observation-resultslab-eu-lab"
          ]
        },
        "performer": [
          {
            "display": "The Central European Lab"
          }
        ],
        "category": [
          {
            "coding": [
              {
                "system": "http://terminology.hl7.org/CodeSystem/observation-category",
                "code": "laboratory"
              }
            ]
          }
        ],
        "code": {
          "coding": [
            {
              "code": "4548-4",
              "system": "http://loinc.org",
              "display": "Hemoglobin A1c/Hemoglobin.total in Blood"
            }
          ],
          "text": "Hemoglobin A1c/Hemoglobin.total in Blood"
        },
        "valueQuantity": {
          "system": "http://unitsofmeasure.org",
          "value": 6.1,
          "unit": "%",
          "code": "%"
        },
        "referenceRange": [
          {
            "low": {
              "value": 4.8,
              "code": "%",
              "system": "http://unitsofmeasure.org"
            }
          },
          {
            "high": {
              "value": 5.7,
              "code": "%",
              "system": "http://unitsofmeasure.org"
            }
          }
        ],
        "interpretation": [
          {
            "coding": [
              {
                "code": "H",
                "system": "http://terminology.hl7.org/CodeSystem/v3-ObservationInterpretation",
                "display": "High"
              }
            ]
          }
        ],
        "text": {
          "status": "generated",
          "div": "<div xmlns=\"http://www.w3.org/1999/xhtml\"><table class=\"hl7__eu__lab__report\"><tr><th>Test</th><th>21-Dec-2021</th><th>Reference&#xA0;Range</th><th>Unit</th></tr><tr><td>Hemoglobin A1c/Hemoglobin.total in Blood</td><td>6.1</td><td>4.8 - 5.7</td><td>H</td><td>%</td></tr></table></div>"
        },
        "status": "final",
        "subject": {
          "reference": "urn:uuid:67e5e3c0-03fc-4b59-b550-f0ba1006fb68",
          "display": "Aniela Sacharczuk"
        },
        "effectiveDateTime": "2021-12-21T05:26:59Z",
        "specimen": {
          "reference": "urn:uuid:94992953-e8be-4dff-8718-9faac757ed3f"
        }
      }
    },
    {
      "fullUrl": "urn:uuid:54291d74-04cd-489b-977d-99c3f7712e33",
      "resource": {
        "resourceType": "Observation",
        "id": "54291d74-04cd-489b-977d-99c3f7712e33",
        "meta": {
          "profile": [
            "http://hl7.eu/fhir/laboratory/StructureDefinition/Observation-resultslab-eu-lab"
          ]
        },
        "performer": [
          {
            "display": "The Central European Lab"
          }
        ],
        "category": [
          {
            "coding": [
              {
                "system": "http://terminology.hl7.org/CodeSystem/observation-category",
                "code": "laboratory"
              }
            ]
          }
        ],
        "code": {
          "coding": [
            {
              "code": "2339-0",
              "system": "http://loinc.org",
              "display": "Glucose [Mass/volume] in Blood"
            }
          ],
          "text": "Glucose [Mass/volume] in Blood"
        },
        "valueQuantity": {
          "system": "http://unitsofmeasure.org",
          "value": 70.9,
          "unit": "mg/dL",
          "code": "mg/dL"
        },
        "referenceRange": [
          {
            "low": {
              "value": 70,
              "code": "mg/dL",
              "system": "http://unitsofmeasure.org"
            }
          },
          {
            "high": {
              "value": 99,
              "code": "mg/dL",
              "system": "http://unitsofmeasure.org"
            }
          }
        ],
        "text": {
          "status": "generated",
          "div": "<div xmlns=\"http://www.w3.org/1999/xhtml\"><table class=\"hl7__eu__lab__report\"><tr><th>Test</th><th>21-Dec-2021</th><th>Reference&#xA0;Range</th><th>Unit</th></tr><tr><td>Glucose [Mass/volume] in Blood</td><td>70.9</td><td>70 - 99</td><td></td><td>mg/dL</td></tr></table></div>"
        },
        "status": "final",
        "subject": {
          "reference": "urn:uuid:67e5e3c0-03fc-4b59-b550-f0ba1006fb68",
          "display": "Aniela Sacharczuk"
        },
        "effectiveDateTime": "2021-12-21T05:26:59Z",
        "specimen": {
          "reference": "urn:uuid:94992953-e8be-4dff-8718-9faac757ed3f"
        }
      }
    },
    {
      "fullUrl": "urn:uuid:9febc174-1d1f-441b-ba18-fac42f28e3b4",
      "resource": {
        "resourceType": "Observation",
        "id": "9febc174-1d1f-441b-ba18-fac42f28e3b4",
        "meta": {
          "profile": [
            "http://hl7.eu/fhir/laboratory/StructureDefinition/Observation-resultslab-eu-lab"
          ]
        },
        "performer": [
          {
            "display": "The Central European Lab"
          }
        ],
        "category": [
          {
            "coding": [
              {
                "system": "http://terminology.hl7.org/CodeSystem/observation-category",
                "code": "laboratory"
              }
            ]
          }
        ],
        "code": {
          "coding": [
            {
              "code": "6299-2",
              "system": "http://loinc.org",
              "display": "Urea nitrogen [Mass/volume] in Blood"
            }
          ],
          "text": "Urea nitrogen [Mass/volume] in Blood"
        },
        "valueQuantity": {
          "system": "http://unitsofmeasure.org",
          "value": 18.7,
          "unit": "mg/dL",
          "code": "mg/dL"
        },
        "referenceRange": [
          {
            "low": {
              "value": 7,
              "code": "mg/dL",
              "system": "http://unitsofmeasure.org"
            }
          },
          {
            "high": {
              "value": 20,
              "code": "mg/dL",
              "system": "http://unitsofmeasure.org"
            }
          }
        ],
        "text": {
          "status": "generated",
          "div": "<div xmlns=\"http://www.w3.org/1999/xhtml\"><table class=\"hl7__eu__lab__report\"><tr><th>Test</th><th>21-Dec-2021</th><th>Reference&#xA0;Range</th><th>Unit</th></tr><tr><td>Urea nitrogen [Mass/volume] in Blood</td><td>18.7</td><td>7 - 20</td><td></td><td>mg/dL</td></tr></table></div>"
        },
        "status": "final",
        "subject": {
          "reference": "urn:uuid:67e5e3c0-03fc-4b59-b550-f0ba1006fb68",
          "display": "Aniela Sacharczuk"
        },
        "effectiveDateTime": "2021-12-21T05:26:59Z",
        "specimen": {
          "reference": "urn:uuid:94992953-e8be-4dff-8718-9faac757ed3f"
        }
      }
    },
    {
      "fullUrl": "urn:uuid:334a79b6-f574-48d5-a268-1afac569dd3a",
      "resource": {
        "resourceType": "Observation",
        "id": "334a79b6-f574-48d5-a268-1afac569dd3a",
        "meta": {
          "profile": [
            "http://hl7.eu/fhir/laboratory/StructureDefinition/Observation-resultslab-eu-lab"
          ]
        },
        "performer": [
          {
            "display": "The Central European Lab"
          }
        ],
        "category": [
          {
            "coding": [
              {
                "system": "http://terminology.hl7.org/CodeSystem/observation-category",
                "code": "laboratory"
              }
            ]
          }
        ],
        "code": {
          "coding": [
            {
              "code": "38483-4",
              "system": "http://loinc.org",
              "display": "Creatinine [Mass/volume] in Blood"
            }
          ],
          "text": "Creatinine [Mass/volume] in Blood"
        },
        "valueQuantity": {
          "system": "http://unitsofmeasure.org",
          "value": 0.8,
          "unit": "mg/dL",
          "code": "mg/dL"
        },
        "referenceRange": [
          {
            "low": {
              "value": 0.6,
              "code": "mg/dL",
              "system": "http://unitsofmeasure.org"
            }
          },
          {
            "high": {
              "value": 1.1,
              "code": "mg/dL",
              "system": "http://unitsofmeasure.org"
            }
          }
        ],
        "text": {
          "status": "generated",
          "div": "<div xmlns=\"http://www.w3.org/1999/xhtml\"><table class=\"hl7__eu__lab__report\"><tr><th>Test</th><th>21-Dec-2021</th><th>Reference&#xA0;Range</th><th>Unit</th></tr><tr><td>Creatinine [Mass/volume] in Blood</td><td>0.8</td><td>0.6 - 1.1</td><td></td><td>mg/dL</td></tr></table></div>"
        },
        "status": "final",
        "subject": {
          "reference": "urn:uuid:67e5e3c0-03fc-4b59-b550-f0ba1006fb68",
          "display": "Aniela Sacharczuk"
        },
        "effectiveDateTime": "2021-12-21T05:26:59Z",
        "specimen": {
          "reference": "urn:uuid:94992953-e8be-4dff-8718-9faac757ed3f"
        }
      }
    },
    {
      "fullUrl": "urn:uuid:c08cd59d-2573-4cb3-9696-0b8d06900f08",
      "resource": {
        "resourceType": "Observation",
        "id": "c08cd59d-2573-4cb3-9696-0b8d06900f08",
        "meta": {
          "profile": [
            "http://hl7.eu/fhir/laboratory/StructureDefinition/Observation-resultslab-eu-lab"
          ]
        },
        "performer": [
          {
            "display": "The Central European Lab"
          }
        ],
        "category": [
          {
            "coding": [
              {
                "system": "http://terminology.hl7.org/CodeSystem/observation-category",
                "code": "laboratory"
              }
            ]
          }
        ],
        "code": {
          "coding": [
            {
              "code": "49765-1",
              "system": "http://loinc.org",
              "display": "Calcium [Mass/volume] in Blood"
            }
          ],
          "text": "Calcium [Mass/volume] in Blood"
        },
        "valueQuantity": {
          "system": "http://unitsofmeasure.org",
          "value": 9.1,
          "unit": "mg/dL",
          "code": "mg/dL"
        },
        "referenceRange": [
          {
            "low": {
              "value": 8.5,
              "code": "mg/dL",
              "system": "http://unitsofmeasure.org"
            }
          },
          {
            "high": {
              "value": 10.5,
              "code": "mg/dL",
              "system": "http://unitsofmeasure.org"
            }
          }
        ],
        "text": {
          "status": "generated",
          "div": "<div xmlns=\"http://www.w3.org/1999/xhtml\"><table class=\"hl7__eu__lab__report\"><tr><th>Test</th><th>21-Dec-2021</th><th>Reference&#xA0;Range</th><th>Unit</th></tr><tr><td>Calcium [Mass/volume] in Blood</td><td>9.1</td><td>8.5 - 10.5</td><td></td><td>mg/dL</td></tr></table></div>"
        },
        "status": "final",
        "subject": {
          "reference": "urn:uuid:67e5e3c0-03fc-4b59-b550-f0ba1006fb68",
          "display": "Aniela Sacharczuk"
        },
        "effectiveDateTime": "2021-12-21T05:26:59Z",
        "specimen": {
          "reference": "urn:uuid:94992953-e8be-4dff-8718-9faac757ed3f"
        }
      }
    },
    {
      "fullUrl": "urn:uuid:332e258d-7eb3-4e7c-b3a3-7afcfa8f2ca6",
      "resource": {
        "resourceType": "Observation",
        "id": "332e258d-7eb3-4e7c-b3a3-7afcfa8f2ca6",
        "meta": {
          "profile": [
            "http://hl7.eu/fhir/laboratory/StructureDefinition/Observation-resultslab-eu-lab"
          ]
        },
        "performer": [
          {
            "display": "The Central European Lab"
          }
        ],
        "category": [
          {
            "coding": [
              {
                "system": "http://terminology.hl7.org/CodeSystem/observation-category",
                "code": "laboratory"
              }
            ]
          }
        ],
        "code": {
          "coding": [
            {
              "code": "2947-0",
              "system": "http://loinc.org",
              "display": "Sodium [Moles/volume] in Blood"
            }
          ],
          "text": "Sodium [Moles/volume] in Blood"
        },
        "valueQuantity": {
          "system": "http://unitsofmeasure.org",
          "value": 136,
          "unit": "mmol/L",
          "code": "mmol/L"
        },
        "referenceRange": [
          {
            "low": {
              "value": 135,
              "code": "mmol/L",
              "system": "http://unitsofmeasure.org"
            }
          },
          {
            "high": {
              "value": 145,
              "code": "mmol/L",
              "system": "http://unitsofmeasure.org"
            }
          }
        ],
        "text": {
          "status": "generated",
          "div": "<div xmlns=\"http://www.w3.org/1999/xhtml\"><table class=\"hl7__eu__lab__report\"><tr><th>Test</th><th>21-Dec-2021</th><th>Reference&#xA0;Range</th><th>Unit</th></tr><tr><td>Sodium [Moles/volume] in Blood</td><td>136.0</td><td>135 - 145</td><td></td><td>mmol/L</td></tr></table></div>"
        },
        "status": "final",
        "subject": {
          "reference": "urn:uuid:67e5e3c0-03fc-4b59-b550-f0ba1006fb68",
          "display": "Aniela Sacharczuk"
        },
        "effectiveDateTime": "2021-12-21T05:26:59Z",
        "specimen": {
          "reference": "urn:uuid:94992953-e8be-4dff-8718-9faac757ed3f"
        }
      }
    },
    {
      "fullUrl": "urn:uuid:c1dcf5c1-f617-451c-a154-b0c94f06d489",
      "resource": {
        "resourceType": "Observation",
        "id": "c1dcf5c1-f617-451c-a154-b0c94f06d489",
        "meta": {
          "profile": [
            "http://hl7.eu/fhir/laboratory/StructureDefinition/Observation-resultslab-eu-lab"
          ]
        },
        "performer": [
          {
            "display": "The Central European Lab"
          }
        ],
        "category": [
          {
            "coding": [
              {
                "system": "http://terminology.hl7.org/CodeSystem/observation-category",
                "code": "laboratory"
              }
            ]
          }
        ],
        "code": {
          "coding": [
            {
              "code": "6298-4",
              "system": "http://loinc.org",
              "display": "Potassium [Moles/volume] in Blood"
            }
          ],
          "text": "Potassium [Moles/volume] in Blood"
        },
        "valueQuantity": {
          "system": "http://unitsofmeasure.org",
          "value": 5.1,
          "unit": "mmol/L",
          "code": "mmol/L"
        },
        "referenceRange": [
          {
            "low": {
              "value": 3.5,
              "code": "mmol/L",
              "system": "http://unitsofmeasure.org"
            }
          },
          {
            "high": {
              "value": 5.3,
              "code": "mmol/L",
              "system": "http://unitsofmeasure.org"
            }
          }
        ],
        "text": {
          "status": "generated",
          "div": "<div xmlns=\"http://www.w3.org/1999/xhtml\"><table class=\"hl7__eu__lab__report\"><tr><th>Test</th><th>21-Dec-2021</th><th>Reference&#xA0;Range</th><th>Unit</th></tr><tr><td>Potassium [Moles/volume] in Blood</td><td>5.1</td><td>3.5 - 5.3</td><td></td><td>mmol/L</td></tr></table></div>"
        },
        "status": "final",
        "subject": {
          "reference": "urn:uuid:67e5e3c0-03fc-4b59-b550-f0ba1006fb68",
          "display": "Aniela Sacharczuk"
        },
        "effectiveDateTime": "2021-12-21T05:26:59Z",
        "specimen": {
          "reference": "urn:uuid:94992953-e8be-4dff-8718-9faac757ed3f"
        }
      }
    },
    {
      "fullUrl": "urn:uuid:b172cdb1-42e0-4469-819d-72e021b13b92",
      "resource": {
        "resourceType": "Observation",
        "id": "b172cdb1-42e0-4469-819d-72e021b13b92",
        "meta": {
          "profile": [
            "http://hl7.eu/fhir/laboratory/StructureDefinition/Observation-resultslab-eu-lab"
          ]
        },
        "performer": [
          {
            "display": "The Central European Lab"
          }
        ],
        "category": [
          {
            "coding": [
              {
                "system": "http://terminology.hl7.org/CodeSystem/observation-category",
                "code": "laboratory"
              }
            ]
          }
        ],
        "code": {
          "coding": [
            {
              "code": "2069-3",
              "system": "http://loinc.org",
              "display": "Chloride [Moles/volume] in Blood"
            }
          ],
          "text": "Chloride [Moles/volume] in Blood"
        },
        "valueQuantity": {
          "system": "http://unitsofmeasure.org",
          "value": 106.2,
          "unit": "mmol/L",
          "code": "mmol/L"
        },
        "referenceRange": [
          {
            "low": {
              "value": 98,
              "code": "mmol/L",
              "system": "http://unitsofmeasure.org"
            }
          },
          {
            "high": {
              "value": 114,
              "code": "mmol/L",
              "system": "http://unitsofmeasure.org"
            }
          }
        ],
        "text": {
          "status": "generated",
          "div": "<div xmlns=\"http://www.w3.org/1999/xhtml\"><table class=\"hl7__eu__lab__report\"><tr><th>Test</th><th>21-Dec-2021</th><th>Reference&#xA0;Range</th><th>Unit</th></tr><tr><td>Chloride [Moles/volume] in Blood</td><td>106.2</td><td>98 - 114</td><td></td><td>mmol/L</td></tr></table></div>"
        },
        "status": "final",
        "subject": {
          "reference": "urn:uuid:67e5e3c0-03fc-4b59-b550-f0ba1006fb68",
          "display": "Aniela Sacharczuk"
        },
        "effectiveDateTime": "2021-12-21T05:26:59Z",
        "specimen": {
          "reference": "urn:uuid:94992953-e8be-4dff-8718-9faac757ed3f"
        }
      }
    },
    {
      "fullUrl": "urn:uuid:7adf1da9-5119-46f7-9424-6a46b7ca9797",
      "resource": {
        "resourceType": "Observation",
        "id": "7adf1da9-5119-46f7-9424-6a46b7ca9797",
        "meta": {
          "profile": [
            "http://hl7.eu/fhir/laboratory/StructureDefinition/Observation-resultslab-eu-lab"
          ]
        },
        "performer": [
          {
            "display": "The Central European Lab"
          }
        ],
        "category": [
          {
            "coding": [
              {
                "system": "http://terminology.hl7.org/CodeSystem/observation-category",
                "code": "laboratory"
              }
            ]
          }
        ],
        "code": {
          "coding": [
            {
              "code": "20565-8",
              "system": "http://loinc.org",
              "display": "Carbon dioxide, total [Moles/volume] in Blood"
            }
          ],
          "text": "Carbon dioxide, total [Moles/volume] in Blood"
        },
        "valueQuantity": {
          "system": "http://unitsofmeasure.org",
          "value": 27.2,
          "unit": "mmol/L",
          "code": "mmol/L"
        },
        "referenceRange": [
          {
            "low": {
              "value": 22,
              "code": "mmol/L",
              "system": "http://unitsofmeasure.org"
            }
          },
          {
            "high": {
              "value": 29,
              "code": "mmol/L",
              "system": "http://unitsofmeasure.org"
            }
          }
        ],
        "text": {
          "status": "generated",
          "div": "<div xmlns=\"http://www.w3.org/1999/xhtml\"><table class=\"hl7__eu__lab__report\"><tr><th>Test</th><th>21-Dec-2021</th><th>Reference&#xA0;Range</th><th>Unit</th></tr><tr><td>Carbon dioxide, total [Moles/volume] in Blood</td><td>27.2</td><td>22 - 29</td><td></td><td>mmol/L</td></tr></table></div>"
        },
        "status": "final",
        "subject": {
          "reference": "urn:uuid:67e5e3c0-03fc-4b59-b550-f0ba1006fb68",
          "display": "Aniela Sacharczuk"
        },
        "effectiveDateTime": "2021-12-21T05:26:59Z",
        "specimen": {
          "reference": "urn:uuid:94992953-e8be-4dff-8718-9faac757ed3f"
        }
      }
    },
    {
      "fullUrl": "urn:uuid:4f3526c0-dd76-4f0b-9ebd-61f9ea46127d",
      "resource": {
        "resourceType": "Device",
        "id": "4f3526c0-dd76-4f0b-9ebd-61f9ea46127d",
        "deviceName": [
          {
            "name": "SYNDERAI Synthetic Generator",
            "type": "manufacturer-name"
          }
        ],
        "version": [
          {
            "value": "5.0"
          }
        ],
        "text": {
          "status": "generated",
          "div": "<div xmlns=\"http://www.w3.org/1999/xhtml\">SYNDERAI Synthetic Generator v5.0</div>"
        },
        "status": "active\"",
        "distinctIdentifier": "synderai-generator-50",
        "manufacturer": "SYNDERAI Project"
      }
    },
    {
      "fullUrl": "urn:uuid:92c0594a-67cf-4dc7-a696-cd3597bcdd63",
      "resource": {
        "resourceType": "Provenance",
        "id": "92c0594a-67cf-4dc7-a696-cd3597bcdd63",
        "target": [
          {
            "reference": "Patient/67e5e3c0-03fc-4b59-b550-f0ba1006fb68"
          },
          {
            "reference": "Bundle/82e815da-4d53-45c5-bcba-5969189697f2"
          },
          {
            "reference": "Composition/149e84a8-7fb5-4077-a081-dfcda7c9ab4a"
          },
          {
            "reference": "PractitionerRole/64c0b392-4344-424c-ab14-5f7d36886670"
          },
          {
            "reference": "Practitioner/b885ae2e-cc2e-4128-85ae-4af3be58d2e6"
          },
          {
            "reference": "PractitionerRole/34047b04-d5ee-47dd-ba3e-1663ff854b59"
          },
          {
            "reference": "Organization/a1ab4009-c3df-4247-b5ab-ebe9aa42494a"
          }
        ],
        "activity": {
          "text": "Synthetic Example Data Generation"
        },
        "policy": [
          "https://synderai.net/synderai-synthetic-data-policy"
        ],
        "agent": [
          {
            "type": {
              "text": "author"
            },
            "who": {
              "reference": "Device/4f3526c0-dd76-4f0b-9ebd-61f9ea46127d"
            }
          }
        ],
        "reason": [
          {
            "text": "Interoperability Testing and Training (non-clinical use)"
          }
        ],
        "text": {
          "status": "generated",
          "div": "<div xmlns=\"http://www.w3.org/1999/xhtml\">Provenance for SYNDERAI Synthetic Example Data Resource</div>"
        },
        "recorded": "2021-12-21T06:26:59Z"
      }
    },
    {
      "fullUrl": "urn:uuid:64c0b392-4344-424c-ab14-5f7d36886670",
      "resource": {
        "resourceType": "PractitionerRole",
        "id": "64c0b392-4344-424c-ab14-5f7d36886670",
        "meta": {
          "profile": [
            "http://hl7.eu/fhir/base/StructureDefinition/practitionerRole-eu"
          ]
        },
        "text": {
          "status": "generated",
          "div": "<div xmlns=\"http://www.w3.org/1999/xhtml\">Laboratory Role Id: 64c0b392-4344-424c-ab14-5f7d36886670</div>"
        },
        "practitioner": {
          "reference": "urn:uuid:b885ae2e-cc2e-4128-85ae-4af3be58d2e6"
        }
      }
    },
    {
      "fullUrl": "urn:uuid:b885ae2e-cc2e-4128-85ae-4af3be58d2e6",
      "resource": {
        "resourceType": "Practitioner",
        "id": "b885ae2e-cc2e-4128-85ae-4af3be58d2e6",
        "meta": {
          "profile": [
            "http://hl7.eu/fhir/base/StructureDefinition/practitioner-eu"
          ]
        },
        "identifier": [
          {
            "assigner": {
              "display": "HL7 Europe"
            },
            "system": "urn:oid:2.16.840.1.113883.2.51.999",
            "value": "97fce364-f8ba-4960-b4fe-352bbd26566e"
          }
        ],
        "name": [
          {
            "prefix": [
              "dr"
            ],
            "given": [
              "Ex"
            ],
            "family": "Ample"
          }
        ],
        "address": [
          {
            "line": [
              "Laboratoire Central Européenne",
              "Boulevard du Jardin Botanique 32"
            ],
            "postalCode": "1000",
            "city": "Brussels",
            "country": "Belgium"
          }
        ],
        "text": {
          "status": "generated",
          "div": "<div xmlns=\"http://www.w3.org/1999/xhtml\">Laboratory: Laboratoire Central Européenne, 1000 Brussels, Belgium</div>"
        }
      }
    }
  ],
  "type": "document",
  "timestamp": "2021-12-21T06:26:59Z"
}
