{
  "resourceType": "Bundle",
  "id": "bc2198d1-9b79-4c2c-8b88-522fcd325860",
  "meta": {
    "profile": [
      "http://hl7.eu/fhir/laboratory/StructureDefinition/Bundle-eu-lab"
    ]
  },
  "identifier": {
    "assigner": {
      "display": "HL7 Europe"
    },
    "system": "urn:oid:2.16.840.1.113883.2.51.999",
    "value": "150192e4-bbe5-46f8-aa3b-7b163b6e34b2"
  },
  "entry": [
    {
      "fullUrl": "urn:uuid:28aeb798-bef9-4e49-848f-64d1d7191e77",
      "resource": {
        "resourceType": "Composition",
        "id": "28aeb798-bef9-4e49-848f-64d1d7191e77",
        "meta": {
          "profile": [
            "http://hl7.eu/fhir/laboratory/StructureDefinition/Composition-eu-lab"
          ]
        },
        "identifier": {
          "assigner": {
            "display": "HL7 Europe"
          },
          "system": "urn:oid:2.16.840.1.113883.2.51.999",
          "value": "8a106446-85b6-4c42-bbfe-21d7787da723"
        },
        "author": [
          {
            "reference": "urn:uuid:502db295-3d98-457c-b34a-7cf4683be518"
          }
        ],
        "category": [
          {
            "coding": [
              {
                "code": "26436-6",
                "system": "http://loinc.org",
                "display": "Laboratory studies (set)"
              }
            ]
          }
        ],
        "type": {
          "coding": [
            {
              "code": "11502-2",
              "system": "http://loinc.org",
              "display": "Laboratory report"
            }
          ],
          "text": "Laboratory Report"
        },
        "section": [
          {
            "code": {
              "coding": [
                {
                  "code": "26436-6",
                  "system": "http://loinc.org",
                  "display": "Laboratory studies (set)"
                }
              ],
              "text": "Laboratory studies"
            },
            "section": [
              {
                "code": {
                  "coding": [
                    {
                      "code": "$18719-5",
                      "system": "http://loinc.org",
                      "display": "Chemistry studies (set)"
                    }
                  ],
                  "text": "Chemistry"
                },
                "entry": [
                  {
                    "reference": "urn:uuid:555f05c5-3a04-46df-b806-5caf6252c247"
                  },
                  {
                    "reference": "urn:uuid:0b3d2348-0e07-4ae5-a1d6-f47470e1040d"
                  },
                  {
                    "reference": "urn:uuid:e50b0aed-84f5-486a-9408-d9e2ffe36b8a"
                  },
                  {
                    "reference": "urn:uuid:5f3f4742-687e-42d4-a48d-aaa2cf208a77"
                  },
                  {
                    "reference": "urn:uuid:3c210447-6711-4f67-aa12-b6b83efd2cd7"
                  },
                  {
                    "reference": "urn:uuid:d71562f5-4590-43a1-9464-c8607d10b800"
                  },
                  {
                    "reference": "urn:uuid:5adbe383-3c18-43bb-97a2-d275dae91a71"
                  },
                  {
                    "reference": "urn:uuid:bc739b77-28ee-46f4-b278-00bf53f02924"
                  },
                  {
                    "reference": "urn:uuid:7f16f0b6-89cb-4418-8e0b-b757991f351c"
                  },
                  {
                    "reference": "urn:uuid:8da01377-1b21-4c35-a948-6bffda4c358a"
                  }
                ],
                "text": {
                  "status": "generated",
                  "div": "<div xmlns=\"http://www.w3.org/1999/xhtml\"><h3>Chemistry</h3><table class=\"hl7__eu__lab__report\"><thead><tr><th>Test</th><th>06-JUL-2017</th><th>Reference&#xA0;Range</th><th>Unit</th></tr></thead><tbody><tr><td>Glucose [Mass/volume] in Serum or Plasma</td><td>73.8</td><td>70 - 139</td><td>mg/dL</td></tr><tr><td>Urea nitrogen [Mass/volume] in Serum or Plasma</td><td>15.6</td><td>7 - 20</td><td>mg/dL</td></tr><tr><td>Creatinine [Mass/volume] in Serum or Plasma</td><td><strong>1.9 H</strong></td><td>0.6 - 1.1</td><td>mg/dL</td></tr><tr><td>Calcium [Mass/volume] in Serum or Plasma</td><td>8.8</td><td>8.5 - 10.4</td><td>mg/dL</td></tr><tr><td>Sodium [Moles/volume] in Serum or Plasma</td><td>138.5</td><td>135 - 145</td><td>mmol/L</td></tr><tr><td>Potassium [Moles/volume] in Serum or Plasma</td><td>4.7</td><td>3.5 - 5.1</td><td>mmol/L</td></tr><tr><td>Chloride [Moles/volume] in Serum or Plasma</td><td>101.4</td><td>98 - 110</td><td>mmol/L</td></tr><tr><td>Carbon dioxide, total [Moles/volume] in Serum or Plasma</td><td><strong>21.9 L</strong></td><td>22 - 32</td><td>mmol/L</td></tr><tr><td>Ketones [Presence] in Urine by Test strip</td><td>Urine ketone test = +</td><td></td><td></td></tr><tr><td>Hemoglobin A1c/Hemoglobin.total in Blood</td><td><strong>2.9 L</strong></td><td>4 - 6</td><td>%</td></tr></tbody></table></div>"
                },
                "title": "Chemistry"
              },
              {
                "code": {
                  "coding": [
                    {
                      "code": "$18729-4",
                      "system": "http://loinc.org",
                      "display": "Urinalysis studies (set)"
                    }
                  ],
                  "text": "Urinalysis"
                },
                "entry": [
                  {
                    "reference": "urn:uuid:af7c39da-7fc0-4f81-82ed-96440045f59a"
                  },
                  {
                    "reference": "urn:uuid:894eb020-b82f-44f7-84ee-d260fb10fffe"
                  },
                  {
                    "reference": "urn:uuid:21621e3a-c19d-4d0f-9806-212e98e7edf2"
                  },
                  {
                    "reference": "urn:uuid:de4fccee-f09b-4f3c-a7fc-ce3f3f9434f6"
                  },
                  {
                    "reference": "urn:uuid:2e7e73b4-a282-4097-9dc6-0d59e47cf34e"
                  },
                  {
                    "reference": "urn:uuid:68a3580c-2b2d-4040-ba4a-baee2d8d6e46"
                  },
                  {
                    "reference": "urn:uuid:e5fd9f04-4cfd-4ebf-affd-829b8b381fae"
                  },
                  {
                    "reference": "urn:uuid:a11df8eb-d6ed-442d-bf26-53085b02daf4"
                  },
                  {
                    "reference": "urn:uuid:8cb2fc16-d4a3-4100-bcf5-5ddfe3c1e2ea"
                  },
                  {
                    "reference": "urn:uuid:1303fede-2419-4dfa-93d6-eb3c59cf1c10"
                  },
                  {
                    "reference": "urn:uuid:fb141b1b-8081-4cbb-8f90-e8d07dd993a6"
                  },
                  {
                    "reference": "urn:uuid:d6356f47-0ddb-40dd-a380-1216be8f7478"
                  }
                ],
                "text": {
                  "status": "generated",
                  "div": "<div xmlns=\"http://www.w3.org/1999/xhtml\"><h3>Urinalysis</h3><table class=\"hl7__eu__lab__report\"><thead><tr><th>Test</th><th>06-JUL-2017</th><th>Reference&#xA0;Range</th><th>Unit</th></tr></thead><tbody><tr><td>Glucose [Mass/volume] in Urine by Test strip</td><td><strong>1.8 H</strong></td><td>0 - 0</td><td>mg/dL</td></tr><tr><td>Glucose [Presence] in Urine by Test strip</td><td>++</td><td></td><td></td></tr><tr><td>Bilirubin.total [Mass/volume] in Urine by Test strip</td><td>0.7</td><td>0 - 1.6</td><td>mg/dL</td></tr><tr><td>Bilirubin.total [Presence] in Urine by Test strip</td><td>Finding of bilirubin in urine</td><td></td><td></td></tr><tr><td>Ketones [Mass/volume] in Urine by Test strip</td><td><strong>15.2 H</strong></td><td>0 - 0.5</td><td>mg/dL</td></tr><tr><td>Specific gravity of Urine by Test strip</td><td><strong>1.0 L</strong></td><td>1.005 - 1.03</td><td>{nominal}</td></tr><tr><td>pH of Urine by Test strip</td><td>5.7</td><td>4.5 - 7.5</td><td>pH</td></tr><tr><td>Protein [Mass/volume] in Urine by Test strip</td><td><strong>324.4 H</strong></td><td>0 - 15</td><td>mg/dL</td></tr><tr><td>Protein [Presence] in Urine by Test strip</td><td>Urine protein test = ++</td><td></td><td></td></tr><tr><td>Nitrite [Presence] in Urine by Test strip</td><td>Urine nitrite negative</td><td></td><td></td></tr><tr><td>Hemoglobin [Presence] in Urine by Test strip</td><td>Urine blood test = negative</td><td></td><td></td></tr><tr><td>Leukocyte esterase [Presence] in Urine by Test strip</td><td>Urine leukocyte test negative</td><td></td><td></td></tr></tbody></table></div>"
                },
                "title": "Urinalysis"
              },
              {
                "code": {
                  "coding": [
                    {
                      "code": "$LP7846-1",
                      "system": "http://loinc.org",
                      "display": "Specimen information"
                    }
                  ],
                  "text": "Specimen information"
                },
                "entry": [
                  {
                    "reference": "urn:uuid:8781cb39-b775-47fd-9485-ae400a69313b"
                  },
                  {
                    "reference": "urn:uuid:5897ad75-df84-4f2f-93f5-cd1f0f832b49"
                  },
                  {
                    "reference": "urn:uuid:a7743c57-5929-4828-b252-e31ba68d43d1"
                  },
                  {
                    "reference": "urn:uuid:181b248d-c004-43fc-8ab7-db77d599eedc"
                  }
                ],
                "text": {
                  "status": "generated",
                  "div": "<div xmlns=\"http://www.w3.org/1999/xhtml\"><h3>Specimen information</h3><table class=\"hl7__eu__lab__report\"><thead><tr><th>Test</th><th>06-JUL-2017</th><th>Specimen</th><th></th></tr></thead><tbody><tr><td>Appearance of Urine</td><td>Cloudy urine</td><td>Urine</td><td></td></tr><tr><td>Odor of Urine</td><td>Urine smell ammoniacal</td><td>Urine</td><td></td></tr><tr><td>Clarity of Urine</td><td>Translucent</td><td>Urine</td><td></td></tr><tr><td>Color of Urine</td><td>Brown color</td><td>Urine</td><td></td></tr></tbody></table></div>"
                },
                "title": "Specimen information"
              }
            ],
            "title": "Laboratory Report"
          },
          {
            "text": {
              "status": "generated",
              "div": "<div xmlns=\"http://www.w3.org/1999/xhtml\"><h3>Annotation</h3><table class=\"hl7__eu__lab__report\"><tr><th>Conclusion and Recommendations based on this report and previous findings known to us</th></tr><tr><td>The patient shows elevated serum creatinine, low total CO₂, and significant proteinuria, glycosuria, and ketonuria, with low urine specific gravity. These findings suggest impaired renal function, possible metabolic acidosis, and abnormal glucose handling despite low HbA1c. Urine abnormalities (cloudy, brown, ammoniacal) further support renal involvement. Recommend urgent clinical evaluation for possible acute or chronic kidney disease and metabolic derangements.</td></tr></table></div>"
            },
            "code": {
              "coding": [
                {
                  "system": "http://loinc.org",
                  "code": "48767-8",
                  "display": "Annotation comment"
                }
              ]
            },
            "title": "Annotation comment"
          }
        ],
        "status": "final",
        "subject": {
          "reference": "urn:uuid:a23fbe50-7516-4511-8180-15406e923b77",
          "display": "Molly Jenkins"
        },
        "date": "2017-07-06T16:42:11Z",
        "title": "Laboratory Report",
        "confidentiality": "N"
      }
    },
    {
      "fullUrl": "urn:uuid:39db2e36-33a4-44ed-aeba-5cbe2fd18b9e",
      "resource": {
        "resourceType": "DiagnosticReport",
        "id": "39db2e36-33a4-44ed-aeba-5cbe2fd18b9e",
        "meta": {
          "profile": [
            "http://hl7.eu/fhir/laboratory/StructureDefinition/DiagnosticReport-eu-lab"
          ]
        },
        "identifier": [
          {
            "assigner": {
              "display": "HL7 Europe"
            },
            "system": "urn:oid:2.16.840.1.113883.2.51.999",
            "value": "c02471a4-ee2f-49a9-9eb0-3bab09c7f7a7"
          }
        ],
        "extension": [
          {
            "url": "http://hl7.org/fhir/5.0/StructureDefinition/extension-DiagnosticReport.composition",
            "valueReference": {
              "reference": "urn:uuid:8a106446-85b6-4c42-bbfe-21d7787da723"
            }
          }
        ],
        "category": [
          {
            "coding": [
              {
                "code": "26436-6",
                "system": "http://loinc.org",
                "display": "Laboratory studies (set)"
              }
            ]
          }
        ],
        "specimen": [
          {
            "reference": "urn:uuid:d5b009bc-1d39-4025-969c-6b2193af29bc"
          },
          {
            "reference": "urn:uuid:85fb120c-42ba-4f20-a8e6-2a1b16ef8e43"
          },
          {
            "reference": "urn:uuid:48582ea3-b997-418d-8a4d-f68d854daf88"
          }
        ],
        "result": [
          {
            "reference": "urn:uuid:555f05c5-3a04-46df-b806-5caf6252c247"
          },
          {
            "reference": "urn:uuid:0b3d2348-0e07-4ae5-a1d6-f47470e1040d"
          },
          {
            "reference": "urn:uuid:e50b0aed-84f5-486a-9408-d9e2ffe36b8a"
          },
          {
            "reference": "urn:uuid:5f3f4742-687e-42d4-a48d-aaa2cf208a77"
          },
          {
            "reference": "urn:uuid:3c210447-6711-4f67-aa12-b6b83efd2cd7"
          },
          {
            "reference": "urn:uuid:d71562f5-4590-43a1-9464-c8607d10b800"
          },
          {
            "reference": "urn:uuid:5adbe383-3c18-43bb-97a2-d275dae91a71"
          },
          {
            "reference": "urn:uuid:bc739b77-28ee-46f4-b278-00bf53f02924"
          },
          {
            "reference": "urn:uuid:8781cb39-b775-47fd-9485-ae400a69313b"
          },
          {
            "reference": "urn:uuid:5897ad75-df84-4f2f-93f5-cd1f0f832b49"
          },
          {
            "reference": "urn:uuid:a7743c57-5929-4828-b252-e31ba68d43d1"
          },
          {
            "reference": "urn:uuid:181b248d-c004-43fc-8ab7-db77d599eedc"
          },
          {
            "reference": "urn:uuid:af7c39da-7fc0-4f81-82ed-96440045f59a"
          },
          {
            "reference": "urn:uuid:894eb020-b82f-44f7-84ee-d260fb10fffe"
          },
          {
            "reference": "urn:uuid:21621e3a-c19d-4d0f-9806-212e98e7edf2"
          },
          {
            "reference": "urn:uuid:de4fccee-f09b-4f3c-a7fc-ce3f3f9434f6"
          },
          {
            "reference": "urn:uuid:2e7e73b4-a282-4097-9dc6-0d59e47cf34e"
          },
          {
            "reference": "urn:uuid:7f16f0b6-89cb-4418-8e0b-b757991f351c"
          },
          {
            "reference": "urn:uuid:68a3580c-2b2d-4040-ba4a-baee2d8d6e46"
          },
          {
            "reference": "urn:uuid:e5fd9f04-4cfd-4ebf-affd-829b8b381fae"
          },
          {
            "reference": "urn:uuid:a11df8eb-d6ed-442d-bf26-53085b02daf4"
          },
          {
            "reference": "urn:uuid:8cb2fc16-d4a3-4100-bcf5-5ddfe3c1e2ea"
          },
          {
            "reference": "urn:uuid:1303fede-2419-4dfa-93d6-eb3c59cf1c10"
          },
          {
            "reference": "urn:uuid:fb141b1b-8081-4cbb-8f90-e8d07dd993a6"
          },
          {
            "reference": "urn:uuid:d6356f47-0ddb-40dd-a380-1216be8f7478"
          },
          {
            "reference": "urn:uuid:8da01377-1b21-4c35-a948-6bffda4c358a"
          }
        ],
        "status": "registered",
        "code": {
          "coding": [
            {
              "code": "11502-2",
              "system": "http://loinc.org",
              "display": "Laboratory report"
            }
          ]
        },
        "subject": {
          "reference": "urn:uuid:a23fbe50-7516-4511-8180-15406e923b77",
          "display": "Molly Jenkins"
        }
      }
    },
    {
      "fullUrl": "urn:uuid:a23fbe50-7516-4511-8180-15406e923b77",
      "resource": {
        "resourceType": "Patient",
        "id": "a23fbe50-7516-4511-8180-15406e923b77",
        "meta": {
          "security": [
            {
              "system": "http://terminology.hl7.org/CodeSystem/v3-ActReason",
              "code": "HTEST"
            },
            {
              "system": "http://terminology.hl7.org/CodeSystem/v3-ActReason",
              "code": "TRAIN"
            }
          ],
          "tag": [
            {
              "system": "https://synderai.net/fhir/CodeSystem/tags",
              "code": "synthetic",
              "display": "SYNDERAI Synthetic data"
            }
          ],
          "profile": [
            "http://hl7.eu/fhir/base/StructureDefinition/patient-eu-core"
          ]
        },
        "identifier": [
          {
            "type": {
              "coding": [
                {
                  "code": "PT",
                  "system": "http://terminology.hl7.org/CodeSystem/v2-0203"
                }
              ]
            },
            "system": "http://ec.europa.eu/identifier/eci",
            "value": "7634-012682-0"
          },
          {
            "type": {
              "coding": [
                {
                  "code": "MR",
                  "system": "http://terminology.hl7.org/CodeSystem/v2-0203"
                }
              ]
            },
            "system": "http://local.setting.eu/identifier",
            "value": "9934a8eb-b6e1-34e1-edf5-57a0262d1bea"
          }
        ],
        "name": [
          {
            "family": "Jenkins"
          },
          {
            "given": [
              "Molly"
            ]
          },
          {
            "text": "Molly Jenkins"
          }
        ],
        "address": [
          {
            "line": [
              "98 Ali field"
            ],
            "use": "home",
            "type": "physical",
            "postalCode": "AB42",
            "city": "Port Jennamouth",
            "country": "United Kingdom"
          }
        ],
        "telecom": [
          {
            "system": "phone",
            "value": "(0118) 496 0334"
          }
        ],
        "extension": [
          {
            "url": "http://hl7.org/fhir/StructureDefinition/patient-nationality",
            "valueCodeableConcept": {
              "coding": [
                {
                  "code": "GB",
                  "system": "http://hl7.org/fhir/ValueSet/country"
                }
              ]
            }
          }
        ],
        "text": {
          "status": "generated",
          "div": "<div xmlns=\"http://www.w3.org/1999/xhtml\"><table class=\"hl7__ips\"><tr><td>Molly Jenkins</td><td>female</td><td>14-Aug-1967</td></tr></table></div>"
        },
        "gender": "female",
        "birthDate": "1967-08-14"
      }
    },
    {
      "fullUrl": "urn:uuid:46ea0723-dfa8-4949-a48a-ab6ba5fd6b0f",
      "resource": {
        "resourceType": "ServiceRequest",
        "id": "46ea0723-dfa8-4949-a48a-ab6ba5fd6b0f",
        "meta": {
          "profile": [
            "http://hl7.eu/fhir/laboratory/StructureDefinition/ServiceRequest-eu-lab"
          ]
        },
        "identifier": [
          {
            "system": "http://example.org",
            "value": "9f5f089e-8ffa-4667-87c7-1d2fff0bf080"
          }
        ],
        "specimen": [
          {
            "reference": "urn:uuid:d5b009bc-1d39-4025-969c-6b2193af29bc"
          },
          {
            "reference": "urn:uuid:85fb120c-42ba-4f20-a8e6-2a1b16ef8e43"
          },
          {
            "reference": "urn:uuid:48582ea3-b997-418d-8a4d-f68d854daf88"
          }
        ],
        "reasonCode": [
          {
            "coding": [
              {
                "code": "431856006",
                "system": "http://snomed.info/sct",
                "display": "Chronic kidney disease stage 2"
              }
            ]
          },
          {
            "coding": [
              {
                "code": "90781000119102",
                "system": "http://snomed.info/sct",
                "display": "Microalbuminuria due to type 2 diabetes mellitus"
              }
            ]
          },
          {
            "coding": [
              {
                "code": "127013003",
                "system": "http://snomed.info/sct",
                "display": "Disorder of kidney due to diabetes mellitus"
              }
            ]
          },
          {
            "coding": [
              {
                "code": "431855005",
                "system": "http://snomed.info/sct",
                "display": "Chronic kidney disease stage 1"
              }
            ]
          },
          {
            "coding": [
              {
                "code": "15777000",
                "system": "http://snomed.info/sct",
                "display": "Prediabetes"
              }
            ]
          },
          {
            "coding": [
              {
                "code": "59621000",
                "system": "http://snomed.info/sct",
                "display": "Essential hypertension"
              }
            ]
          },
          {
            "coding": [
              {
                "code": "53827007",
                "system": "http://snomed.info/sct",
                "display": "Excessive salivation"
              }
            ]
          },
          {
            "coding": [
              {
                "code": "64859006",
                "system": "http://snomed.info/sct",
                "display": "Osteoporosis"
              }
            ]
          },
          {
            "coding": [
              {
                "code": "128188000",
                "system": "http://snomed.info/sct",
                "display": "Cerebral palsy"
              }
            ]
          },
          {
            "coding": [
              {
                "code": "235595009",
                "system": "http://snomed.info/sct",
                "display": "Gastroesophageal reflux disease"
              }
            ]
          }
        ],
        "status": "active",
        "intent": "order",
        "code": {
          "coding": [
            {
              "code": "108252007",
              "system": "http://snomed.info/sct",
              "display": "Laboratory procedure"
            }
          ]
        },
        "subject": {
          "reference": "urn:uuid:a23fbe50-7516-4511-8180-15406e923b77",
          "display": "Molly Jenkins"
        },
        "requester": {
          "reference": "urn:uuid:b3d6451b-8e81-4487-9099-11dc64923b9f"
        }
      }
    },
    {
      "fullUrl": "urn:uuid:b3d6451b-8e81-4487-9099-11dc64923b9f",
      "resource": {
        "resourceType": "PractitionerRole",
        "id": "b3d6451b-8e81-4487-9099-11dc64923b9f",
        "meta": {
          "profile": [
            "http://hl7.eu/fhir/base/StructureDefinition/practitionerRole-eu"
          ]
        },
        "text": {
          "status": "generated",
          "div": "<div xmlns=\"http://www.w3.org/1999/xhtml\">Provider Role Id: b3d6451b-8e81-4487-9099-11dc64923b9f</div>"
        },
        "organization": {
          "reference": "urn:uuid:4ab6095a-a295-479c-8cca-b677b8affb37"
        }
      }
    },
    {
      "fullUrl": "urn:uuid:4ab6095a-a295-479c-8cca-b677b8affb37",
      "resource": {
        "resourceType": "Organization",
        "id": "4ab6095a-a295-479c-8cca-b677b8affb37",
        "meta": {
          "profile": [
            "http://hl7.eu/fhir/base/StructureDefinition/organization-eu"
          ]
        },
        "identifier": [
          {
            "assigner": {
              "display": "HL7 Europe"
            },
            "system": "urn:oid:2.16.840.1.113883.2.51.999",
            "value": "8265e35b-559d-414d-8d4a-a041881e9597"
          }
        ],
        "address": [
          {
            "city": "Aberdeen",
            "postalCode": "AB11 6",
            "country": "United Kingdom"
          }
        ],
        "text": {
          "status": "generated",
          "div": "<div xmlns=\"http://www.w3.org/1999/xhtml\">Provider Organization: Aberdeen Community Health and Care Village</div>"
        },
        "name": "Aberdeen Community Health and Care Village"
      }
    },
    {
      "fullUrl": "urn:uuid:d5b009bc-1d39-4025-969c-6b2193af29bc",
      "resource": {
        "resourceType": "Specimen",
        "id": "d5b009bc-1d39-4025-969c-6b2193af29bc",
        "meta": {
          "profile": [
            "http://hl7.eu/fhir/laboratory/StructureDefinition/Specimen-eu-lab"
          ]
        },
        "collection": {
          "collectedDateTime": "2017-07-06"
        },
        "text": {
          "status": "generated",
          "div": "<div xmlns=\"http://www.w3.org/1999/xhtml\"><table class=\"hl7__eu__lab__report\"><tr><th>Specimen</th><th>Collection Date</th></tr><tr><td>Acellular blood (serum or plasma) specimen</td><td><span class=\"nb\">06-Jul-2017</span></td></tr></table></div>"
        },
        "type": {
          "coding": [
            {
              "code": "122592007",
              "system": "http://snomed.info/sct",
              "display": "Acellular blood (serum or plasma) specimen"
            }
          ]
        }
      }
    },
    {
      "fullUrl": "urn:uuid:85fb120c-42ba-4f20-a8e6-2a1b16ef8e43",
      "resource": {
        "resourceType": "Specimen",
        "id": "85fb120c-42ba-4f20-a8e6-2a1b16ef8e43",
        "meta": {
          "profile": [
            "http://hl7.eu/fhir/laboratory/StructureDefinition/Specimen-eu-lab"
          ]
        },
        "collection": {
          "collectedDateTime": "2017-07-06"
        },
        "text": {
          "status": "generated",
          "div": "<div xmlns=\"http://www.w3.org/1999/xhtml\"><table class=\"hl7__eu__lab__report\"><tr><th>Specimen</th><th>Collection Date</th></tr><tr><td>Urine specimen</td><td><span class=\"nb\">06-Jul-2017</span></td></tr></table></div>"
        },
        "type": {
          "coding": [
            {
              "code": "122575003",
              "system": "http://snomed.info/sct",
              "display": "Urine specimen"
            }
          ]
        }
      }
    },
    {
      "fullUrl": "urn:uuid:48582ea3-b997-418d-8a4d-f68d854daf88",
      "resource": {
        "resourceType": "Specimen",
        "id": "48582ea3-b997-418d-8a4d-f68d854daf88",
        "meta": {
          "profile": [
            "http://hl7.eu/fhir/laboratory/StructureDefinition/Specimen-eu-lab"
          ]
        },
        "collection": {
          "collectedDateTime": "2017-07-06"
        },
        "text": {
          "status": "generated",
          "div": "<div xmlns=\"http://www.w3.org/1999/xhtml\"><table class=\"hl7__eu__lab__report\"><tr><th>Specimen</th><th>Collection Date</th></tr><tr><td>Whole blood specimen (specimen)</td><td><span class=\"nb\">06-Jul-2017</span></td></tr></table></div>"
        },
        "type": {
          "coding": [
            {
              "code": "258580003",
              "system": "http://snomed.info/sct",
              "display": "Whole blood specimen (specimen)"
            }
          ]
        }
      }
    },
    {
      "fullUrl": "urn:uuid:555f05c5-3a04-46df-b806-5caf6252c247",
      "resource": {
        "resourceType": "Observation",
        "id": "555f05c5-3a04-46df-b806-5caf6252c247",
        "meta": {
          "profile": [
            "http://hl7.eu/fhir/laboratory/StructureDefinition/Observation-resultslab-eu-lab"
          ]
        },
        "performer": [
          {
            "display": "The Central European Lab"
          }
        ],
        "category": [
          {
            "coding": [
              {
                "system": "http://terminology.hl7.org/CodeSystem/observation-category",
                "code": "laboratory"
              }
            ]
          }
        ],
        "code": {
          "coding": [
            {
              "code": "2345-7",
              "system": "http://loinc.org",
              "display": "Glucose [Mass/volume] in Serum or Plasma"
            }
          ],
          "text": "Glucose [Mass/volume] in Serum or Plasma"
        },
        "valueQuantity": {
          "system": "http://unitsofmeasure.org",
          "value": 73.8,
          "unit": "mg/dL",
          "code": "mg/dL"
        },
        "referenceRange": [
          {
            "low": {
              "value": 70,
              "code": "mg/dL",
              "system": "http://unitsofmeasure.org"
            }
          },
          {
            "high": {
              "value": 139,
              "code": "mg/dL",
              "system": "http://unitsofmeasure.org"
            }
          }
        ],
        "text": {
          "status": "generated",
          "div": "<div xmlns=\"http://www.w3.org/1999/xhtml\"><table class=\"hl7__eu__lab__report\"><tr><th>Test</th><th>06-Jul-2017</th><th>Reference&#xA0;Range</th><th>Unit</th></tr><tr><td>Glucose [Mass/volume] in Serum or Plasma</td><td>73.8</td><td>70 - 139</td><td></td><td>mg/dL</td></tr></table></div>"
        },
        "status": "final",
        "subject": {
          "reference": "urn:uuid:a23fbe50-7516-4511-8180-15406e923b77",
          "display": "Molly Jenkins"
        },
        "effectiveDateTime": "2017-07-06T14:42:11Z",
        "specimen": {
          "reference": "urn:uuid:d5b009bc-1d39-4025-969c-6b2193af29bc"
        }
      }
    },
    {
      "fullUrl": "urn:uuid:0b3d2348-0e07-4ae5-a1d6-f47470e1040d",
      "resource": {
        "resourceType": "Observation",
        "id": "0b3d2348-0e07-4ae5-a1d6-f47470e1040d",
        "meta": {
          "profile": [
            "http://hl7.eu/fhir/laboratory/StructureDefinition/Observation-resultslab-eu-lab"
          ]
        },
        "performer": [
          {
            "display": "The Central European Lab"
          }
        ],
        "category": [
          {
            "coding": [
              {
                "system": "http://terminology.hl7.org/CodeSystem/observation-category",
                "code": "laboratory"
              }
            ]
          }
        ],
        "code": {
          "coding": [
            {
              "code": "3094-0",
              "system": "http://loinc.org",
              "display": "Urea nitrogen [Mass/volume] in Serum or Plasma"
            }
          ],
          "text": "Urea nitrogen [Mass/volume] in Serum or Plasma"
        },
        "valueQuantity": {
          "system": "http://unitsofmeasure.org",
          "value": 15.6,
          "unit": "mg/dL",
          "code": "mg/dL"
        },
        "referenceRange": [
          {
            "low": {
              "value": 7,
              "code": "mg/dL",
              "system": "http://unitsofmeasure.org"
            }
          },
          {
            "high": {
              "value": 20,
              "code": "mg/dL",
              "system": "http://unitsofmeasure.org"
            }
          }
        ],
        "text": {
          "status": "generated",
          "div": "<div xmlns=\"http://www.w3.org/1999/xhtml\"><table class=\"hl7__eu__lab__report\"><tr><th>Test</th><th>06-Jul-2017</th><th>Reference&#xA0;Range</th><th>Unit</th></tr><tr><td>Urea nitrogen [Mass/volume] in Serum or Plasma</td><td>15.6</td><td>7 - 20</td><td></td><td>mg/dL</td></tr></table></div>"
        },
        "status": "final",
        "subject": {
          "reference": "urn:uuid:a23fbe50-7516-4511-8180-15406e923b77",
          "display": "Molly Jenkins"
        },
        "effectiveDateTime": "2017-07-06T14:42:11Z",
        "specimen": {
          "reference": "urn:uuid:d5b009bc-1d39-4025-969c-6b2193af29bc"
        }
      }
    },
    {
      "fullUrl": "urn:uuid:e50b0aed-84f5-486a-9408-d9e2ffe36b8a",
      "resource": {
        "resourceType": "Observation",
        "id": "e50b0aed-84f5-486a-9408-d9e2ffe36b8a",
        "meta": {
          "profile": [
            "http://hl7.eu/fhir/laboratory/StructureDefinition/Observation-resultslab-eu-lab"
          ]
        },
        "performer": [
          {
            "display": "The Central European Lab"
          }
        ],
        "category": [
          {
            "coding": [
              {
                "system": "http://terminology.hl7.org/CodeSystem/observation-category",
                "code": "laboratory"
              }
            ]
          }
        ],
        "code": {
          "coding": [
            {
              "code": "2160-0",
              "system": "http://loinc.org",
              "display": "Creatinine [Mass/volume] in Serum or Plasma"
            }
          ],
          "text": "Creatinine [Mass/volume] in Serum or Plasma"
        },
        "valueQuantity": {
          "system": "http://unitsofmeasure.org",
          "value": 1.9,
          "unit": "mg/dL",
          "code": "mg/dL"
        },
        "referenceRange": [
          {
            "low": {
              "value": 0.6,
              "code": "mg/dL",
              "system": "http://unitsofmeasure.org"
            }
          },
          {
            "high": {
              "value": 1.1,
              "code": "mg/dL",
              "system": "http://unitsofmeasure.org"
            }
          }
        ],
        "interpretation": [
          {
            "coding": [
              {
                "code": "H",
                "system": "http://terminology.hl7.org/CodeSystem/v3-ObservationInterpretation",
                "display": "High"
              }
            ]
          }
        ],
        "text": {
          "status": "generated",
          "div": "<div xmlns=\"http://www.w3.org/1999/xhtml\"><table class=\"hl7__eu__lab__report\"><tr><th>Test</th><th>06-Jul-2017</th><th>Reference&#xA0;Range</th><th>Unit</th></tr><tr><td>Creatinine [Mass/volume] in Serum or Plasma</td><td>1.9</td><td>0.6 - 1.1</td><td>H</td><td>mg/dL</td></tr></table></div>"
        },
        "status": "final",
        "subject": {
          "reference": "urn:uuid:a23fbe50-7516-4511-8180-15406e923b77",
          "display": "Molly Jenkins"
        },
        "effectiveDateTime": "2017-07-06T14:42:11Z",
        "specimen": {
          "reference": "urn:uuid:d5b009bc-1d39-4025-969c-6b2193af29bc"
        }
      }
    },
    {
      "fullUrl": "urn:uuid:5f3f4742-687e-42d4-a48d-aaa2cf208a77",
      "resource": {
        "resourceType": "Observation",
        "id": "5f3f4742-687e-42d4-a48d-aaa2cf208a77",
        "meta": {
          "profile": [
            "http://hl7.eu/fhir/laboratory/StructureDefinition/Observation-resultslab-eu-lab"
          ]
        },
        "performer": [
          {
            "display": "The Central European Lab"
          }
        ],
        "category": [
          {
            "coding": [
              {
                "system": "http://terminology.hl7.org/CodeSystem/observation-category",
                "code": "laboratory"
              }
            ]
          }
        ],
        "code": {
          "coding": [
            {
              "code": "17861-6",
              "system": "http://loinc.org",
              "display": "Calcium [Mass/volume] in Serum or Plasma"
            }
          ],
          "text": "Calcium [Mass/volume] in Serum or Plasma"
        },
        "valueQuantity": {
          "system": "http://unitsofmeasure.org",
          "value": 8.8,
          "unit": "mg/dL",
          "code": "mg/dL"
        },
        "referenceRange": [
          {
            "low": {
              "value": 8.5,
              "code": "mg/dL",
              "system": "http://unitsofmeasure.org"
            }
          },
          {
            "high": {
              "value": 10.4,
              "code": "mg/dL",
              "system": "http://unitsofmeasure.org"
            }
          }
        ],
        "text": {
          "status": "generated",
          "div": "<div xmlns=\"http://www.w3.org/1999/xhtml\"><table class=\"hl7__eu__lab__report\"><tr><th>Test</th><th>06-Jul-2017</th><th>Reference&#xA0;Range</th><th>Unit</th></tr><tr><td>Calcium [Mass/volume] in Serum or Plasma</td><td>8.8</td><td>8.5 - 10.4</td><td></td><td>mg/dL</td></tr></table></div>"
        },
        "status": "final",
        "subject": {
          "reference": "urn:uuid:a23fbe50-7516-4511-8180-15406e923b77",
          "display": "Molly Jenkins"
        },
        "effectiveDateTime": "2017-07-06T14:42:11Z",
        "specimen": {
          "reference": "urn:uuid:d5b009bc-1d39-4025-969c-6b2193af29bc"
        }
      }
    },
    {
      "fullUrl": "urn:uuid:3c210447-6711-4f67-aa12-b6b83efd2cd7",
      "resource": {
        "resourceType": "Observation",
        "id": "3c210447-6711-4f67-aa12-b6b83efd2cd7",
        "meta": {
          "profile": [
            "http://hl7.eu/fhir/laboratory/StructureDefinition/Observation-resultslab-eu-lab"
          ]
        },
        "performer": [
          {
            "display": "The Central European Lab"
          }
        ],
        "category": [
          {
            "coding": [
              {
                "system": "http://terminology.hl7.org/CodeSystem/observation-category",
                "code": "laboratory"
              }
            ]
          }
        ],
        "code": {
          "coding": [
            {
              "code": "2951-2",
              "system": "http://loinc.org",
              "display": "Sodium [Moles/volume] in Serum or Plasma"
            }
          ],
          "text": "Sodium [Moles/volume] in Serum or Plasma"
        },
        "valueQuantity": {
          "system": "http://unitsofmeasure.org",
          "value": 138.5,
          "unit": "mmol/L",
          "code": "mmol/L"
        },
        "referenceRange": [
          {
            "low": {
              "value": 135,
              "code": "mmol/L",
              "system": "http://unitsofmeasure.org"
            }
          },
          {
            "high": {
              "value": 145,
              "code": "mmol/L",
              "system": "http://unitsofmeasure.org"
            }
          }
        ],
        "text": {
          "status": "generated",
          "div": "<div xmlns=\"http://www.w3.org/1999/xhtml\"><table class=\"hl7__eu__lab__report\"><tr><th>Test</th><th>06-Jul-2017</th><th>Reference&#xA0;Range</th><th>Unit</th></tr><tr><td>Sodium [Moles/volume] in Serum or Plasma</td><td>138.5</td><td>135 - 145</td><td></td><td>mmol/L</td></tr></table></div>"
        },
        "status": "final",
        "subject": {
          "reference": "urn:uuid:a23fbe50-7516-4511-8180-15406e923b77",
          "display": "Molly Jenkins"
        },
        "effectiveDateTime": "2017-07-06T14:42:11Z",
        "specimen": {
          "reference": "urn:uuid:d5b009bc-1d39-4025-969c-6b2193af29bc"
        }
      }
    },
    {
      "fullUrl": "urn:uuid:d71562f5-4590-43a1-9464-c8607d10b800",
      "resource": {
        "resourceType": "Observation",
        "id": "d71562f5-4590-43a1-9464-c8607d10b800",
        "meta": {
          "profile": [
            "http://hl7.eu/fhir/laboratory/StructureDefinition/Observation-resultslab-eu-lab"
          ]
        },
        "performer": [
          {
            "display": "The Central European Lab"
          }
        ],
        "category": [
          {
            "coding": [
              {
                "system": "http://terminology.hl7.org/CodeSystem/observation-category",
                "code": "laboratory"
              }
            ]
          }
        ],
        "code": {
          "coding": [
            {
              "code": "2823-3",
              "system": "http://loinc.org",
              "display": "Potassium [Moles/volume] in Serum or Plasma"
            }
          ],
          "text": "Potassium [Moles/volume] in Serum or Plasma"
        },
        "valueQuantity": {
          "system": "http://unitsofmeasure.org",
          "value": 4.7,
          "unit": "mmol/L",
          "code": "mmol/L"
        },
        "referenceRange": [
          {
            "low": {
              "value": 3.5,
              "code": "mmol/L",
              "system": "http://unitsofmeasure.org"
            }
          },
          {
            "high": {
              "value": 5.1,
              "code": "mmol/L",
              "system": "http://unitsofmeasure.org"
            }
          }
        ],
        "text": {
          "status": "generated",
          "div": "<div xmlns=\"http://www.w3.org/1999/xhtml\"><table class=\"hl7__eu__lab__report\"><tr><th>Test</th><th>06-Jul-2017</th><th>Reference&#xA0;Range</th><th>Unit</th></tr><tr><td>Potassium [Moles/volume] in Serum or Plasma</td><td>4.7</td><td>3.5 - 5.1</td><td></td><td>mmol/L</td></tr></table></div>"
        },
        "status": "final",
        "subject": {
          "reference": "urn:uuid:a23fbe50-7516-4511-8180-15406e923b77",
          "display": "Molly Jenkins"
        },
        "effectiveDateTime": "2017-07-06T14:42:11Z",
        "specimen": {
          "reference": "urn:uuid:d5b009bc-1d39-4025-969c-6b2193af29bc"
        }
      }
    },
    {
      "fullUrl": "urn:uuid:5adbe383-3c18-43bb-97a2-d275dae91a71",
      "resource": {
        "resourceType": "Observation",
        "id": "5adbe383-3c18-43bb-97a2-d275dae91a71",
        "meta": {
          "profile": [
            "http://hl7.eu/fhir/laboratory/StructureDefinition/Observation-resultslab-eu-lab"
          ]
        },
        "performer": [
          {
            "display": "The Central European Lab"
          }
        ],
        "category": [
          {
            "coding": [
              {
                "system": "http://terminology.hl7.org/CodeSystem/observation-category",
                "code": "laboratory"
              }
            ]
          }
        ],
        "code": {
          "coding": [
            {
              "code": "2075-0",
              "system": "http://loinc.org",
              "display": "Chloride [Moles/volume] in Serum or Plasma"
            }
          ],
          "text": "Chloride [Moles/volume] in Serum or Plasma"
        },
        "valueQuantity": {
          "system": "http://unitsofmeasure.org",
          "value": 101.4,
          "unit": "mmol/L",
          "code": "mmol/L"
        },
        "referenceRange": [
          {
            "low": {
              "value": 98,
              "code": "mmol/L",
              "system": "http://unitsofmeasure.org"
            }
          },
          {
            "high": {
              "value": 110,
              "code": "mmol/L",
              "system": "http://unitsofmeasure.org"
            }
          }
        ],
        "text": {
          "status": "generated",
          "div": "<div xmlns=\"http://www.w3.org/1999/xhtml\"><table class=\"hl7__eu__lab__report\"><tr><th>Test</th><th>06-Jul-2017</th><th>Reference&#xA0;Range</th><th>Unit</th></tr><tr><td>Chloride [Moles/volume] in Serum or Plasma</td><td>101.4</td><td>98 - 110</td><td></td><td>mmol/L</td></tr></table></div>"
        },
        "status": "final",
        "subject": {
          "reference": "urn:uuid:a23fbe50-7516-4511-8180-15406e923b77",
          "display": "Molly Jenkins"
        },
        "effectiveDateTime": "2017-07-06T14:42:11Z",
        "specimen": {
          "reference": "urn:uuid:d5b009bc-1d39-4025-969c-6b2193af29bc"
        }
      }
    },
    {
      "fullUrl": "urn:uuid:bc739b77-28ee-46f4-b278-00bf53f02924",
      "resource": {
        "resourceType": "Observation",
        "id": "bc739b77-28ee-46f4-b278-00bf53f02924",
        "meta": {
          "profile": [
            "http://hl7.eu/fhir/laboratory/StructureDefinition/Observation-resultslab-eu-lab"
          ]
        },
        "performer": [
          {
            "display": "The Central European Lab"
          }
        ],
        "category": [
          {
            "coding": [
              {
                "system": "http://terminology.hl7.org/CodeSystem/observation-category",
                "code": "laboratory"
              }
            ]
          }
        ],
        "code": {
          "coding": [
            {
              "code": "2028-9",
              "system": "http://loinc.org",
              "display": "Carbon dioxide, total [Moles/volume] in Serum or Plasma"
            }
          ],
          "text": "Carbon dioxide, total [Moles/volume] in Serum or Plasma"
        },
        "valueQuantity": {
          "system": "http://unitsofmeasure.org",
          "value": 21.9,
          "unit": "mmol/L",
          "code": "mmol/L"
        },
        "referenceRange": [
          {
            "low": {
              "value": 22,
              "code": "mmol/L",
              "system": "http://unitsofmeasure.org"
            }
          },
          {
            "high": {
              "value": 32,
              "code": "mmol/L",
              "system": "http://unitsofmeasure.org"
            }
          }
        ],
        "interpretation": [
          {
            "coding": [
              {
                "code": "L",
                "system": "http://terminology.hl7.org/CodeSystem/v3-ObservationInterpretation",
                "display": "Low"
              }
            ]
          }
        ],
        "text": {
          "status": "generated",
          "div": "<div xmlns=\"http://www.w3.org/1999/xhtml\"><table class=\"hl7__eu__lab__report\"><tr><th>Test</th><th>06-Jul-2017</th><th>Reference&#xA0;Range</th><th>Unit</th></tr><tr><td>Carbon dioxide, total [Moles/volume] in Serum or Plasma</td><td>21.9</td><td>22 - 32</td><td>L</td><td>mmol/L</td></tr></table></div>"
        },
        "status": "final",
        "subject": {
          "reference": "urn:uuid:a23fbe50-7516-4511-8180-15406e923b77",
          "display": "Molly Jenkins"
        },
        "effectiveDateTime": "2017-07-06T14:42:11Z",
        "specimen": {
          "reference": "urn:uuid:d5b009bc-1d39-4025-969c-6b2193af29bc"
        }
      }
    },
    {
      "fullUrl": "urn:uuid:8781cb39-b775-47fd-9485-ae400a69313b",
      "resource": {
        "resourceType": "Observation",
        "id": "8781cb39-b775-47fd-9485-ae400a69313b",
        "meta": {
          "profile": [
            "http://hl7.eu/fhir/laboratory/StructureDefinition/Observation-resultslab-eu-lab"
          ]
        },
        "performer": [
          {
            "display": "The Central European Lab"
          }
        ],
        "category": [
          {
            "coding": [
              {
                "system": "http://terminology.hl7.org/CodeSystem/observation-category",
                "code": "laboratory"
              }
            ]
          }
        ],
        "code": {
          "coding": [
            {
              "code": "5767-9",
              "system": "http://loinc.org",
              "display": "Appearance of Urine"
            }
          ],
          "text": "Appearance of Urine"
        },
        "text": {
          "status": "generated",
          "div": "<div xmlns=\"http://www.w3.org/1999/xhtml\"><table class=\"hl7__eu__lab__report\"><tr><th>Test</th><th>06-Jul-2017</th><th>Reference&#xA0;Range</th><th>Unit</th></tr><tr><td>Appearance of Urine</td></tr></table></div>"
        },
        "status": "final",
        "subject": {
          "reference": "urn:uuid:a23fbe50-7516-4511-8180-15406e923b77",
          "display": "Molly Jenkins"
        },
        "effectiveDateTime": "2017-07-06T14:42:11Z",
        "specimen": {
          "reference": "urn:uuid:85fb120c-42ba-4f20-a8e6-2a1b16ef8e43"
        }
      }
    },
    {
      "fullUrl": "urn:uuid:5897ad75-df84-4f2f-93f5-cd1f0f832b49",
      "resource": {
        "resourceType": "Observation",
        "id": "5897ad75-df84-4f2f-93f5-cd1f0f832b49",
        "meta": {
          "profile": [
            "http://hl7.eu/fhir/laboratory/StructureDefinition/Observation-resultslab-eu-lab"
          ]
        },
        "performer": [
          {
            "display": "The Central European Lab"
          }
        ],
        "category": [
          {
            "coding": [
              {
                "system": "http://terminology.hl7.org/CodeSystem/observation-category",
                "code": "laboratory"
              }
            ]
          }
        ],
        "code": {
          "coding": [
            {
              "code": "34533-0",
              "system": "http://loinc.org",
              "display": "Odor of Urine"
            }
          ],
          "text": "Odor of Urine"
        },
        "text": {
          "status": "generated",
          "div": "<div xmlns=\"http://www.w3.org/1999/xhtml\"><table class=\"hl7__eu__lab__report\"><tr><th>Test</th><th>06-Jul-2017</th><th>Reference&#xA0;Range</th><th>Unit</th></tr><tr><td>Odor of Urine</td></tr></table></div>"
        },
        "status": "final",
        "subject": {
          "reference": "urn:uuid:a23fbe50-7516-4511-8180-15406e923b77",
          "display": "Molly Jenkins"
        },
        "effectiveDateTime": "2017-07-06T14:42:11Z",
        "specimen": {
          "reference": "urn:uuid:85fb120c-42ba-4f20-a8e6-2a1b16ef8e43"
        }
      }
    },
    {
      "fullUrl": "urn:uuid:a7743c57-5929-4828-b252-e31ba68d43d1",
      "resource": {
        "resourceType": "Observation",
        "id": "a7743c57-5929-4828-b252-e31ba68d43d1",
        "meta": {
          "profile": [
            "http://hl7.eu/fhir/laboratory/StructureDefinition/Observation-resultslab-eu-lab"
          ]
        },
        "performer": [
          {
            "display": "The Central European Lab"
          }
        ],
        "category": [
          {
            "coding": [
              {
                "system": "http://terminology.hl7.org/CodeSystem/observation-category",
                "code": "laboratory"
              }
            ]
          }
        ],
        "code": {
          "coding": [
            {
              "code": "32167-9",
              "system": "http://loinc.org",
              "display": "Clarity of Urine"
            }
          ],
          "text": "Clarity of Urine"
        },
        "text": {
          "status": "generated",
          "div": "<div xmlns=\"http://www.w3.org/1999/xhtml\"><table class=\"hl7__eu__lab__report\"><tr><th>Test</th><th>06-Jul-2017</th><th>Reference&#xA0;Range</th><th>Unit</th></tr><tr><td>Clarity of Urine</td></tr></table></div>"
        },
        "status": "final",
        "subject": {
          "reference": "urn:uuid:a23fbe50-7516-4511-8180-15406e923b77",
          "display": "Molly Jenkins"
        },
        "effectiveDateTime": "2017-07-06T14:42:11Z",
        "specimen": {
          "reference": "urn:uuid:85fb120c-42ba-4f20-a8e6-2a1b16ef8e43"
        }
      }
    },
    {
      "fullUrl": "urn:uuid:181b248d-c004-43fc-8ab7-db77d599eedc",
      "resource": {
        "resourceType": "Observation",
        "id": "181b248d-c004-43fc-8ab7-db77d599eedc",
        "meta": {
          "profile": [
            "http://hl7.eu/fhir/laboratory/StructureDefinition/Observation-resultslab-eu-lab"
          ]
        },
        "performer": [
          {
            "display": "The Central European Lab"
          }
        ],
        "category": [
          {
            "coding": [
              {
                "system": "http://terminology.hl7.org/CodeSystem/observation-category",
                "code": "laboratory"
              }
            ]
          }
        ],
        "code": {
          "coding": [
            {
              "code": "5778-6",
              "system": "http://loinc.org",
              "display": "Color of Urine"
            }
          ],
          "text": "Color of Urine"
        },
        "text": {
          "status": "generated",
          "div": "<div xmlns=\"http://www.w3.org/1999/xhtml\"><table class=\"hl7__eu__lab__report\"><tr><th>Test</th><th>06-Jul-2017</th><th>Reference&#xA0;Range</th><th>Unit</th></tr><tr><td>Color of Urine</td></tr></table></div>"
        },
        "status": "final",
        "subject": {
          "reference": "urn:uuid:a23fbe50-7516-4511-8180-15406e923b77",
          "display": "Molly Jenkins"
        },
        "effectiveDateTime": "2017-07-06T14:42:11Z",
        "specimen": {
          "reference": "urn:uuid:85fb120c-42ba-4f20-a8e6-2a1b16ef8e43"
        }
      }
    },
    {
      "fullUrl": "urn:uuid:af7c39da-7fc0-4f81-82ed-96440045f59a",
      "resource": {
        "resourceType": "Observation",
        "id": "af7c39da-7fc0-4f81-82ed-96440045f59a",
        "meta": {
          "profile": [
            "http://hl7.eu/fhir/laboratory/StructureDefinition/Observation-resultslab-eu-lab"
          ]
        },
        "performer": [
          {
            "display": "The Central European Lab"
          }
        ],
        "category": [
          {
            "coding": [
              {
                "system": "http://terminology.hl7.org/CodeSystem/observation-category",
                "code": "laboratory"
              }
            ]
          }
        ],
        "code": {
          "coding": [
            {
              "code": "5792-7",
              "system": "http://loinc.org",
              "display": "Glucose [Mass/volume] in Urine by Test strip"
            }
          ],
          "text": "Glucose [Mass/volume] in Urine by Test strip"
        },
        "valueQuantity": {
          "system": "http://unitsofmeasure.org",
          "value": 1.8,
          "unit": "mg/dL",
          "code": "mg/dL"
        },
        "referenceRange": [
          {
            "low": {
              "value": 0,
              "code": "mg/dL",
              "system": "http://unitsofmeasure.org"
            }
          },
          {
            "high": {
              "value": 0,
              "code": "mg/dL",
              "system": "http://unitsofmeasure.org"
            }
          }
        ],
        "interpretation": [
          {
            "coding": [
              {
                "code": "H",
                "system": "http://terminology.hl7.org/CodeSystem/v3-ObservationInterpretation",
                "display": "High"
              }
            ]
          }
        ],
        "text": {
          "status": "generated",
          "div": "<div xmlns=\"http://www.w3.org/1999/xhtml\"><table class=\"hl7__eu__lab__report\"><tr><th>Test</th><th>06-Jul-2017</th><th>Reference&#xA0;Range</th><th>Unit</th></tr><tr><td>Glucose [Mass/volume] in Urine by Test strip</td><td>1.8</td><td>0 - 0</td><td>H</td><td>mg/dL</td></tr></table></div>"
        },
        "status": "final",
        "subject": {
          "reference": "urn:uuid:a23fbe50-7516-4511-8180-15406e923b77",
          "display": "Molly Jenkins"
        },
        "effectiveDateTime": "2017-07-06T14:42:11Z",
        "specimen": {
          "reference": "urn:uuid:85fb120c-42ba-4f20-a8e6-2a1b16ef8e43"
        }
      }
    },
    {
      "fullUrl": "urn:uuid:894eb020-b82f-44f7-84ee-d260fb10fffe",
      "resource": {
        "resourceType": "Observation",
        "id": "894eb020-b82f-44f7-84ee-d260fb10fffe",
        "meta": {
          "profile": [
            "http://hl7.eu/fhir/laboratory/StructureDefinition/Observation-resultslab-eu-lab"
          ]
        },
        "performer": [
          {
            "display": "The Central European Lab"
          }
        ],
        "category": [
          {
            "coding": [
              {
                "system": "http://terminology.hl7.org/CodeSystem/observation-category",
                "code": "laboratory"
              }
            ]
          }
        ],
        "code": {
          "coding": [
            {
              "code": "25428-4",
              "system": "http://loinc.org",
              "display": "Glucose [Presence] in Urine by Test strip"
            }
          ],
          "text": "Glucose [Presence] in Urine by Test strip"
        },
        "text": {
          "status": "generated",
          "div": "<div xmlns=\"http://www.w3.org/1999/xhtml\"><table class=\"hl7__eu__lab__report\"><tr><th>Test</th><th>06-Jul-2017</th><th>Reference&#xA0;Range</th><th>Unit</th></tr><tr><td>Glucose [Presence] in Urine by Test strip</td></tr></table></div>"
        },
        "status": "final",
        "subject": {
          "reference": "urn:uuid:a23fbe50-7516-4511-8180-15406e923b77",
          "display": "Molly Jenkins"
        },
        "effectiveDateTime": "2017-07-06T14:42:11Z",
        "specimen": {
          "reference": "urn:uuid:85fb120c-42ba-4f20-a8e6-2a1b16ef8e43"
        }
      }
    },
    {
      "fullUrl": "urn:uuid:21621e3a-c19d-4d0f-9806-212e98e7edf2",
      "resource": {
        "resourceType": "Observation",
        "id": "21621e3a-c19d-4d0f-9806-212e98e7edf2",
        "meta": {
          "profile": [
            "http://hl7.eu/fhir/laboratory/StructureDefinition/Observation-resultslab-eu-lab"
          ]
        },
        "performer": [
          {
            "display": "The Central European Lab"
          }
        ],
        "category": [
          {
            "coding": [
              {
                "system": "http://terminology.hl7.org/CodeSystem/observation-category",
                "code": "laboratory"
              }
            ]
          }
        ],
        "code": {
          "coding": [
            {
              "code": "20505-4",
              "system": "http://loinc.org",
              "display": "Bilirubin.total [Mass/volume] in Urine by Test strip"
            }
          ],
          "text": "Bilirubin.total [Mass/volume] in Urine by Test strip"
        },
        "valueQuantity": {
          "system": "http://unitsofmeasure.org",
          "value": 0.7,
          "unit": "mg/dL",
          "code": "mg/dL"
        },
        "referenceRange": [
          {
            "low": {
              "value": 0,
              "code": "mg/dL",
              "system": "http://unitsofmeasure.org"
            }
          },
          {
            "high": {
              "value": 1.6,
              "code": "mg/dL",
              "system": "http://unitsofmeasure.org"
            }
          }
        ],
        "text": {
          "status": "generated",
          "div": "<div xmlns=\"http://www.w3.org/1999/xhtml\"><table class=\"hl7__eu__lab__report\"><tr><th>Test</th><th>06-Jul-2017</th><th>Reference&#xA0;Range</th><th>Unit</th></tr><tr><td>Bilirubin.total [Mass/volume] in Urine by Test strip</td><td>0.7</td><td>0 - 1.6</td><td></td><td>mg/dL</td></tr></table></div>"
        },
        "status": "final",
        "subject": {
          "reference": "urn:uuid:a23fbe50-7516-4511-8180-15406e923b77",
          "display": "Molly Jenkins"
        },
        "effectiveDateTime": "2017-07-06T14:42:11Z",
        "specimen": {
          "reference": "urn:uuid:85fb120c-42ba-4f20-a8e6-2a1b16ef8e43"
        }
      }
    },
    {
      "fullUrl": "urn:uuid:de4fccee-f09b-4f3c-a7fc-ce3f3f9434f6",
      "resource": {
        "resourceType": "Observation",
        "id": "de4fccee-f09b-4f3c-a7fc-ce3f3f9434f6",
        "meta": {
          "profile": [
            "http://hl7.eu/fhir/laboratory/StructureDefinition/Observation-resultslab-eu-lab"
          ]
        },
        "performer": [
          {
            "display": "The Central European Lab"
          }
        ],
        "category": [
          {
            "coding": [
              {
                "system": "http://terminology.hl7.org/CodeSystem/observation-category",
                "code": "laboratory"
              }
            ]
          }
        ],
        "code": {
          "coding": [
            {
              "code": "5770-3",
              "system": "http://loinc.org",
              "display": "Bilirubin.total [Presence] in Urine by Test strip"
            }
          ],
          "text": "Bilirubin.total [Presence] in Urine by Test strip"
        },
        "text": {
          "status": "generated",
          "div": "<div xmlns=\"http://www.w3.org/1999/xhtml\"><table class=\"hl7__eu__lab__report\"><tr><th>Test</th><th>06-Jul-2017</th><th>Reference&#xA0;Range</th><th>Unit</th></tr><tr><td>Bilirubin.total [Presence] in Urine by Test strip</td></tr></table></div>"
        },
        "status": "final",
        "subject": {
          "reference": "urn:uuid:a23fbe50-7516-4511-8180-15406e923b77",
          "display": "Molly Jenkins"
        },
        "effectiveDateTime": "2017-07-06T14:42:11Z",
        "specimen": {
          "reference": "urn:uuid:85fb120c-42ba-4f20-a8e6-2a1b16ef8e43"
        }
      }
    },
    {
      "fullUrl": "urn:uuid:2e7e73b4-a282-4097-9dc6-0d59e47cf34e",
      "resource": {
        "resourceType": "Observation",
        "id": "2e7e73b4-a282-4097-9dc6-0d59e47cf34e",
        "meta": {
          "profile": [
            "http://hl7.eu/fhir/laboratory/StructureDefinition/Observation-resultslab-eu-lab"
          ]
        },
        "performer": [
          {
            "display": "The Central European Lab"
          }
        ],
        "category": [
          {
            "coding": [
              {
                "system": "http://terminology.hl7.org/CodeSystem/observation-category",
                "code": "laboratory"
              }
            ]
          }
        ],
        "code": {
          "coding": [
            {
              "code": "5797-6",
              "system": "http://loinc.org",
              "display": "Ketones [Mass/volume] in Urine by Test strip"
            }
          ],
          "text": "Ketones [Mass/volume] in Urine by Test strip"
        },
        "valueQuantity": {
          "system": "http://unitsofmeasure.org",
          "value": 15.2,
          "unit": "mg/dL",
          "code": "mg/dL"
        },
        "referenceRange": [
          {
            "low": {
              "value": 0,
              "code": "mg/dL",
              "system": "http://unitsofmeasure.org"
            }
          },
          {
            "high": {
              "value": 0.5,
              "code": "mg/dL",
              "system": "http://unitsofmeasure.org"
            }
          }
        ],
        "interpretation": [
          {
            "coding": [
              {
                "code": "H",
                "system": "http://terminology.hl7.org/CodeSystem/v3-ObservationInterpretation",
                "display": "High"
              }
            ]
          }
        ],
        "text": {
          "status": "generated",
          "div": "<div xmlns=\"http://www.w3.org/1999/xhtml\"><table class=\"hl7__eu__lab__report\"><tr><th>Test</th><th>06-Jul-2017</th><th>Reference&#xA0;Range</th><th>Unit</th></tr><tr><td>Ketones [Mass/volume] in Urine by Test strip</td><td>15.2</td><td>0 - 0.5</td><td>H</td><td>mg/dL</td></tr></table></div>"
        },
        "status": "final",
        "subject": {
          "reference": "urn:uuid:a23fbe50-7516-4511-8180-15406e923b77",
          "display": "Molly Jenkins"
        },
        "effectiveDateTime": "2017-07-06T14:42:11Z",
        "specimen": {
          "reference": "urn:uuid:85fb120c-42ba-4f20-a8e6-2a1b16ef8e43"
        }
      }
    },
    {
      "fullUrl": "urn:uuid:7f16f0b6-89cb-4418-8e0b-b757991f351c",
      "resource": {
        "resourceType": "Observation",
        "id": "7f16f0b6-89cb-4418-8e0b-b757991f351c",
        "meta": {
          "profile": [
            "http://hl7.eu/fhir/laboratory/StructureDefinition/Observation-resultslab-eu-lab"
          ]
        },
        "performer": [
          {
            "display": "The Central European Lab"
          }
        ],
        "category": [
          {
            "coding": [
              {
                "system": "http://terminology.hl7.org/CodeSystem/observation-category",
                "code": "laboratory"
              }
            ]
          }
        ],
        "code": {
          "coding": [
            {
              "code": "2514-8",
              "system": "http://loinc.org",
              "display": "Ketones [Presence] in Urine by Test strip"
            }
          ],
          "text": "Ketones [Presence] in Urine by Test strip"
        },
        "text": {
          "status": "generated",
          "div": "<div xmlns=\"http://www.w3.org/1999/xhtml\"><table class=\"hl7__eu__lab__report\"><tr><th>Test</th><th>06-Jul-2017</th><th>Reference&#xA0;Range</th><th>Unit</th></tr><tr><td>Ketones [Presence] in Urine by Test strip</td></tr></table></div>"
        },
        "status": "final",
        "subject": {
          "reference": "urn:uuid:a23fbe50-7516-4511-8180-15406e923b77",
          "display": "Molly Jenkins"
        },
        "effectiveDateTime": "2017-07-06T14:42:11Z",
        "specimen": {
          "reference": "urn:uuid:85fb120c-42ba-4f20-a8e6-2a1b16ef8e43"
        }
      }
    },
    {
      "fullUrl": "urn:uuid:68a3580c-2b2d-4040-ba4a-baee2d8d6e46",
      "resource": {
        "resourceType": "Observation",
        "id": "68a3580c-2b2d-4040-ba4a-baee2d8d6e46",
        "meta": {
          "profile": [
            "http://hl7.eu/fhir/laboratory/StructureDefinition/Observation-resultslab-eu-lab"
          ]
        },
        "performer": [
          {
            "display": "The Central European Lab"
          }
        ],
        "category": [
          {
            "coding": [
              {
                "system": "http://terminology.hl7.org/CodeSystem/observation-category",
                "code": "laboratory"
              }
            ]
          }
        ],
        "code": {
          "coding": [
            {
              "code": "5811-5",
              "system": "http://loinc.org",
              "display": "Specific gravity of Urine by Test strip"
            }
          ],
          "text": "Specific gravity of Urine by Test strip"
        },
        "valueQuantity": {
          "system": "http://unitsofmeasure.org",
          "value": 1,
          "unit": "{nominal}",
          "code": "{nominal}"
        },
        "referenceRange": [
          {
            "low": {
              "value": 1.005,
              "code": "g/mL",
              "system": "http://unitsofmeasure.org"
            }
          },
          {
            "high": {
              "value": 1.03,
              "code": "g/mL",
              "system": "http://unitsofmeasure.org"
            }
          }
        ],
        "interpretation": [
          {
            "coding": [
              {
                "code": "L",
                "system": "http://terminology.hl7.org/CodeSystem/v3-ObservationInterpretation",
                "display": "Low"
              }
            ]
          }
        ],
        "text": {
          "status": "generated",
          "div": "<div xmlns=\"http://www.w3.org/1999/xhtml\"><table class=\"hl7__eu__lab__report\"><tr><th>Test</th><th>06-Jul-2017</th><th>Reference&#xA0;Range</th><th>Unit</th></tr><tr><td>Specific gravity of Urine by Test strip</td><td>1.0</td><td>1.005 - 1.03</td><td>L</td><td>{nominal}</td></tr></table></div>"
        },
        "status": "final",
        "subject": {
          "reference": "urn:uuid:a23fbe50-7516-4511-8180-15406e923b77",
          "display": "Molly Jenkins"
        },
        "effectiveDateTime": "2017-07-06T14:42:11Z",
        "specimen": {
          "reference": "urn:uuid:85fb120c-42ba-4f20-a8e6-2a1b16ef8e43"
        }
      }
    },
    {
      "fullUrl": "urn:uuid:e5fd9f04-4cfd-4ebf-affd-829b8b381fae",
      "resource": {
        "resourceType": "Observation",
        "id": "e5fd9f04-4cfd-4ebf-affd-829b8b381fae",
        "meta": {
          "profile": [
            "http://hl7.eu/fhir/laboratory/StructureDefinition/Observation-resultslab-eu-lab"
          ]
        },
        "performer": [
          {
            "display": "The Central European Lab"
          }
        ],
        "category": [
          {
            "coding": [
              {
                "system": "http://terminology.hl7.org/CodeSystem/observation-category",
                "code": "laboratory"
              }
            ]
          }
        ],
        "code": {
          "coding": [
            {
              "code": "5803-2",
              "system": "http://loinc.org",
              "display": "pH of Urine by Test strip"
            }
          ],
          "text": "pH of Urine by Test strip"
        },
        "valueQuantity": {
          "system": "http://unitsofmeasure.org",
          "value": 5.7,
          "unit": "pH",
          "code": "pH"
        },
        "referenceRange": [
          {
            "low": {
              "value": 4.5,
              "code": "pH",
              "system": "http://unitsofmeasure.org"
            }
          },
          {
            "high": {
              "value": 7.5,
              "code": "pH",
              "system": "http://unitsofmeasure.org"
            }
          }
        ],
        "text": {
          "status": "generated",
          "div": "<div xmlns=\"http://www.w3.org/1999/xhtml\"><table class=\"hl7__eu__lab__report\"><tr><th>Test</th><th>06-Jul-2017</th><th>Reference&#xA0;Range</th><th>Unit</th></tr><tr><td>pH of Urine by Test strip</td><td>5.7</td><td>4.5 - 7.5</td><td></td><td>pH</td></tr></table></div>"
        },
        "status": "final",
        "subject": {
          "reference": "urn:uuid:a23fbe50-7516-4511-8180-15406e923b77",
          "display": "Molly Jenkins"
        },
        "effectiveDateTime": "2017-07-06T14:42:11Z",
        "specimen": {
          "reference": "urn:uuid:85fb120c-42ba-4f20-a8e6-2a1b16ef8e43"
        }
      }
    },
    {
      "fullUrl": "urn:uuid:a11df8eb-d6ed-442d-bf26-53085b02daf4",
      "resource": {
        "resourceType": "Observation",
        "id": "a11df8eb-d6ed-442d-bf26-53085b02daf4",
        "meta": {
          "profile": [
            "http://hl7.eu/fhir/laboratory/StructureDefinition/Observation-resultslab-eu-lab"
          ]
        },
        "performer": [
          {
            "display": "The Central European Lab"
          }
        ],
        "category": [
          {
            "coding": [
              {
                "system": "http://terminology.hl7.org/CodeSystem/observation-category",
                "code": "laboratory"
              }
            ]
          }
        ],
        "code": {
          "coding": [
            {
              "code": "5804-0",
              "system": "http://loinc.org",
              "display": "Protein [Mass/volume] in Urine by Test strip"
            }
          ],
          "text": "Protein [Mass/volume] in Urine by Test strip"
        },
        "valueQuantity": {
          "system": "http://unitsofmeasure.org",
          "value": 324.4,
          "unit": "mg/dL",
          "code": "mg/dL"
        },
        "referenceRange": [
          {
            "low": {
              "value": 0,
              "code": "mg/dL",
              "system": "http://unitsofmeasure.org"
            }
          },
          {
            "high": {
              "value": 15,
              "code": "mg/dL",
              "system": "http://unitsofmeasure.org"
            }
          }
        ],
        "interpretation": [
          {
            "coding": [
              {
                "code": "H",
                "system": "http://terminology.hl7.org/CodeSystem/v3-ObservationInterpretation",
                "display": "High"
              }
            ]
          }
        ],
        "text": {
          "status": "generated",
          "div": "<div xmlns=\"http://www.w3.org/1999/xhtml\"><table class=\"hl7__eu__lab__report\"><tr><th>Test</th><th>06-Jul-2017</th><th>Reference&#xA0;Range</th><th>Unit</th></tr><tr><td>Protein [Mass/volume] in Urine by Test strip</td><td>324.4</td><td>0 - 15</td><td>H</td><td>mg/dL</td></tr></table></div>"
        },
        "status": "final",
        "subject": {
          "reference": "urn:uuid:a23fbe50-7516-4511-8180-15406e923b77",
          "display": "Molly Jenkins"
        },
        "effectiveDateTime": "2017-07-06T14:42:11Z",
        "specimen": {
          "reference": "urn:uuid:85fb120c-42ba-4f20-a8e6-2a1b16ef8e43"
        }
      }
    },
    {
      "fullUrl": "urn:uuid:8cb2fc16-d4a3-4100-bcf5-5ddfe3c1e2ea",
      "resource": {
        "resourceType": "Observation",
        "id": "8cb2fc16-d4a3-4100-bcf5-5ddfe3c1e2ea",
        "meta": {
          "profile": [
            "http://hl7.eu/fhir/laboratory/StructureDefinition/Observation-resultslab-eu-lab"
          ]
        },
        "performer": [
          {
            "display": "The Central European Lab"
          }
        ],
        "category": [
          {
            "coding": [
              {
                "system": "http://terminology.hl7.org/CodeSystem/observation-category",
                "code": "laboratory"
              }
            ]
          }
        ],
        "code": {
          "coding": [
            {
              "code": "20454-5",
              "system": "http://loinc.org",
              "display": "Protein [Presence] in Urine by Test strip"
            }
          ],
          "text": "Protein [Presence] in Urine by Test strip"
        },
        "text": {
          "status": "generated",
          "div": "<div xmlns=\"http://www.w3.org/1999/xhtml\"><table class=\"hl7__eu__lab__report\"><tr><th>Test</th><th>06-Jul-2017</th><th>Reference&#xA0;Range</th><th>Unit</th></tr><tr><td>Protein [Presence] in Urine by Test strip</td></tr></table></div>"
        },
        "status": "final",
        "subject": {
          "reference": "urn:uuid:a23fbe50-7516-4511-8180-15406e923b77",
          "display": "Molly Jenkins"
        },
        "effectiveDateTime": "2017-07-06T14:42:11Z",
        "specimen": {
          "reference": "urn:uuid:85fb120c-42ba-4f20-a8e6-2a1b16ef8e43"
        }
      }
    },
    {
      "fullUrl": "urn:uuid:1303fede-2419-4dfa-93d6-eb3c59cf1c10",
      "resource": {
        "resourceType": "Observation",
        "id": "1303fede-2419-4dfa-93d6-eb3c59cf1c10",
        "meta": {
          "profile": [
            "http://hl7.eu/fhir/laboratory/StructureDefinition/Observation-resultslab-eu-lab"
          ]
        },
        "performer": [
          {
            "display": "The Central European Lab"
          }
        ],
        "category": [
          {
            "coding": [
              {
                "system": "http://terminology.hl7.org/CodeSystem/observation-category",
                "code": "laboratory"
              }
            ]
          }
        ],
        "code": {
          "coding": [
            {
              "code": "5802-4",
              "system": "http://loinc.org",
              "display": "Nitrite [Presence] in Urine by Test strip"
            }
          ],
          "text": "Nitrite [Presence] in Urine by Test strip"
        },
        "text": {
          "status": "generated",
          "div": "<div xmlns=\"http://www.w3.org/1999/xhtml\"><table class=\"hl7__eu__lab__report\"><tr><th>Test</th><th>06-Jul-2017</th><th>Reference&#xA0;Range</th><th>Unit</th></tr><tr><td>Nitrite [Presence] in Urine by Test strip</td></tr></table></div>"
        },
        "status": "final",
        "subject": {
          "reference": "urn:uuid:a23fbe50-7516-4511-8180-15406e923b77",
          "display": "Molly Jenkins"
        },
        "effectiveDateTime": "2017-07-06T14:42:11Z",
        "specimen": {
          "reference": "urn:uuid:85fb120c-42ba-4f20-a8e6-2a1b16ef8e43"
        }
      }
    },
    {
      "fullUrl": "urn:uuid:fb141b1b-8081-4cbb-8f90-e8d07dd993a6",
      "resource": {
        "resourceType": "Observation",
        "id": "fb141b1b-8081-4cbb-8f90-e8d07dd993a6",
        "meta": {
          "profile": [
            "http://hl7.eu/fhir/laboratory/StructureDefinition/Observation-resultslab-eu-lab"
          ]
        },
        "performer": [
          {
            "display": "The Central European Lab"
          }
        ],
        "category": [
          {
            "coding": [
              {
                "system": "http://terminology.hl7.org/CodeSystem/observation-category",
                "code": "laboratory"
              }
            ]
          }
        ],
        "code": {
          "coding": [
            {
              "code": "5794-3",
              "system": "http://loinc.org",
              "display": "Hemoglobin [Presence] in Urine by Test strip"
            }
          ],
          "text": "Hemoglobin [Presence] in Urine by Test strip"
        },
        "text": {
          "status": "generated",
          "div": "<div xmlns=\"http://www.w3.org/1999/xhtml\"><table class=\"hl7__eu__lab__report\"><tr><th>Test</th><th>06-Jul-2017</th><th>Reference&#xA0;Range</th><th>Unit</th></tr><tr><td>Hemoglobin [Presence] in Urine by Test strip</td></tr></table></div>"
        },
        "status": "final",
        "subject": {
          "reference": "urn:uuid:a23fbe50-7516-4511-8180-15406e923b77",
          "display": "Molly Jenkins"
        },
        "effectiveDateTime": "2017-07-06T14:42:11Z",
        "specimen": {
          "reference": "urn:uuid:85fb120c-42ba-4f20-a8e6-2a1b16ef8e43"
        }
      }
    },
    {
      "fullUrl": "urn:uuid:d6356f47-0ddb-40dd-a380-1216be8f7478",
      "resource": {
        "resourceType": "Observation",
        "id": "d6356f47-0ddb-40dd-a380-1216be8f7478",
        "meta": {
          "profile": [
            "http://hl7.eu/fhir/laboratory/StructureDefinition/Observation-resultslab-eu-lab"
          ]
        },
        "performer": [
          {
            "display": "The Central European Lab"
          }
        ],
        "category": [
          {
            "coding": [
              {
                "system": "http://terminology.hl7.org/CodeSystem/observation-category",
                "code": "laboratory"
              }
            ]
          }
        ],
        "code": {
          "coding": [
            {
              "code": "5799-2",
              "system": "http://loinc.org",
              "display": "Leukocyte esterase [Presence] in Urine by Test strip"
            }
          ],
          "text": "Leukocyte esterase [Presence] in Urine by Test strip"
        },
        "text": {
          "status": "generated",
          "div": "<div xmlns=\"http://www.w3.org/1999/xhtml\"><table class=\"hl7__eu__lab__report\"><tr><th>Test</th><th>06-Jul-2017</th><th>Reference&#xA0;Range</th><th>Unit</th></tr><tr><td>Leukocyte esterase [Presence] in Urine by Test strip</td></tr></table></div>"
        },
        "status": "final",
        "subject": {
          "reference": "urn:uuid:a23fbe50-7516-4511-8180-15406e923b77",
          "display": "Molly Jenkins"
        },
        "effectiveDateTime": "2017-07-06T14:42:11Z",
        "specimen": {
          "reference": "urn:uuid:85fb120c-42ba-4f20-a8e6-2a1b16ef8e43"
        }
      }
    },
    {
      "fullUrl": "urn:uuid:8da01377-1b21-4c35-a948-6bffda4c358a",
      "resource": {
        "resourceType": "Observation",
        "id": "8da01377-1b21-4c35-a948-6bffda4c358a",
        "meta": {
          "profile": [
            "http://hl7.eu/fhir/laboratory/StructureDefinition/Observation-resultslab-eu-lab"
          ]
        },
        "performer": [
          {
            "display": "The Central European Lab"
          }
        ],
        "category": [
          {
            "coding": [
              {
                "system": "http://terminology.hl7.org/CodeSystem/observation-category",
                "code": "laboratory"
              }
            ]
          }
        ],
        "code": {
          "coding": [
            {
              "code": "4548-4",
              "system": "http://loinc.org",
              "display": "Hemoglobin A1c/Hemoglobin.total in Blood"
            }
          ],
          "text": "Hemoglobin A1c/Hemoglobin.total in Blood"
        },
        "valueQuantity": {
          "system": "http://unitsofmeasure.org",
          "value": 2.9,
          "unit": "%",
          "code": "%"
        },
        "referenceRange": [
          {
            "low": {
              "value": 4,
              "code": "%",
              "system": "http://unitsofmeasure.org"
            }
          },
          {
            "high": {
              "value": 6,
              "code": "%",
              "system": "http://unitsofmeasure.org"
            }
          }
        ],
        "interpretation": [
          {
            "coding": [
              {
                "code": "L",
                "system": "http://terminology.hl7.org/CodeSystem/v3-ObservationInterpretation",
                "display": "Low"
              }
            ]
          }
        ],
        "text": {
          "status": "generated",
          "div": "<div xmlns=\"http://www.w3.org/1999/xhtml\"><table class=\"hl7__eu__lab__report\"><tr><th>Test</th><th>06-Jul-2017</th><th>Reference&#xA0;Range</th><th>Unit</th></tr><tr><td>Hemoglobin A1c/Hemoglobin.total in Blood</td><td>2.9</td><td>4 - 6</td><td>L</td><td>%</td></tr></table></div>"
        },
        "status": "final",
        "subject": {
          "reference": "urn:uuid:a23fbe50-7516-4511-8180-15406e923b77",
          "display": "Molly Jenkins"
        },
        "effectiveDateTime": "2017-07-06T14:42:11Z",
        "specimen": {
          "reference": "urn:uuid:48582ea3-b997-418d-8a4d-f68d854daf88"
        }
      }
    },
    {
      "fullUrl": "urn:uuid:a45eee49-97c7-4bf5-a1f1-f4cb4ecd8776",
      "resource": {
        "resourceType": "Device",
        "id": "a45eee49-97c7-4bf5-a1f1-f4cb4ecd8776",
        "deviceName": [
          {
            "name": "SYNDERAI Synthetic Generator",
            "type": "manufacturer-name"
          }
        ],
        "version": [
          {
            "value": "5.0"
          }
        ],
        "text": {
          "status": "generated",
          "div": "<div xmlns=\"http://www.w3.org/1999/xhtml\">SYNDERAI Synthetic Generator v5.0</div>"
        },
        "status": "active\"",
        "distinctIdentifier": "synderai-generator-50",
        "manufacturer": "SYNDERAI Project"
      }
    },
    {
      "fullUrl": "urn:uuid:b680da9a-a97a-4a33-847c-314a6a155357",
      "resource": {
        "resourceType": "Provenance",
        "id": "b680da9a-a97a-4a33-847c-314a6a155357",
        "target": [
          {
            "reference": "Patient/a23fbe50-7516-4511-8180-15406e923b77"
          },
          {
            "reference": "Bundle/bc2198d1-9b79-4c2c-8b88-522fcd325860"
          },
          {
            "reference": "Composition/28aeb798-bef9-4e49-848f-64d1d7191e77"
          },
          {
            "reference": "PractitionerRole/502db295-3d98-457c-b34a-7cf4683be518"
          },
          {
            "reference": "Practitioner/dc91ed33-26ee-4d85-8ec2-76c2454ac3b2"
          },
          {
            "reference": "PractitionerRole/b3d6451b-8e81-4487-9099-11dc64923b9f"
          },
          {
            "reference": "Organization/4ab6095a-a295-479c-8cca-b677b8affb37"
          }
        ],
        "activity": {
          "text": "Synthetic Example Data Generation"
        },
        "policy": [
          "https://synderai.net/synderai-synthetic-data-policy"
        ],
        "agent": [
          {
            "type": {
              "text": "author"
            },
            "who": {
              "reference": "Device/a45eee49-97c7-4bf5-a1f1-f4cb4ecd8776"
            }
          }
        ],
        "reason": [
          {
            "text": "Interoperability Testing and Training (non-clinical use)"
          }
        ],
        "text": {
          "status": "generated",
          "div": "<div xmlns=\"http://www.w3.org/1999/xhtml\">Provenance for SYNDERAI Synthetic Example Data Resource</div>"
        },
        "recorded": "2017-07-06T16:42:11Z"
      }
    },
    {
      "fullUrl": "urn:uuid:502db295-3d98-457c-b34a-7cf4683be518",
      "resource": {
        "resourceType": "PractitionerRole",
        "id": "502db295-3d98-457c-b34a-7cf4683be518",
        "meta": {
          "profile": [
            "http://hl7.eu/fhir/base/StructureDefinition/practitionerRole-eu"
          ]
        },
        "text": {
          "status": "generated",
          "div": "<div xmlns=\"http://www.w3.org/1999/xhtml\">Laboratory Role Id: 502db295-3d98-457c-b34a-7cf4683be518</div>"
        },
        "practitioner": {
          "reference": "urn:uuid:dc91ed33-26ee-4d85-8ec2-76c2454ac3b2"
        }
      }
    },
    {
      "fullUrl": "urn:uuid:dc91ed33-26ee-4d85-8ec2-76c2454ac3b2",
      "resource": {
        "resourceType": "Practitioner",
        "id": "dc91ed33-26ee-4d85-8ec2-76c2454ac3b2",
        "meta": {
          "profile": [
            "http://hl7.eu/fhir/base/StructureDefinition/practitioner-eu"
          ]
        },
        "identifier": [
          {
            "assigner": {
              "display": "HL7 Europe"
            },
            "system": "urn:oid:2.16.840.1.113883.2.51.999",
            "value": "1707a765-6794-4503-b3f0-21124dc3788e"
          }
        ],
        "name": [
          {
            "prefix": [
              "dr"
            ],
            "given": [
              "Ex"
            ],
            "family": "Ample"
          }
        ],
        "address": [
          {
            "line": [
              "Laboratoire Central Européenne",
              "Boulevard du Jardin Botanique 32"
            ],
            "postalCode": "1000",
            "city": "Brussels",
            "country": "Belgium"
          }
        ],
        "text": {
          "status": "generated",
          "div": "<div xmlns=\"http://www.w3.org/1999/xhtml\">Laboratory: Laboratoire Central Européenne, 1000 Brussels, Belgium</div>"
        }
      }
    }
  ],
  "type": "document",
  "timestamp": "2017-07-06T16:42:11Z"
}
