{
  "resourceType": "Bundle",
  "id": "c12d4f94-07a0-4965-9d7d-bf607f9cbed8",
  "meta": {
    "profile": [
      "http://hl7.eu/fhir/laboratory/StructureDefinition/Bundle-eu-lab"
    ]
  },
  "identifier": {
    "assigner": {
      "display": "HL7 Europe"
    },
    "system": "urn:oid:2.16.840.1.113883.2.51.999",
    "value": "e3699019-5ed2-45b3-ad2f-2e4414061316"
  },
  "entry": [
    {
      "fullUrl": "urn:uuid:43abbf44-3d8d-4ca3-b2e7-7c3ea8c3af0a",
      "resource": {
        "resourceType": "Composition",
        "id": "43abbf44-3d8d-4ca3-b2e7-7c3ea8c3af0a",
        "meta": {
          "profile": [
            "http://hl7.eu/fhir/laboratory/StructureDefinition/Composition-eu-lab"
          ]
        },
        "identifier": {
          "assigner": {
            "display": "HL7 Europe"
          },
          "system": "urn:oid:2.16.840.1.113883.2.51.999",
          "value": "652058c0-93d5-4aff-8f24-945a532b2235"
        },
        "author": [
          {
            "reference": "urn:uuid:ea07335c-a20d-4362-8574-f733f7da2d4c"
          }
        ],
        "category": [
          {
            "coding": [
              {
                "code": "26436-6",
                "system": "http://loinc.org",
                "display": "Laboratory studies (set)"
              }
            ]
          }
        ],
        "type": {
          "coding": [
            {
              "code": "11502-2",
              "system": "http://loinc.org",
              "display": "Laboratory report"
            }
          ],
          "text": "Laboratory Report"
        },
        "section": [
          {
            "code": {
              "coding": [
                {
                  "code": "26436-6",
                  "system": "http://loinc.org",
                  "display": "Laboratory studies (set)"
                }
              ],
              "text": "Laboratory studies"
            },
            "section": [
              {
                "code": {
                  "coding": [
                    {
                      "code": "$18719-5",
                      "system": "http://loinc.org",
                      "display": "Chemistry studies (set)"
                    }
                  ],
                  "text": "Chemistry"
                },
                "entry": [
                  {
                    "reference": "urn:uuid:8ef94c1d-500c-48c6-8733-d4252c2748b2"
                  },
                  {
                    "reference": "urn:uuid:68c8e56a-c3bd-4a9c-9630-aecf1e1002e9"
                  },
                  {
                    "reference": "urn:uuid:1cb0e5cf-f875-49de-85f2-861a8d76aa55"
                  },
                  {
                    "reference": "urn:uuid:3eff928a-8acd-4569-a792-9620f6e2f326"
                  },
                  {
                    "reference": "urn:uuid:b20db40a-6092-4670-a5c4-2fd54ba86d04"
                  },
                  {
                    "reference": "urn:uuid:96f04e54-3ebc-49a4-a0e6-af7ad750bd0c"
                  },
                  {
                    "reference": "urn:uuid:17a6eda1-c159-4525-93fc-e8cb46930149"
                  },
                  {
                    "reference": "urn:uuid:1d2644d5-993c-4c72-8c4f-27f752197278"
                  },
                  {
                    "reference": "urn:uuid:37c51a25-f5a0-4931-9666-610da95096d9"
                  },
                  {
                    "reference": "urn:uuid:cbb0c1b3-83b1-4b69-8ac5-3828aafa55dd"
                  },
                  {
                    "reference": "urn:uuid:845c5ceb-fb5d-45d2-abd0-1dddad4a122e"
                  },
                  {
                    "reference": "urn:uuid:ed0c19e2-bc05-44c2-99f7-949e3dc75895"
                  },
                  {
                    "reference": "urn:uuid:eb0dbf7c-fd8d-4097-82c6-e3fc1094bf01"
                  },
                  {
                    "reference": "urn:uuid:cb8c5ecd-2fac-4857-a8f4-8fc5ad0134d0"
                  },
                  {
                    "reference": "urn:uuid:cfde3226-9965-4dba-a88d-5e9734f0f8fe"
                  },
                  {
                    "reference": "urn:uuid:5c4f5781-00d5-4c31-aaec-275098ab041c"
                  },
                  {
                    "reference": "urn:uuid:1f03ecfd-8a62-43f0-b7c7-c39941be905f"
                  },
                  {
                    "reference": "urn:uuid:13cfc155-27cd-4663-b5d4-98a585902a88"
                  },
                  {
                    "reference": "urn:uuid:08c84ffa-87a8-48e0-a432-e589e305b6d3"
                  }
                ],
                "text": {
                  "status": "generated",
                  "div": "<div xmlns=\"http://www.w3.org/1999/xhtml\"><h3>Chemistry</h3><table class=\"hl7__eu__lab__report\"><thead><tr><th>Test</th><th>12-JUN-2018</th><th>Reference&#xA0;Range</th><th>Unit</th></tr></thead><tbody><tr><td>Glucose [Mass/volume] in Blood</td><td>82.0</td><td>70 - 99</td><td>mg/dL</td></tr><tr><td>Urea nitrogen [Mass/volume] in Blood</td><td>16.9</td><td>7 - 20</td><td>mg/dL</td></tr><tr><td>Creatinine [Mass/volume] in Blood</td><td><strong>3.2 H</strong></td><td>0.7 - 1.3</td><td>mg/dL</td></tr><tr><td>Calcium [Mass/volume] in Blood</td><td>9.6</td><td>8.5 - 10.5</td><td>mg/dL</td></tr><tr><td>Sodium [Moles/volume] in Blood</td><td>137.4</td><td>135 - 145</td><td>mmol/L</td></tr><tr><td>Potassium [Moles/volume] in Blood</td><td>3.9</td><td>3.5 - 5</td><td>mmol/L</td></tr><tr><td>Chloride [Moles/volume] in Blood</td><td><strong>109.9 H</strong></td><td>98 - 107</td><td>mmol/L</td></tr><tr><td>Carbon dioxide, total [Moles/volume] in Blood</td><td>24.8</td><td>24 - 29</td><td>mmol/L</td></tr><tr><td>Protein [Mass/volume] in Serum or Plasma</td><td>7.1</td><td>6.6 - 8.3</td><td>g/dL</td></tr><tr><td>Albumin [Mass/volume] in Serum or Plasma</td><td>4.1</td><td>3.5 - 5.5</td><td>g/dL</td></tr><tr><td>Globulin [Mass/volume] in Serum by calculation</td><td>2.2</td><td>2 - 3.5</td><td>g/L</td></tr><tr><td>Bilirubin.total [Mass/volume] in Serum or Plasma</td><td>0.9</td><td>0.3 - 1.2</td><td>mg/dL</td></tr><tr><td>Alkaline phosphatase [Enzymatic activity/volume] in Serum or Plasma</td><td>69.9</td><td>39 - 136</td><td>U/L</td></tr><tr><td>Alanine aminotransferase [Enzymatic activity/volume] in Serum or Plasma</td><td><strong>59.4 H</strong></td><td>7 - 52</td><td>U/L</td></tr><tr><td>Aspartate aminotransferase [Enzymatic activity/volume] in Serum or Plasma</td><td>29.6</td><td>10 - 40</td><td>U/L</td></tr><tr><td>Cholesterol [Mass/volume] in Serum or Plasma</td><td>165.3</td><td>125 - 200</td><td>mg/dL</td></tr><tr><td>Triglyceride [Mass/volume] in Serum or Plasma</td><td><strong>168.6 H</strong></td><td>0 - 150</td><td>mg/dL</td></tr><tr><td>Cholesterol in LDL [Mass/volume] in Serum or Plasma by Direct assay</td><td>127.3</td><td>0 - 130</td><td>mg/dL</td></tr><tr><td>Cholesterol in HDL [Mass/volume] in Serum or Plasma</td><td>66.6</td><td>40 - 100</td><td>mg/dL</td></tr></tbody></table></div>"
                },
                "title": "Chemistry"
              }
            ],
            "title": "Laboratory Report"
          },
          {
            "text": {
              "status": "generated",
              "div": "<div xmlns=\"http://www.w3.org/1999/xhtml\"><h3>Annotation</h3><table class=\"hl7__eu__lab__report\"><tr><th>Conclusion and Recommendations based on this report and previous findings known to us</th></tr><tr><td>The patient shows elevated creatinine, suggesting impaired renal function, and mild hyperchloremia. ALT is slightly elevated, indicating possible mild liver involvement. Triglycerides are above normal, which may increase cardiovascular risk. Other parameters, including glucose, electrolytes, and liver function tests, are within normal limits. Renal and liver function should be further evaluated clinically.</td></tr></table></div>"
            },
            "code": {
              "coding": [
                {
                  "system": "http://loinc.org",
                  "code": "48767-8",
                  "display": "Annotation comment"
                }
              ]
            },
            "title": "Annotation comment"
          }
        ],
        "status": "final",
        "subject": {
          "reference": "urn:uuid:e559952b-ebbb-4875-86ed-0539a0cc7f31",
          "display": "Gioele Fabbri"
        },
        "date": "2018-06-12T17:46:20Z",
        "title": "Laboratory Report",
        "confidentiality": "N"
      }
    },
    {
      "fullUrl": "urn:uuid:b045aa08-67d2-452a-8348-ac456e25ea6e",
      "resource": {
        "resourceType": "DiagnosticReport",
        "id": "b045aa08-67d2-452a-8348-ac456e25ea6e",
        "meta": {
          "profile": [
            "http://hl7.eu/fhir/laboratory/StructureDefinition/DiagnosticReport-eu-lab"
          ]
        },
        "identifier": [
          {
            "assigner": {
              "display": "HL7 Europe"
            },
            "system": "urn:oid:2.16.840.1.113883.2.51.999",
            "value": "83c951e4-267f-49dc-bdac-c2e954ebcc81"
          }
        ],
        "extension": [
          {
            "url": "http://hl7.org/fhir/5.0/StructureDefinition/extension-DiagnosticReport.composition",
            "valueReference": {
              "reference": "urn:uuid:652058c0-93d5-4aff-8f24-945a532b2235"
            }
          }
        ],
        "category": [
          {
            "coding": [
              {
                "code": "26436-6",
                "system": "http://loinc.org",
                "display": "Laboratory studies (set)"
              }
            ]
          }
        ],
        "specimen": [
          {
            "reference": "urn:uuid:bce57e9b-7d12-422c-9a4a-54b070abaa71"
          },
          {
            "reference": "urn:uuid:b65ce2c4-ee4d-455c-8609-6fe96a42a486"
          },
          {
            "reference": "urn:uuid:66d05573-864a-4fa9-8bd0-01c813416a68"
          }
        ],
        "result": [
          {
            "reference": "urn:uuid:8ef94c1d-500c-48c6-8733-d4252c2748b2"
          },
          {
            "reference": "urn:uuid:68c8e56a-c3bd-4a9c-9630-aecf1e1002e9"
          },
          {
            "reference": "urn:uuid:1cb0e5cf-f875-49de-85f2-861a8d76aa55"
          },
          {
            "reference": "urn:uuid:3eff928a-8acd-4569-a792-9620f6e2f326"
          },
          {
            "reference": "urn:uuid:b20db40a-6092-4670-a5c4-2fd54ba86d04"
          },
          {
            "reference": "urn:uuid:96f04e54-3ebc-49a4-a0e6-af7ad750bd0c"
          },
          {
            "reference": "urn:uuid:17a6eda1-c159-4525-93fc-e8cb46930149"
          },
          {
            "reference": "urn:uuid:1d2644d5-993c-4c72-8c4f-27f752197278"
          },
          {
            "reference": "urn:uuid:37c51a25-f5a0-4931-9666-610da95096d9"
          },
          {
            "reference": "urn:uuid:cbb0c1b3-83b1-4b69-8ac5-3828aafa55dd"
          },
          {
            "reference": "urn:uuid:845c5ceb-fb5d-45d2-abd0-1dddad4a122e"
          },
          {
            "reference": "urn:uuid:ed0c19e2-bc05-44c2-99f7-949e3dc75895"
          },
          {
            "reference": "urn:uuid:eb0dbf7c-fd8d-4097-82c6-e3fc1094bf01"
          },
          {
            "reference": "urn:uuid:cb8c5ecd-2fac-4857-a8f4-8fc5ad0134d0"
          },
          {
            "reference": "urn:uuid:cfde3226-9965-4dba-a88d-5e9734f0f8fe"
          },
          {
            "reference": "urn:uuid:5c4f5781-00d5-4c31-aaec-275098ab041c"
          },
          {
            "reference": "urn:uuid:1f03ecfd-8a62-43f0-b7c7-c39941be905f"
          },
          {
            "reference": "urn:uuid:13cfc155-27cd-4663-b5d4-98a585902a88"
          },
          {
            "reference": "urn:uuid:08c84ffa-87a8-48e0-a432-e589e305b6d3"
          }
        ],
        "status": "registered",
        "code": {
          "coding": [
            {
              "code": "11502-2",
              "system": "http://loinc.org",
              "display": "Laboratory report"
            }
          ]
        },
        "subject": {
          "reference": "urn:uuid:e559952b-ebbb-4875-86ed-0539a0cc7f31",
          "display": "Gioele Fabbri"
        }
      }
    },
    {
      "fullUrl": "urn:uuid:e559952b-ebbb-4875-86ed-0539a0cc7f31",
      "resource": {
        "resourceType": "Patient",
        "id": "e559952b-ebbb-4875-86ed-0539a0cc7f31",
        "meta": {
          "security": [
            {
              "system": "http://terminology.hl7.org/CodeSystem/v3-ActReason",
              "code": "HTEST"
            },
            {
              "system": "http://terminology.hl7.org/CodeSystem/v3-ActReason",
              "code": "TRAIN"
            }
          ],
          "tag": [
            {
              "system": "https://synderai.net/fhir/CodeSystem/tags",
              "code": "synthetic",
              "display": "SYNDERAI Synthetic data"
            }
          ],
          "profile": [
            "http://hl7.eu/fhir/base/StructureDefinition/patient-eu-core"
          ]
        },
        "identifier": [
          {
            "type": {
              "coding": [
                {
                  "code": "PT",
                  "system": "http://terminology.hl7.org/CodeSystem/v2-0203"
                }
              ]
            },
            "system": "http://ec.europa.eu/identifier/eci",
            "value": "3631-767680-1"
          },
          {
            "type": {
              "coding": [
                {
                  "code": "MR",
                  "system": "http://terminology.hl7.org/CodeSystem/v2-0203"
                }
              ]
            },
            "system": "http://local.setting.eu/identifier",
            "value": "0a14935e-e0f7-2e1e-46fa-42b10e75d1f9"
          }
        ],
        "name": [
          {
            "family": "Fabbri"
          },
          {
            "given": [
              "Gioele"
            ]
          },
          {
            "text": "Gioele Fabbri"
          }
        ],
        "address": [
          {
            "line": [
              "Canale Armani, 25"
            ],
            "use": "home",
            "type": "physical",
            "postalCode": "23887",
            "city": "Revislate",
            "country": "Italy"
          }
        ],
        "telecom": [
          {
            "system": "phone",
            "value": "+39 0423197768"
          }
        ],
        "extension": [
          {
            "url": "http://hl7.org/fhir/StructureDefinition/patient-nationality",
            "valueCodeableConcept": {
              "coding": [
                {
                  "code": "IT",
                  "system": "http://hl7.org/fhir/ValueSet/country"
                }
              ]
            }
          }
        ],
        "text": {
          "status": "generated",
          "div": "<div xmlns=\"http://www.w3.org/1999/xhtml\"><table class=\"hl7__ips\"><tr><td>Gioele Fabbri</td><td>male</td><td>12-Sep-1972</td></tr></table></div>"
        },
        "gender": "male",
        "birthDate": "1972-09-12"
      }
    },
    {
      "fullUrl": "urn:uuid:05577303-2948-46ac-a91b-0ac0a3a9721d",
      "resource": {
        "resourceType": "ServiceRequest",
        "id": "05577303-2948-46ac-a91b-0ac0a3a9721d",
        "meta": {
          "profile": [
            "http://hl7.eu/fhir/laboratory/StructureDefinition/ServiceRequest-eu-lab"
          ]
        },
        "identifier": [
          {
            "system": "http://example.org",
            "value": "714bee78-0a86-4eef-8334-d484d154dcf3"
          }
        ],
        "specimen": [
          {
            "reference": "urn:uuid:bce57e9b-7d12-422c-9a4a-54b070abaa71"
          },
          {
            "reference": "urn:uuid:b65ce2c4-ee4d-455c-8609-6fe96a42a486"
          },
          {
            "reference": "urn:uuid:66d05573-864a-4fa9-8bd0-01c813416a68"
          }
        ],
        "reasonCode": [
          {
            "coding": [
              {
                "code": "271737000",
                "system": "http://snomed.info/sct",
                "display": "Anemia"
              }
            ]
          },
          {
            "coding": [
              {
                "code": "15777000",
                "system": "http://snomed.info/sct",
                "display": "Prediabetes"
              }
            ]
          },
          {
            "coding": [
              {
                "code": "713197008",
                "system": "http://snomed.info/sct",
                "display": "Recurrent rectal polyp"
              }
            ]
          },
          {
            "coding": [
              {
                "code": "68496003",
                "system": "http://snomed.info/sct",
                "display": "Polyp of colon"
              }
            ]
          },
          {
            "coding": [
              {
                "code": "55822004",
                "system": "http://snomed.info/sct",
                "display": "Hyperlipidemia"
              }
            ]
          },
          {
            "coding": [
              {
                "code": "124171000119105",
                "system": "http://snomed.info/sct",
                "display": "Chronic intractable migraine without aura"
              }
            ]
          }
        ],
        "status": "active",
        "intent": "order",
        "code": {
          "coding": [
            {
              "code": "108252007",
              "system": "http://snomed.info/sct",
              "display": "Laboratory procedure"
            }
          ]
        },
        "subject": {
          "reference": "urn:uuid:e559952b-ebbb-4875-86ed-0539a0cc7f31",
          "display": "Gioele Fabbri"
        },
        "requester": {
          "reference": "urn:uuid:0d85165e-7f0c-44ce-9237-71a5e4e6fd2e"
        }
      }
    },
    {
      "fullUrl": "urn:uuid:0d85165e-7f0c-44ce-9237-71a5e4e6fd2e",
      "resource": {
        "resourceType": "PractitionerRole",
        "id": "0d85165e-7f0c-44ce-9237-71a5e4e6fd2e",
        "meta": {
          "profile": [
            "http://hl7.eu/fhir/base/StructureDefinition/practitionerRole-eu"
          ]
        },
        "text": {
          "status": "generated",
          "div": "<div xmlns=\"http://www.w3.org/1999/xhtml\">Provider Role Id: 0d85165e-7f0c-44ce-9237-71a5e4e6fd2e</div>"
        },
        "organization": {
          "reference": "urn:uuid:89931e03-d5d6-490c-8e01-4d2c2f8be764"
        }
      }
    },
    {
      "fullUrl": "urn:uuid:89931e03-d5d6-490c-8e01-4d2c2f8be764",
      "resource": {
        "resourceType": "Organization",
        "id": "89931e03-d5d6-490c-8e01-4d2c2f8be764",
        "meta": {
          "profile": [
            "http://hl7.eu/fhir/base/StructureDefinition/organization-eu"
          ]
        },
        "identifier": [
          {
            "assigner": {
              "display": "HL7 Europe"
            },
            "system": "urn:oid:2.16.840.1.113883.2.51.999",
            "value": "aa3001cd-4244-47cd-9339-998b4c11721a"
          }
        ],
        "address": [
          {
            "line": [
              "Piazza Ospedale 3"
            ],
            "city": "Calcinate",
            "postalCode": "24050",
            "country": "Italy"
          }
        ],
        "text": {
          "status": "generated",
          "div": "<div xmlns=\"http://www.w3.org/1999/xhtml\">Provider Organization: Ospedale di Calcinate &quot;F.M. Passi&quot;</div>"
        },
        "name": "Ospedale di Calcinate &quot;F.M. Passi&quot;"
      }
    },
    {
      "fullUrl": "urn:uuid:bce57e9b-7d12-422c-9a4a-54b070abaa71",
      "resource": {
        "resourceType": "Specimen",
        "id": "bce57e9b-7d12-422c-9a4a-54b070abaa71",
        "meta": {
          "profile": [
            "http://hl7.eu/fhir/laboratory/StructureDefinition/Specimen-eu-lab"
          ]
        },
        "collection": {
          "collectedDateTime": "2018-06-12"
        },
        "text": {
          "status": "generated",
          "div": "<div xmlns=\"http://www.w3.org/1999/xhtml\"><table class=\"hl7__eu__lab__report\"><tr><th>Specimen</th><th>Collection Date</th></tr><tr><td>Whole blood specimen (specimen)</td><td><span class=\"nb\">12-Jun-2018</span></td></tr></table></div>"
        },
        "type": {
          "coding": [
            {
              "code": "258580003",
              "system": "http://snomed.info/sct",
              "display": "Whole blood specimen (specimen)"
            }
          ]
        }
      }
    },
    {
      "fullUrl": "urn:uuid:b65ce2c4-ee4d-455c-8609-6fe96a42a486",
      "resource": {
        "resourceType": "Specimen",
        "id": "b65ce2c4-ee4d-455c-8609-6fe96a42a486",
        "meta": {
          "profile": [
            "http://hl7.eu/fhir/laboratory/StructureDefinition/Specimen-eu-lab"
          ]
        },
        "collection": {
          "collectedDateTime": "2018-06-12"
        },
        "text": {
          "status": "generated",
          "div": "<div xmlns=\"http://www.w3.org/1999/xhtml\"><table class=\"hl7__eu__lab__report\"><tr><th>Specimen</th><th>Collection Date</th></tr><tr><td>Acellular blood (serum or plasma) specimen</td><td><span class=\"nb\">12-Jun-2018</span></td></tr></table></div>"
        },
        "type": {
          "coding": [
            {
              "code": "122592007",
              "system": "http://snomed.info/sct",
              "display": "Acellular blood (serum or plasma) specimen"
            }
          ]
        }
      }
    },
    {
      "fullUrl": "urn:uuid:66d05573-864a-4fa9-8bd0-01c813416a68",
      "resource": {
        "resourceType": "Specimen",
        "id": "66d05573-864a-4fa9-8bd0-01c813416a68",
        "meta": {
          "profile": [
            "http://hl7.eu/fhir/laboratory/StructureDefinition/Specimen-eu-lab"
          ]
        },
        "collection": {
          "collectedDateTime": "2018-06-12"
        },
        "text": {
          "status": "generated",
          "div": "<div xmlns=\"http://www.w3.org/1999/xhtml\"><table class=\"hl7__eu__lab__report\"><tr><th>Specimen</th><th>Collection Date</th></tr><tr><td>Serum specimen</td><td><span class=\"nb\">12-Jun-2018</span></td></tr></table></div>"
        },
        "type": {
          "coding": [
            {
              "code": "119364003",
              "system": "http://snomed.info/sct",
              "display": "Serum specimen"
            }
          ]
        }
      }
    },
    {
      "fullUrl": "urn:uuid:8ef94c1d-500c-48c6-8733-d4252c2748b2",
      "resource": {
        "resourceType": "Observation",
        "id": "8ef94c1d-500c-48c6-8733-d4252c2748b2",
        "meta": {
          "profile": [
            "http://hl7.eu/fhir/laboratory/StructureDefinition/Observation-resultslab-eu-lab"
          ]
        },
        "performer": [
          {
            "display": "The Central European Lab"
          }
        ],
        "category": [
          {
            "coding": [
              {
                "system": "http://terminology.hl7.org/CodeSystem/observation-category",
                "code": "laboratory"
              }
            ]
          }
        ],
        "code": {
          "coding": [
            {
              "code": "2339-0",
              "system": "http://loinc.org",
              "display": "Glucose [Mass/volume] in Blood"
            }
          ],
          "text": "Glucose [Mass/volume] in Blood"
        },
        "valueQuantity": {
          "system": "http://unitsofmeasure.org",
          "value": 82,
          "unit": "mg/dL",
          "code": "mg/dL"
        },
        "referenceRange": [
          {
            "low": {
              "value": 70,
              "code": "mg/dL",
              "system": "http://unitsofmeasure.org"
            }
          },
          {
            "high": {
              "value": 99,
              "code": "mg/dL",
              "system": "http://unitsofmeasure.org"
            }
          }
        ],
        "text": {
          "status": "generated",
          "div": "<div xmlns=\"http://www.w3.org/1999/xhtml\"><table class=\"hl7__eu__lab__report\"><tr><th>Test</th><th>12-Jun-2018</th><th>Reference&#xA0;Range</th><th>Unit</th></tr><tr><td>Glucose [Mass/volume] in Blood</td><td>82.0</td><td>70 - 99</td><td></td><td>mg/dL</td></tr></table></div>"
        },
        "status": "final",
        "subject": {
          "reference": "urn:uuid:e559952b-ebbb-4875-86ed-0539a0cc7f31",
          "display": "Gioele Fabbri"
        },
        "effectiveDateTime": "2018-06-12T15:46:20Z",
        "specimen": {
          "reference": "urn:uuid:bce57e9b-7d12-422c-9a4a-54b070abaa71"
        }
      }
    },
    {
      "fullUrl": "urn:uuid:68c8e56a-c3bd-4a9c-9630-aecf1e1002e9",
      "resource": {
        "resourceType": "Observation",
        "id": "68c8e56a-c3bd-4a9c-9630-aecf1e1002e9",
        "meta": {
          "profile": [
            "http://hl7.eu/fhir/laboratory/StructureDefinition/Observation-resultslab-eu-lab"
          ]
        },
        "performer": [
          {
            "display": "The Central European Lab"
          }
        ],
        "category": [
          {
            "coding": [
              {
                "system": "http://terminology.hl7.org/CodeSystem/observation-category",
                "code": "laboratory"
              }
            ]
          }
        ],
        "code": {
          "coding": [
            {
              "code": "6299-2",
              "system": "http://loinc.org",
              "display": "Urea nitrogen [Mass/volume] in Blood"
            }
          ],
          "text": "Urea nitrogen [Mass/volume] in Blood"
        },
        "valueQuantity": {
          "system": "http://unitsofmeasure.org",
          "value": 16.9,
          "unit": "mg/dL",
          "code": "mg/dL"
        },
        "referenceRange": [
          {
            "low": {
              "value": 7,
              "code": "mg/dL",
              "system": "http://unitsofmeasure.org"
            }
          },
          {
            "high": {
              "value": 20,
              "code": "mg/dL",
              "system": "http://unitsofmeasure.org"
            }
          }
        ],
        "text": {
          "status": "generated",
          "div": "<div xmlns=\"http://www.w3.org/1999/xhtml\"><table class=\"hl7__eu__lab__report\"><tr><th>Test</th><th>12-Jun-2018</th><th>Reference&#xA0;Range</th><th>Unit</th></tr><tr><td>Urea nitrogen [Mass/volume] in Blood</td><td>16.9</td><td>7 - 20</td><td></td><td>mg/dL</td></tr></table></div>"
        },
        "status": "final",
        "subject": {
          "reference": "urn:uuid:e559952b-ebbb-4875-86ed-0539a0cc7f31",
          "display": "Gioele Fabbri"
        },
        "effectiveDateTime": "2018-06-12T15:46:20Z",
        "specimen": {
          "reference": "urn:uuid:bce57e9b-7d12-422c-9a4a-54b070abaa71"
        }
      }
    },
    {
      "fullUrl": "urn:uuid:1cb0e5cf-f875-49de-85f2-861a8d76aa55",
      "resource": {
        "resourceType": "Observation",
        "id": "1cb0e5cf-f875-49de-85f2-861a8d76aa55",
        "meta": {
          "profile": [
            "http://hl7.eu/fhir/laboratory/StructureDefinition/Observation-resultslab-eu-lab"
          ]
        },
        "performer": [
          {
            "display": "The Central European Lab"
          }
        ],
        "category": [
          {
            "coding": [
              {
                "system": "http://terminology.hl7.org/CodeSystem/observation-category",
                "code": "laboratory"
              }
            ]
          }
        ],
        "code": {
          "coding": [
            {
              "code": "38483-4",
              "system": "http://loinc.org",
              "display": "Creatinine [Mass/volume] in Blood"
            }
          ],
          "text": "Creatinine [Mass/volume] in Blood"
        },
        "valueQuantity": {
          "system": "http://unitsofmeasure.org",
          "value": 3.2,
          "unit": "mg/dL",
          "code": "mg/dL"
        },
        "referenceRange": [
          {
            "low": {
              "value": 0.7,
              "code": "mg/dL",
              "system": "http://unitsofmeasure.org"
            }
          },
          {
            "high": {
              "value": 1.3,
              "code": "mg/dL",
              "system": "http://unitsofmeasure.org"
            }
          }
        ],
        "interpretation": [
          {
            "coding": [
              {
                "code": "H",
                "system": "http://terminology.hl7.org/CodeSystem/v3-ObservationInterpretation",
                "display": "High"
              }
            ]
          }
        ],
        "text": {
          "status": "generated",
          "div": "<div xmlns=\"http://www.w3.org/1999/xhtml\"><table class=\"hl7__eu__lab__report\"><tr><th>Test</th><th>12-Jun-2018</th><th>Reference&#xA0;Range</th><th>Unit</th></tr><tr><td>Creatinine [Mass/volume] in Blood</td><td>3.2</td><td>0.7 - 1.3</td><td>H</td><td>mg/dL</td></tr></table></div>"
        },
        "status": "final",
        "subject": {
          "reference": "urn:uuid:e559952b-ebbb-4875-86ed-0539a0cc7f31",
          "display": "Gioele Fabbri"
        },
        "effectiveDateTime": "2018-06-12T15:46:20Z",
        "specimen": {
          "reference": "urn:uuid:bce57e9b-7d12-422c-9a4a-54b070abaa71"
        }
      }
    },
    {
      "fullUrl": "urn:uuid:3eff928a-8acd-4569-a792-9620f6e2f326",
      "resource": {
        "resourceType": "Observation",
        "id": "3eff928a-8acd-4569-a792-9620f6e2f326",
        "meta": {
          "profile": [
            "http://hl7.eu/fhir/laboratory/StructureDefinition/Observation-resultslab-eu-lab"
          ]
        },
        "performer": [
          {
            "display": "The Central European Lab"
          }
        ],
        "category": [
          {
            "coding": [
              {
                "system": "http://terminology.hl7.org/CodeSystem/observation-category",
                "code": "laboratory"
              }
            ]
          }
        ],
        "code": {
          "coding": [
            {
              "code": "49765-1",
              "system": "http://loinc.org",
              "display": "Calcium [Mass/volume] in Blood"
            }
          ],
          "text": "Calcium [Mass/volume] in Blood"
        },
        "valueQuantity": {
          "system": "http://unitsofmeasure.org",
          "value": 9.6,
          "unit": "mg/dL",
          "code": "mg/dL"
        },
        "referenceRange": [
          {
            "low": {
              "value": 8.5,
              "code": "mg/dL",
              "system": "http://unitsofmeasure.org"
            }
          },
          {
            "high": {
              "value": 10.5,
              "code": "mg/dL",
              "system": "http://unitsofmeasure.org"
            }
          }
        ],
        "text": {
          "status": "generated",
          "div": "<div xmlns=\"http://www.w3.org/1999/xhtml\"><table class=\"hl7__eu__lab__report\"><tr><th>Test</th><th>12-Jun-2018</th><th>Reference&#xA0;Range</th><th>Unit</th></tr><tr><td>Calcium [Mass/volume] in Blood</td><td>9.6</td><td>8.5 - 10.5</td><td></td><td>mg/dL</td></tr></table></div>"
        },
        "status": "final",
        "subject": {
          "reference": "urn:uuid:e559952b-ebbb-4875-86ed-0539a0cc7f31",
          "display": "Gioele Fabbri"
        },
        "effectiveDateTime": "2018-06-12T15:46:20Z",
        "specimen": {
          "reference": "urn:uuid:bce57e9b-7d12-422c-9a4a-54b070abaa71"
        }
      }
    },
    {
      "fullUrl": "urn:uuid:b20db40a-6092-4670-a5c4-2fd54ba86d04",
      "resource": {
        "resourceType": "Observation",
        "id": "b20db40a-6092-4670-a5c4-2fd54ba86d04",
        "meta": {
          "profile": [
            "http://hl7.eu/fhir/laboratory/StructureDefinition/Observation-resultslab-eu-lab"
          ]
        },
        "performer": [
          {
            "display": "The Central European Lab"
          }
        ],
        "category": [
          {
            "coding": [
              {
                "system": "http://terminology.hl7.org/CodeSystem/observation-category",
                "code": "laboratory"
              }
            ]
          }
        ],
        "code": {
          "coding": [
            {
              "code": "2947-0",
              "system": "http://loinc.org",
              "display": "Sodium [Moles/volume] in Blood"
            }
          ],
          "text": "Sodium [Moles/volume] in Blood"
        },
        "valueQuantity": {
          "system": "http://unitsofmeasure.org",
          "value": 137.4,
          "unit": "mmol/L",
          "code": "mmol/L"
        },
        "referenceRange": [
          {
            "low": {
              "value": 135,
              "code": "mmol/L",
              "system": "http://unitsofmeasure.org"
            }
          },
          {
            "high": {
              "value": 145,
              "code": "mmol/L",
              "system": "http://unitsofmeasure.org"
            }
          }
        ],
        "text": {
          "status": "generated",
          "div": "<div xmlns=\"http://www.w3.org/1999/xhtml\"><table class=\"hl7__eu__lab__report\"><tr><th>Test</th><th>12-Jun-2018</th><th>Reference&#xA0;Range</th><th>Unit</th></tr><tr><td>Sodium [Moles/volume] in Blood</td><td>137.4</td><td>135 - 145</td><td></td><td>mmol/L</td></tr></table></div>"
        },
        "status": "final",
        "subject": {
          "reference": "urn:uuid:e559952b-ebbb-4875-86ed-0539a0cc7f31",
          "display": "Gioele Fabbri"
        },
        "effectiveDateTime": "2018-06-12T15:46:20Z",
        "specimen": {
          "reference": "urn:uuid:bce57e9b-7d12-422c-9a4a-54b070abaa71"
        }
      }
    },
    {
      "fullUrl": "urn:uuid:96f04e54-3ebc-49a4-a0e6-af7ad750bd0c",
      "resource": {
        "resourceType": "Observation",
        "id": "96f04e54-3ebc-49a4-a0e6-af7ad750bd0c",
        "meta": {
          "profile": [
            "http://hl7.eu/fhir/laboratory/StructureDefinition/Observation-resultslab-eu-lab"
          ]
        },
        "performer": [
          {
            "display": "The Central European Lab"
          }
        ],
        "category": [
          {
            "coding": [
              {
                "system": "http://terminology.hl7.org/CodeSystem/observation-category",
                "code": "laboratory"
              }
            ]
          }
        ],
        "code": {
          "coding": [
            {
              "code": "6298-4",
              "system": "http://loinc.org",
              "display": "Potassium [Moles/volume] in Blood"
            }
          ],
          "text": "Potassium [Moles/volume] in Blood"
        },
        "valueQuantity": {
          "system": "http://unitsofmeasure.org",
          "value": 3.9,
          "unit": "mmol/L",
          "code": "mmol/L"
        },
        "referenceRange": [
          {
            "low": {
              "value": 3.5,
              "code": "mmol/L",
              "system": "http://unitsofmeasure.org"
            }
          },
          {
            "high": {
              "value": 5,
              "code": "mmol/L",
              "system": "http://unitsofmeasure.org"
            }
          }
        ],
        "text": {
          "status": "generated",
          "div": "<div xmlns=\"http://www.w3.org/1999/xhtml\"><table class=\"hl7__eu__lab__report\"><tr><th>Test</th><th>12-Jun-2018</th><th>Reference&#xA0;Range</th><th>Unit</th></tr><tr><td>Potassium [Moles/volume] in Blood</td><td>3.9</td><td>3.5 - 5</td><td></td><td>mmol/L</td></tr></table></div>"
        },
        "status": "final",
        "subject": {
          "reference": "urn:uuid:e559952b-ebbb-4875-86ed-0539a0cc7f31",
          "display": "Gioele Fabbri"
        },
        "effectiveDateTime": "2018-06-12T15:46:20Z",
        "specimen": {
          "reference": "urn:uuid:bce57e9b-7d12-422c-9a4a-54b070abaa71"
        }
      }
    },
    {
      "fullUrl": "urn:uuid:17a6eda1-c159-4525-93fc-e8cb46930149",
      "resource": {
        "resourceType": "Observation",
        "id": "17a6eda1-c159-4525-93fc-e8cb46930149",
        "meta": {
          "profile": [
            "http://hl7.eu/fhir/laboratory/StructureDefinition/Observation-resultslab-eu-lab"
          ]
        },
        "performer": [
          {
            "display": "The Central European Lab"
          }
        ],
        "category": [
          {
            "coding": [
              {
                "system": "http://terminology.hl7.org/CodeSystem/observation-category",
                "code": "laboratory"
              }
            ]
          }
        ],
        "code": {
          "coding": [
            {
              "code": "2069-3",
              "system": "http://loinc.org",
              "display": "Chloride [Moles/volume] in Blood"
            }
          ],
          "text": "Chloride [Moles/volume] in Blood"
        },
        "valueQuantity": {
          "system": "http://unitsofmeasure.org",
          "value": 109.9,
          "unit": "mmol/L",
          "code": "mmol/L"
        },
        "referenceRange": [
          {
            "low": {
              "value": 98,
              "code": "mmol/L",
              "system": "http://unitsofmeasure.org"
            }
          },
          {
            "high": {
              "value": 107,
              "code": "mmol/L",
              "system": "http://unitsofmeasure.org"
            }
          }
        ],
        "interpretation": [
          {
            "coding": [
              {
                "code": "H",
                "system": "http://terminology.hl7.org/CodeSystem/v3-ObservationInterpretation",
                "display": "High"
              }
            ]
          }
        ],
        "text": {
          "status": "generated",
          "div": "<div xmlns=\"http://www.w3.org/1999/xhtml\"><table class=\"hl7__eu__lab__report\"><tr><th>Test</th><th>12-Jun-2018</th><th>Reference&#xA0;Range</th><th>Unit</th></tr><tr><td>Chloride [Moles/volume] in Blood</td><td>109.9</td><td>98 - 107</td><td>H</td><td>mmol/L</td></tr></table></div>"
        },
        "status": "final",
        "subject": {
          "reference": "urn:uuid:e559952b-ebbb-4875-86ed-0539a0cc7f31",
          "display": "Gioele Fabbri"
        },
        "effectiveDateTime": "2018-06-12T15:46:20Z",
        "specimen": {
          "reference": "urn:uuid:bce57e9b-7d12-422c-9a4a-54b070abaa71"
        }
      }
    },
    {
      "fullUrl": "urn:uuid:1d2644d5-993c-4c72-8c4f-27f752197278",
      "resource": {
        "resourceType": "Observation",
        "id": "1d2644d5-993c-4c72-8c4f-27f752197278",
        "meta": {
          "profile": [
            "http://hl7.eu/fhir/laboratory/StructureDefinition/Observation-resultslab-eu-lab"
          ]
        },
        "performer": [
          {
            "display": "The Central European Lab"
          }
        ],
        "category": [
          {
            "coding": [
              {
                "system": "http://terminology.hl7.org/CodeSystem/observation-category",
                "code": "laboratory"
              }
            ]
          }
        ],
        "code": {
          "coding": [
            {
              "code": "20565-8",
              "system": "http://loinc.org",
              "display": "Carbon dioxide, total [Moles/volume] in Blood"
            }
          ],
          "text": "Carbon dioxide, total [Moles/volume] in Blood"
        },
        "valueQuantity": {
          "system": "http://unitsofmeasure.org",
          "value": 24.8,
          "unit": "mmol/L",
          "code": "mmol/L"
        },
        "referenceRange": [
          {
            "low": {
              "value": 24,
              "code": "mmol/L",
              "system": "http://unitsofmeasure.org"
            }
          },
          {
            "high": {
              "value": 29,
              "code": "mmol/L",
              "system": "http://unitsofmeasure.org"
            }
          }
        ],
        "text": {
          "status": "generated",
          "div": "<div xmlns=\"http://www.w3.org/1999/xhtml\"><table class=\"hl7__eu__lab__report\"><tr><th>Test</th><th>12-Jun-2018</th><th>Reference&#xA0;Range</th><th>Unit</th></tr><tr><td>Carbon dioxide, total [Moles/volume] in Blood</td><td>24.8</td><td>24 - 29</td><td></td><td>mmol/L</td></tr></table></div>"
        },
        "status": "final",
        "subject": {
          "reference": "urn:uuid:e559952b-ebbb-4875-86ed-0539a0cc7f31",
          "display": "Gioele Fabbri"
        },
        "effectiveDateTime": "2018-06-12T15:46:20Z",
        "specimen": {
          "reference": "urn:uuid:bce57e9b-7d12-422c-9a4a-54b070abaa71"
        }
      }
    },
    {
      "fullUrl": "urn:uuid:37c51a25-f5a0-4931-9666-610da95096d9",
      "resource": {
        "resourceType": "Observation",
        "id": "37c51a25-f5a0-4931-9666-610da95096d9",
        "meta": {
          "profile": [
            "http://hl7.eu/fhir/laboratory/StructureDefinition/Observation-resultslab-eu-lab"
          ]
        },
        "performer": [
          {
            "display": "The Central European Lab"
          }
        ],
        "category": [
          {
            "coding": [
              {
                "system": "http://terminology.hl7.org/CodeSystem/observation-category",
                "code": "laboratory"
              }
            ]
          }
        ],
        "code": {
          "coding": [
            {
              "code": "2885-2",
              "system": "http://loinc.org",
              "display": "Protein [Mass/volume] in Serum or Plasma"
            }
          ],
          "text": "Protein [Mass/volume] in Serum or Plasma"
        },
        "valueQuantity": {
          "system": "http://unitsofmeasure.org",
          "value": 7.1,
          "unit": "g/dL",
          "code": "g/dL"
        },
        "referenceRange": [
          {
            "low": {
              "value": 6.6,
              "code": "g/dL",
              "system": "http://unitsofmeasure.org"
            }
          },
          {
            "high": {
              "value": 8.3,
              "code": "g/dL",
              "system": "http://unitsofmeasure.org"
            }
          }
        ],
        "text": {
          "status": "generated",
          "div": "<div xmlns=\"http://www.w3.org/1999/xhtml\"><table class=\"hl7__eu__lab__report\"><tr><th>Test</th><th>12-Jun-2018</th><th>Reference&#xA0;Range</th><th>Unit</th></tr><tr><td>Protein [Mass/volume] in Serum or Plasma</td><td>7.1</td><td>6.6 - 8.3</td><td></td><td>g/dL</td></tr></table></div>"
        },
        "status": "final",
        "subject": {
          "reference": "urn:uuid:e559952b-ebbb-4875-86ed-0539a0cc7f31",
          "display": "Gioele Fabbri"
        },
        "effectiveDateTime": "2018-06-12T15:46:20Z",
        "specimen": {
          "reference": "urn:uuid:b65ce2c4-ee4d-455c-8609-6fe96a42a486"
        }
      }
    },
    {
      "fullUrl": "urn:uuid:cbb0c1b3-83b1-4b69-8ac5-3828aafa55dd",
      "resource": {
        "resourceType": "Observation",
        "id": "cbb0c1b3-83b1-4b69-8ac5-3828aafa55dd",
        "meta": {
          "profile": [
            "http://hl7.eu/fhir/laboratory/StructureDefinition/Observation-resultslab-eu-lab"
          ]
        },
        "performer": [
          {
            "display": "The Central European Lab"
          }
        ],
        "category": [
          {
            "coding": [
              {
                "system": "http://terminology.hl7.org/CodeSystem/observation-category",
                "code": "laboratory"
              }
            ]
          }
        ],
        "code": {
          "coding": [
            {
              "code": "1751-7",
              "system": "http://loinc.org",
              "display": "Albumin [Mass/volume] in Serum or Plasma"
            }
          ],
          "text": "Albumin [Mass/volume] in Serum or Plasma"
        },
        "valueQuantity": {
          "system": "http://unitsofmeasure.org",
          "value": 4.1,
          "unit": "g/dL",
          "code": "g/dL"
        },
        "referenceRange": [
          {
            "low": {
              "value": 3.5,
              "code": "g/dL",
              "system": "http://unitsofmeasure.org"
            }
          },
          {
            "high": {
              "value": 5.5,
              "code": "g/dL",
              "system": "http://unitsofmeasure.org"
            }
          }
        ],
        "text": {
          "status": "generated",
          "div": "<div xmlns=\"http://www.w3.org/1999/xhtml\"><table class=\"hl7__eu__lab__report\"><tr><th>Test</th><th>12-Jun-2018</th><th>Reference&#xA0;Range</th><th>Unit</th></tr><tr><td>Albumin [Mass/volume] in Serum or Plasma</td><td>4.1</td><td>3.5 - 5.5</td><td></td><td>g/dL</td></tr></table></div>"
        },
        "status": "final",
        "subject": {
          "reference": "urn:uuid:e559952b-ebbb-4875-86ed-0539a0cc7f31",
          "display": "Gioele Fabbri"
        },
        "effectiveDateTime": "2018-06-12T15:46:20Z",
        "specimen": {
          "reference": "urn:uuid:b65ce2c4-ee4d-455c-8609-6fe96a42a486"
        }
      }
    },
    {
      "fullUrl": "urn:uuid:845c5ceb-fb5d-45d2-abd0-1dddad4a122e",
      "resource": {
        "resourceType": "Observation",
        "id": "845c5ceb-fb5d-45d2-abd0-1dddad4a122e",
        "meta": {
          "profile": [
            "http://hl7.eu/fhir/laboratory/StructureDefinition/Observation-resultslab-eu-lab"
          ]
        },
        "performer": [
          {
            "display": "The Central European Lab"
          }
        ],
        "category": [
          {
            "coding": [
              {
                "system": "http://terminology.hl7.org/CodeSystem/observation-category",
                "code": "laboratory"
              }
            ]
          }
        ],
        "code": {
          "coding": [
            {
              "code": "10834-0",
              "system": "http://loinc.org",
              "display": "Globulin [Mass/volume] in Serum by calculation"
            }
          ],
          "text": "Globulin [Mass/volume] in Serum by calculation"
        },
        "valueQuantity": {
          "system": "http://unitsofmeasure.org",
          "value": 2.2,
          "unit": "g/L",
          "code": "g/L"
        },
        "referenceRange": [
          {
            "low": {
              "value": 2,
              "code": "g/L",
              "system": "http://unitsofmeasure.org"
            }
          },
          {
            "high": {
              "value": 3.5,
              "code": "g/L",
              "system": "http://unitsofmeasure.org"
            }
          }
        ],
        "text": {
          "status": "generated",
          "div": "<div xmlns=\"http://www.w3.org/1999/xhtml\"><table class=\"hl7__eu__lab__report\"><tr><th>Test</th><th>12-Jun-2018</th><th>Reference&#xA0;Range</th><th>Unit</th></tr><tr><td>Globulin [Mass/volume] in Serum by calculation</td><td>2.2</td><td>2 - 3.5</td><td></td><td>g/L</td></tr></table></div>"
        },
        "status": "final",
        "subject": {
          "reference": "urn:uuid:e559952b-ebbb-4875-86ed-0539a0cc7f31",
          "display": "Gioele Fabbri"
        },
        "effectiveDateTime": "2018-06-12T15:46:20Z",
        "specimen": {
          "reference": "urn:uuid:66d05573-864a-4fa9-8bd0-01c813416a68"
        }
      }
    },
    {
      "fullUrl": "urn:uuid:ed0c19e2-bc05-44c2-99f7-949e3dc75895",
      "resource": {
        "resourceType": "Observation",
        "id": "ed0c19e2-bc05-44c2-99f7-949e3dc75895",
        "meta": {
          "profile": [
            "http://hl7.eu/fhir/laboratory/StructureDefinition/Observation-resultslab-eu-lab"
          ]
        },
        "performer": [
          {
            "display": "The Central European Lab"
          }
        ],
        "category": [
          {
            "coding": [
              {
                "system": "http://terminology.hl7.org/CodeSystem/observation-category",
                "code": "laboratory"
              }
            ]
          }
        ],
        "code": {
          "coding": [
            {
              "code": "1975-2",
              "system": "http://loinc.org",
              "display": "Bilirubin.total [Mass/volume] in Serum or Plasma"
            }
          ],
          "text": "Bilirubin.total [Mass/volume] in Serum or Plasma"
        },
        "valueQuantity": {
          "system": "http://unitsofmeasure.org",
          "value": 0.9,
          "unit": "mg/dL",
          "code": "mg/dL"
        },
        "referenceRange": [
          {
            "low": {
              "value": 0.3,
              "code": "mg/dL",
              "system": "http://unitsofmeasure.org"
            }
          },
          {
            "high": {
              "value": 1.2,
              "code": "mg/dL",
              "system": "http://unitsofmeasure.org"
            }
          }
        ],
        "text": {
          "status": "generated",
          "div": "<div xmlns=\"http://www.w3.org/1999/xhtml\"><table class=\"hl7__eu__lab__report\"><tr><th>Test</th><th>12-Jun-2018</th><th>Reference&#xA0;Range</th><th>Unit</th></tr><tr><td>Bilirubin.total [Mass/volume] in Serum or Plasma</td><td>0.9</td><td>0.3 - 1.2</td><td></td><td>mg/dL</td></tr></table></div>"
        },
        "status": "final",
        "subject": {
          "reference": "urn:uuid:e559952b-ebbb-4875-86ed-0539a0cc7f31",
          "display": "Gioele Fabbri"
        },
        "effectiveDateTime": "2018-06-12T15:46:20Z",
        "specimen": {
          "reference": "urn:uuid:b65ce2c4-ee4d-455c-8609-6fe96a42a486"
        }
      }
    },
    {
      "fullUrl": "urn:uuid:eb0dbf7c-fd8d-4097-82c6-e3fc1094bf01",
      "resource": {
        "resourceType": "Observation",
        "id": "eb0dbf7c-fd8d-4097-82c6-e3fc1094bf01",
        "meta": {
          "profile": [
            "http://hl7.eu/fhir/laboratory/StructureDefinition/Observation-resultslab-eu-lab"
          ]
        },
        "performer": [
          {
            "display": "The Central European Lab"
          }
        ],
        "category": [
          {
            "coding": [
              {
                "system": "http://terminology.hl7.org/CodeSystem/observation-category",
                "code": "laboratory"
              }
            ]
          }
        ],
        "code": {
          "coding": [
            {
              "code": "6768-6",
              "system": "http://loinc.org",
              "display": "Alkaline phosphatase [Enzymatic activity/volume] in Serum or Plasma"
            }
          ],
          "text": "Alkaline phosphatase [Enzymatic activity/volume] in Serum or Plasma"
        },
        "valueQuantity": {
          "system": "http://unitsofmeasure.org",
          "value": 69.9,
          "unit": "U/L",
          "code": "U/L"
        },
        "referenceRange": [
          {
            "low": {
              "value": 39,
              "code": "U/L",
              "system": "http://unitsofmeasure.org"
            }
          },
          {
            "high": {
              "value": 136,
              "code": "U/L",
              "system": "http://unitsofmeasure.org"
            }
          }
        ],
        "text": {
          "status": "generated",
          "div": "<div xmlns=\"http://www.w3.org/1999/xhtml\"><table class=\"hl7__eu__lab__report\"><tr><th>Test</th><th>12-Jun-2018</th><th>Reference&#xA0;Range</th><th>Unit</th></tr><tr><td>Alkaline phosphatase [Enzymatic activity/volume] in Serum or Plasma</td><td>69.9</td><td>39 - 136</td><td></td><td>U/L</td></tr></table></div>"
        },
        "status": "final",
        "subject": {
          "reference": "urn:uuid:e559952b-ebbb-4875-86ed-0539a0cc7f31",
          "display": "Gioele Fabbri"
        },
        "effectiveDateTime": "2018-06-12T15:46:20Z",
        "specimen": {
          "reference": "urn:uuid:b65ce2c4-ee4d-455c-8609-6fe96a42a486"
        }
      }
    },
    {
      "fullUrl": "urn:uuid:cb8c5ecd-2fac-4857-a8f4-8fc5ad0134d0",
      "resource": {
        "resourceType": "Observation",
        "id": "cb8c5ecd-2fac-4857-a8f4-8fc5ad0134d0",
        "meta": {
          "profile": [
            "http://hl7.eu/fhir/laboratory/StructureDefinition/Observation-resultslab-eu-lab"
          ]
        },
        "performer": [
          {
            "display": "The Central European Lab"
          }
        ],
        "category": [
          {
            "coding": [
              {
                "system": "http://terminology.hl7.org/CodeSystem/observation-category",
                "code": "laboratory"
              }
            ]
          }
        ],
        "code": {
          "coding": [
            {
              "code": "1742-6",
              "system": "http://loinc.org",
              "display": "Alanine aminotransferase [Enzymatic activity/volume] in Serum or Plasma"
            }
          ],
          "text": "Alanine aminotransferase [Enzymatic activity/volume] in Serum or Plasma"
        },
        "valueQuantity": {
          "system": "http://unitsofmeasure.org",
          "value": 59.4,
          "unit": "U/L",
          "code": "U/L"
        },
        "referenceRange": [
          {
            "low": {
              "value": 7,
              "code": "U/L",
              "system": "http://unitsofmeasure.org"
            }
          },
          {
            "high": {
              "value": 52,
              "code": "U/L",
              "system": "http://unitsofmeasure.org"
            }
          }
        ],
        "interpretation": [
          {
            "coding": [
              {
                "code": "H",
                "system": "http://terminology.hl7.org/CodeSystem/v3-ObservationInterpretation",
                "display": "High"
              }
            ]
          }
        ],
        "text": {
          "status": "generated",
          "div": "<div xmlns=\"http://www.w3.org/1999/xhtml\"><table class=\"hl7__eu__lab__report\"><tr><th>Test</th><th>12-Jun-2018</th><th>Reference&#xA0;Range</th><th>Unit</th></tr><tr><td>Alanine aminotransferase [Enzymatic activity/volume] in Serum or Plasma</td><td>59.4</td><td>7 - 52</td><td>H</td><td>U/L</td></tr></table></div>"
        },
        "status": "final",
        "subject": {
          "reference": "urn:uuid:e559952b-ebbb-4875-86ed-0539a0cc7f31",
          "display": "Gioele Fabbri"
        },
        "effectiveDateTime": "2018-06-12T15:46:20Z",
        "specimen": {
          "reference": "urn:uuid:b65ce2c4-ee4d-455c-8609-6fe96a42a486"
        }
      }
    },
    {
      "fullUrl": "urn:uuid:cfde3226-9965-4dba-a88d-5e9734f0f8fe",
      "resource": {
        "resourceType": "Observation",
        "id": "cfde3226-9965-4dba-a88d-5e9734f0f8fe",
        "meta": {
          "profile": [
            "http://hl7.eu/fhir/laboratory/StructureDefinition/Observation-resultslab-eu-lab"
          ]
        },
        "performer": [
          {
            "display": "The Central European Lab"
          }
        ],
        "category": [
          {
            "coding": [
              {
                "system": "http://terminology.hl7.org/CodeSystem/observation-category",
                "code": "laboratory"
              }
            ]
          }
        ],
        "code": {
          "coding": [
            {
              "code": "1920-8",
              "system": "http://loinc.org",
              "display": "Aspartate aminotransferase [Enzymatic activity/volume] in Serum or Plasma"
            }
          ],
          "text": "Aspartate aminotransferase [Enzymatic activity/volume] in Serum or Plasma"
        },
        "valueQuantity": {
          "system": "http://unitsofmeasure.org",
          "value": 29.6,
          "unit": "U/L",
          "code": "U/L"
        },
        "referenceRange": [
          {
            "low": {
              "value": 10,
              "code": "U/L",
              "system": "http://unitsofmeasure.org"
            }
          },
          {
            "high": {
              "value": 40,
              "code": "U/L",
              "system": "http://unitsofmeasure.org"
            }
          }
        ],
        "text": {
          "status": "generated",
          "div": "<div xmlns=\"http://www.w3.org/1999/xhtml\"><table class=\"hl7__eu__lab__report\"><tr><th>Test</th><th>12-Jun-2018</th><th>Reference&#xA0;Range</th><th>Unit</th></tr><tr><td>Aspartate aminotransferase [Enzymatic activity/volume] in Serum or Plasma</td><td>29.6</td><td>10 - 40</td><td></td><td>U/L</td></tr></table></div>"
        },
        "status": "final",
        "subject": {
          "reference": "urn:uuid:e559952b-ebbb-4875-86ed-0539a0cc7f31",
          "display": "Gioele Fabbri"
        },
        "effectiveDateTime": "2018-06-12T15:46:20Z",
        "specimen": {
          "reference": "urn:uuid:b65ce2c4-ee4d-455c-8609-6fe96a42a486"
        }
      }
    },
    {
      "fullUrl": "urn:uuid:5c4f5781-00d5-4c31-aaec-275098ab041c",
      "resource": {
        "resourceType": "Observation",
        "id": "5c4f5781-00d5-4c31-aaec-275098ab041c",
        "meta": {
          "profile": [
            "http://hl7.eu/fhir/laboratory/StructureDefinition/Observation-resultslab-eu-lab"
          ]
        },
        "performer": [
          {
            "display": "The Central European Lab"
          }
        ],
        "category": [
          {
            "coding": [
              {
                "system": "http://terminology.hl7.org/CodeSystem/observation-category",
                "code": "laboratory"
              }
            ]
          }
        ],
        "code": {
          "coding": [
            {
              "code": "2093-3",
              "system": "http://loinc.org",
              "display": "Cholesterol [Mass/volume] in Serum or Plasma"
            }
          ],
          "text": "Cholesterol [Mass/volume] in Serum or Plasma"
        },
        "valueQuantity": {
          "system": "http://unitsofmeasure.org",
          "value": 165.3,
          "unit": "mg/dL",
          "code": "mg/dL"
        },
        "referenceRange": [
          {
            "low": {
              "value": 125,
              "code": "mg/dL",
              "system": "http://unitsofmeasure.org"
            }
          },
          {
            "high": {
              "value": 200,
              "code": "mg/dL",
              "system": "http://unitsofmeasure.org"
            }
          }
        ],
        "text": {
          "status": "generated",
          "div": "<div xmlns=\"http://www.w3.org/1999/xhtml\"><table class=\"hl7__eu__lab__report\"><tr><th>Test</th><th>12-Jun-2018</th><th>Reference&#xA0;Range</th><th>Unit</th></tr><tr><td>Cholesterol [Mass/volume] in Serum or Plasma</td><td>165.3</td><td>125 - 200</td><td></td><td>mg/dL</td></tr></table></div>"
        },
        "status": "final",
        "subject": {
          "reference": "urn:uuid:e559952b-ebbb-4875-86ed-0539a0cc7f31",
          "display": "Gioele Fabbri"
        },
        "effectiveDateTime": "2018-06-12T15:46:20Z",
        "specimen": {
          "reference": "urn:uuid:b65ce2c4-ee4d-455c-8609-6fe96a42a486"
        }
      }
    },
    {
      "fullUrl": "urn:uuid:1f03ecfd-8a62-43f0-b7c7-c39941be905f",
      "resource": {
        "resourceType": "Observation",
        "id": "1f03ecfd-8a62-43f0-b7c7-c39941be905f",
        "meta": {
          "profile": [
            "http://hl7.eu/fhir/laboratory/StructureDefinition/Observation-resultslab-eu-lab"
          ]
        },
        "performer": [
          {
            "display": "The Central European Lab"
          }
        ],
        "category": [
          {
            "coding": [
              {
                "system": "http://terminology.hl7.org/CodeSystem/observation-category",
                "code": "laboratory"
              }
            ]
          }
        ],
        "code": {
          "coding": [
            {
              "code": "2571-8",
              "system": "http://loinc.org",
              "display": "Triglyceride [Mass/volume] in Serum or Plasma"
            }
          ],
          "text": "Triglyceride [Mass/volume] in Serum or Plasma"
        },
        "valueQuantity": {
          "system": "http://unitsofmeasure.org",
          "value": 168.6,
          "unit": "mg/dL",
          "code": "mg/dL"
        },
        "referenceRange": [
          {
            "low": {
              "value": 0,
              "code": "mg/dL",
              "system": "http://unitsofmeasure.org"
            }
          },
          {
            "high": {
              "value": 150,
              "code": "mg/dL",
              "system": "http://unitsofmeasure.org"
            }
          }
        ],
        "interpretation": [
          {
            "coding": [
              {
                "code": "H",
                "system": "http://terminology.hl7.org/CodeSystem/v3-ObservationInterpretation",
                "display": "High"
              }
            ]
          }
        ],
        "text": {
          "status": "generated",
          "div": "<div xmlns=\"http://www.w3.org/1999/xhtml\"><table class=\"hl7__eu__lab__report\"><tr><th>Test</th><th>12-Jun-2018</th><th>Reference&#xA0;Range</th><th>Unit</th></tr><tr><td>Triglyceride [Mass/volume] in Serum or Plasma</td><td>168.6</td><td>0 - 150</td><td>H</td><td>mg/dL</td></tr></table></div>"
        },
        "status": "final",
        "subject": {
          "reference": "urn:uuid:e559952b-ebbb-4875-86ed-0539a0cc7f31",
          "display": "Gioele Fabbri"
        },
        "effectiveDateTime": "2018-06-12T15:46:20Z",
        "specimen": {
          "reference": "urn:uuid:b65ce2c4-ee4d-455c-8609-6fe96a42a486"
        }
      }
    },
    {
      "fullUrl": "urn:uuid:13cfc155-27cd-4663-b5d4-98a585902a88",
      "resource": {
        "resourceType": "Observation",
        "id": "13cfc155-27cd-4663-b5d4-98a585902a88",
        "meta": {
          "profile": [
            "http://hl7.eu/fhir/laboratory/StructureDefinition/Observation-resultslab-eu-lab"
          ]
        },
        "performer": [
          {
            "display": "The Central European Lab"
          }
        ],
        "category": [
          {
            "coding": [
              {
                "system": "http://terminology.hl7.org/CodeSystem/observation-category",
                "code": "laboratory"
              }
            ]
          }
        ],
        "code": {
          "coding": [
            {
              "code": "18262-6",
              "system": "http://loinc.org",
              "display": "Cholesterol in LDL [Mass/volume] in Serum or Plasma by Direct assay"
            }
          ],
          "text": "Cholesterol in LDL [Mass/volume] in Serum or Plasma by Direct assay"
        },
        "valueQuantity": {
          "system": "http://unitsofmeasure.org",
          "value": 127.3,
          "unit": "mg/dL",
          "code": "mg/dL"
        },
        "referenceRange": [
          {
            "low": {
              "value": 0,
              "code": "mg/dL",
              "system": "http://unitsofmeasure.org"
            }
          },
          {
            "high": {
              "value": 130,
              "code": "mg/dL",
              "system": "http://unitsofmeasure.org"
            }
          }
        ],
        "text": {
          "status": "generated",
          "div": "<div xmlns=\"http://www.w3.org/1999/xhtml\"><table class=\"hl7__eu__lab__report\"><tr><th>Test</th><th>12-Jun-2018</th><th>Reference&#xA0;Range</th><th>Unit</th></tr><tr><td>Cholesterol in LDL [Mass/volume] in Serum or Plasma by Direct assay</td><td>127.3</td><td>0 - 130</td><td></td><td>mg/dL</td></tr></table></div>"
        },
        "status": "final",
        "subject": {
          "reference": "urn:uuid:e559952b-ebbb-4875-86ed-0539a0cc7f31",
          "display": "Gioele Fabbri"
        },
        "effectiveDateTime": "2018-06-12T15:46:20Z",
        "specimen": {
          "reference": "urn:uuid:b65ce2c4-ee4d-455c-8609-6fe96a42a486"
        }
      }
    },
    {
      "fullUrl": "urn:uuid:08c84ffa-87a8-48e0-a432-e589e305b6d3",
      "resource": {
        "resourceType": "Observation",
        "id": "08c84ffa-87a8-48e0-a432-e589e305b6d3",
        "meta": {
          "profile": [
            "http://hl7.eu/fhir/laboratory/StructureDefinition/Observation-resultslab-eu-lab"
          ]
        },
        "performer": [
          {
            "display": "The Central European Lab"
          }
        ],
        "category": [
          {
            "coding": [
              {
                "system": "http://terminology.hl7.org/CodeSystem/observation-category",
                "code": "laboratory"
              }
            ]
          }
        ],
        "code": {
          "coding": [
            {
              "code": "2085-9",
              "system": "http://loinc.org",
              "display": "Cholesterol in HDL [Mass/volume] in Serum or Plasma"
            }
          ],
          "text": "Cholesterol in HDL [Mass/volume] in Serum or Plasma"
        },
        "valueQuantity": {
          "system": "http://unitsofmeasure.org",
          "value": 66.6,
          "unit": "mg/dL",
          "code": "mg/dL"
        },
        "referenceRange": [
          {
            "low": {
              "value": 40,
              "code": "mg/dL",
              "system": "http://unitsofmeasure.org"
            }
          },
          {
            "high": {
              "value": 100,
              "code": "mg/dL",
              "system": "http://unitsofmeasure.org"
            }
          }
        ],
        "text": {
          "status": "generated",
          "div": "<div xmlns=\"http://www.w3.org/1999/xhtml\"><table class=\"hl7__eu__lab__report\"><tr><th>Test</th><th>12-Jun-2018</th><th>Reference&#xA0;Range</th><th>Unit</th></tr><tr><td>Cholesterol in HDL [Mass/volume] in Serum or Plasma</td><td>66.6</td><td>40 - 100</td><td></td><td>mg/dL</td></tr></table></div>"
        },
        "status": "final",
        "subject": {
          "reference": "urn:uuid:e559952b-ebbb-4875-86ed-0539a0cc7f31",
          "display": "Gioele Fabbri"
        },
        "effectiveDateTime": "2018-06-12T15:46:20Z",
        "specimen": {
          "reference": "urn:uuid:b65ce2c4-ee4d-455c-8609-6fe96a42a486"
        }
      }
    },
    {
      "fullUrl": "urn:uuid:941ecbeb-8548-48a8-9446-5611de46a0fa",
      "resource": {
        "resourceType": "Device",
        "id": "941ecbeb-8548-48a8-9446-5611de46a0fa",
        "deviceName": [
          {
            "name": "SYNDERAI Synthetic Generator",
            "type": "manufacturer-name"
          }
        ],
        "version": [
          {
            "value": "5.0"
          }
        ],
        "text": {
          "status": "generated",
          "div": "<div xmlns=\"http://www.w3.org/1999/xhtml\">SYNDERAI Synthetic Generator v5.0</div>"
        },
        "status": "active\"",
        "distinctIdentifier": "synderai-generator-50",
        "manufacturer": "SYNDERAI Project"
      }
    },
    {
      "fullUrl": "urn:uuid:549e618c-b314-4be5-8f9d-27e780bde6f2",
      "resource": {
        "resourceType": "Provenance",
        "id": "549e618c-b314-4be5-8f9d-27e780bde6f2",
        "target": [
          {
            "reference": "Patient/e559952b-ebbb-4875-86ed-0539a0cc7f31"
          },
          {
            "reference": "Bundle/c12d4f94-07a0-4965-9d7d-bf607f9cbed8"
          },
          {
            "reference": "Composition/43abbf44-3d8d-4ca3-b2e7-7c3ea8c3af0a"
          },
          {
            "reference": "PractitionerRole/ea07335c-a20d-4362-8574-f733f7da2d4c"
          },
          {
            "reference": "Practitioner/a6681bb8-ae43-401d-bfbc-ff169104fc83"
          },
          {
            "reference": "PractitionerRole/0d85165e-7f0c-44ce-9237-71a5e4e6fd2e"
          },
          {
            "reference": "Organization/89931e03-d5d6-490c-8e01-4d2c2f8be764"
          }
        ],
        "activity": {
          "text": "Synthetic Example Data Generation"
        },
        "policy": [
          "https://synderai.net/synderai-synthetic-data-policy"
        ],
        "agent": [
          {
            "type": {
              "text": "author"
            },
            "who": {
              "reference": "Device/941ecbeb-8548-48a8-9446-5611de46a0fa"
            }
          }
        ],
        "reason": [
          {
            "text": "Interoperability Testing and Training (non-clinical use)"
          }
        ],
        "text": {
          "status": "generated",
          "div": "<div xmlns=\"http://www.w3.org/1999/xhtml\">Provenance for SYNDERAI Synthetic Example Data Resource</div>"
        },
        "recorded": "2018-06-12T17:46:20Z"
      }
    },
    {
      "fullUrl": "urn:uuid:ea07335c-a20d-4362-8574-f733f7da2d4c",
      "resource": {
        "resourceType": "PractitionerRole",
        "id": "ea07335c-a20d-4362-8574-f733f7da2d4c",
        "meta": {
          "profile": [
            "http://hl7.eu/fhir/base/StructureDefinition/practitionerRole-eu"
          ]
        },
        "text": {
          "status": "generated",
          "div": "<div xmlns=\"http://www.w3.org/1999/xhtml\">Laboratory Role Id: ea07335c-a20d-4362-8574-f733f7da2d4c</div>"
        },
        "practitioner": {
          "reference": "urn:uuid:a6681bb8-ae43-401d-bfbc-ff169104fc83"
        }
      }
    },
    {
      "fullUrl": "urn:uuid:a6681bb8-ae43-401d-bfbc-ff169104fc83",
      "resource": {
        "resourceType": "Practitioner",
        "id": "a6681bb8-ae43-401d-bfbc-ff169104fc83",
        "meta": {
          "profile": [
            "http://hl7.eu/fhir/base/StructureDefinition/practitioner-eu"
          ]
        },
        "identifier": [
          {
            "assigner": {
              "display": "HL7 Europe"
            },
            "system": "urn:oid:2.16.840.1.113883.2.51.999",
            "value": "8b6bde7a-b118-4ae9-a43d-668e7c30c02e"
          }
        ],
        "name": [
          {
            "prefix": [
              "dr"
            ],
            "given": [
              "Ex"
            ],
            "family": "Ample"
          }
        ],
        "address": [
          {
            "line": [
              "Laboratoire Central Europenne",
              "Boulevard du Jardin Botanique 32"
            ],
            "postalCode": "1000",
            "city": "Brussels",
            "country": "Belgium"
          }
        ],
        "text": {
          "status": "generated",
          "div": "<div xmlns=\"http://www.w3.org/1999/xhtml\">Laboratory: Laboratoire Central Europenne, 1000 Brussels, Belgium</div>"
        }
      }
    }
  ],
  "type": "document",
  "timestamp": "2018-06-12T17:46:20Z"
}
