{
  "resourceType": "Bundle",
  "id": "f8979abe-a78c-47b9-9861-b108488c4587",
  "meta": {
    "profile": [
      "http://hl7.eu/fhir/laboratory/StructureDefinition/Bundle-eu-lab"
    ]
  },
  "identifier": {
    "assigner": {
      "display": "HL7 Europe"
    },
    "system": "urn:oid:2.16.840.1.113883.2.51.999",
    "value": "3691eafc-f659-46ad-846d-07a616283278"
  },
  "entry": [
    {
      "fullUrl": "urn:uuid:2b3a92ec-cc29-45e8-b2ae-bb432c61c80d",
      "resource": {
        "resourceType": "Composition",
        "id": "2b3a92ec-cc29-45e8-b2ae-bb432c61c80d",
        "meta": {
          "profile": [
            "http://hl7.eu/fhir/laboratory/StructureDefinition/Composition-eu-lab"
          ]
        },
        "identifier": {
          "assigner": {
            "display": "HL7 Europe"
          },
          "system": "urn:oid:2.16.840.1.113883.2.51.999",
          "value": "8a13732d-5835-4122-9c76-6bb6a9e0e9d9"
        },
        "author": [
          {
            "reference": "urn:uuid:f1a8df25-fbae-4ace-ac07-386bee84563e"
          }
        ],
        "category": [
          {
            "coding": [
              {
                "code": "26436-6",
                "system": "http://loinc.org",
                "display": "Laboratory studies (set)"
              }
            ]
          }
        ],
        "type": {
          "coding": [
            {
              "code": "11502-2",
              "system": "http://loinc.org",
              "display": "Laboratory report"
            }
          ],
          "text": "Laboratory Report"
        },
        "section": [
          {
            "code": {
              "coding": [
                {
                  "code": "26436-6",
                  "system": "http://loinc.org",
                  "display": "Laboratory studies (set)"
                }
              ],
              "text": "Laboratory studies"
            },
            "section": [
              {
                "code": {
                  "coding": [
                    {
                      "code": "$18725-2",
                      "system": "http://loinc.org",
                      "display": "Microbiology studies"
                    }
                  ],
                  "text": "Microbiology"
                },
                "entry": [
                  {
                    "reference": "urn:uuid:94b43f99-773b-4d25-9b07-0877ee546bd1"
                  },
                  {
                    "reference": "urn:uuid:7a70e076-6a15-4b74-b7d3-8fc9374b33db"
                  }
                ],
                "text": {
                  "status": "generated",
                  "div": "<div xmlns=\"http://www.w3.org/1999/xhtml\"><h3>Microbiology</h3><table class=\"hl7__eu__lab__report\"><thead><tr><th>Test</th><th>17-JUL-2020</th><th>Reference&#xA0;Range</th><th>Unit</th></tr></thead><tbody><tr><td>Influenza virus A Ag [Presence] in Upper respiratory specimen by Rapid immunoassay</td><td>Not detected</td><td></td><td></td></tr><tr><td>Influenza virus B Ag [Presence] in Upper respiratory specimen by Rapid immunoassay</td><td>Not detected</td><td></td><td></td></tr></tbody></table></div>"
                },
                "title": "Microbiology"
              }
            ],
            "title": "Laboratory Report"
          },
          {
            "text": {
              "status": "generated",
              "div": "<div xmlns=\"http://www.w3.org/1999/xhtml\"><h3>Annotation</h3><table class=\"hl7__eu__lab__report\"><tr><th>Conclusion and Recommendations based on this report and previous findings known to us</th></tr><tr><td>Both Influenza A and B antigens were not detected in the upper respiratory specimen, indicating no evidence of acute influenza A or B infection at the time of testing. No laboratory abnormalities are present in these results.</td></tr></table></div>"
            },
            "code": {
              "coding": [
                {
                  "system": "http://loinc.org",
                  "code": "48767-8",
                  "display": "Annotation comment"
                }
              ]
            },
            "title": "Annotation comment"
          }
        ],
        "status": "final",
        "subject": {
          "reference": "urn:uuid:4e1bcce6-0927-4195-99b4-6c1651fdaee0",
          "display": "Hynek Kubíčková"
        },
        "date": "2020-07-17T14:15:57Z",
        "title": "Laboratory Report",
        "confidentiality": "N"
      }
    },
    {
      "fullUrl": "urn:uuid:6c579af5-8b9b-4487-8e3d-dad93605fe69",
      "resource": {
        "resourceType": "DiagnosticReport",
        "id": "6c579af5-8b9b-4487-8e3d-dad93605fe69",
        "meta": {
          "profile": [
            "http://hl7.eu/fhir/laboratory/StructureDefinition/DiagnosticReport-eu-lab"
          ]
        },
        "identifier": [
          {
            "assigner": {
              "display": "HL7 Europe"
            },
            "system": "urn:oid:2.16.840.1.113883.2.51.999",
            "value": "4ac8e7f2-3f4e-46cc-9593-5386f73fd05b"
          }
        ],
        "extension": [
          {
            "url": "http://hl7.org/fhir/5.0/StructureDefinition/extension-DiagnosticReport.composition",
            "valueReference": {
              "reference": "urn:uuid:8a13732d-5835-4122-9c76-6bb6a9e0e9d9"
            }
          }
        ],
        "category": [
          {
            "coding": [
              {
                "code": "26436-6",
                "system": "http://loinc.org",
                "display": "Laboratory studies (set)"
              }
            ]
          }
        ],
        "specimen": [
          {
            "reference": "urn:uuid:24edbdde-1de8-4496-9a5d-24daa9d3c9cc"
          }
        ],
        "result": [
          {
            "reference": "urn:uuid:94b43f99-773b-4d25-9b07-0877ee546bd1"
          },
          {
            "reference": "urn:uuid:7a70e076-6a15-4b74-b7d3-8fc9374b33db"
          }
        ],
        "status": "registered",
        "code": {
          "coding": [
            {
              "code": "11502-2",
              "system": "http://loinc.org",
              "display": "Laboratory report"
            }
          ]
        },
        "subject": {
          "reference": "urn:uuid:4e1bcce6-0927-4195-99b4-6c1651fdaee0",
          "display": "Hynek Kubíčková"
        }
      }
    },
    {
      "fullUrl": "urn:uuid:4e1bcce6-0927-4195-99b4-6c1651fdaee0",
      "resource": {
        "resourceType": "Patient",
        "id": "4e1bcce6-0927-4195-99b4-6c1651fdaee0",
        "meta": {
          "security": [
            {
              "system": "http://terminology.hl7.org/CodeSystem/v3-ActReason",
              "code": "HTEST"
            },
            {
              "system": "http://terminology.hl7.org/CodeSystem/v3-ActReason",
              "code": "TRAIN"
            }
          ],
          "tag": [
            {
              "system": "https://synderai.net/fhir/CodeSystem/tags",
              "code": "synthetic",
              "display": "SYNDERAI Synthetic data"
            }
          ],
          "profile": [
            "http://hl7.eu/fhir/base/StructureDefinition/patient-eu-core"
          ]
        },
        "identifier": [
          {
            "type": {
              "coding": [
                {
                  "code": "PT",
                  "system": "http://terminology.hl7.org/CodeSystem/v2-0203"
                }
              ]
            },
            "system": "http://ec.europa.eu/identifier/eci",
            "value": "9771-756399-9"
          },
          {
            "type": {
              "coding": [
                {
                  "code": "MR",
                  "system": "http://terminology.hl7.org/CodeSystem/v2-0203"
                }
              ]
            },
            "system": "http://local.setting.eu/identifier",
            "value": "0a9c3ea6-b526-4dcc-cde1-545cdfca14b2"
          }
        ],
        "name": [
          {
            "family": "Kubíčková"
          },
          {
            "given": [
              "Hynek"
            ]
          },
          {
            "text": "Hynek Kubíčková"
          }
        ],
        "address": [
          {
            "line": [
              "Vraňanská 9"
            ],
            "use": "home",
            "type": "physical",
            "postalCode": "739 11",
            "city": "Frýdlant nad Ostravicí",
            "country": "Czechia"
          }
        ],
        "telecom": [
          {
            "system": "phone",
            "value": "+420 605 458 784"
          }
        ],
        "extension": [
          {
            "url": "http://hl7.org/fhir/StructureDefinition/patient-nationality",
            "valueCodeableConcept": {
              "coding": [
                {
                  "code": "CZ",
                  "system": "http://hl7.org/fhir/ValueSet/country"
                }
              ]
            }
          }
        ],
        "text": {
          "status": "generated",
          "div": "<div xmlns=\"http://www.w3.org/1999/xhtml\"><table class=\"hl7__ips\"><tr><td>Hynek Kubíčková</td><td>male</td><td>24-Jun-2005</td></tr></table></div>"
        },
        "gender": "male",
        "birthDate": "2005-06-24"
      }
    },
    {
      "fullUrl": "urn:uuid:dcbf3370-9acf-46ee-b7c3-260e09740d47",
      "resource": {
        "resourceType": "ServiceRequest",
        "id": "dcbf3370-9acf-46ee-b7c3-260e09740d47",
        "meta": {
          "profile": [
            "http://hl7.eu/fhir/laboratory/StructureDefinition/ServiceRequest-eu-lab"
          ]
        },
        "identifier": [
          {
            "system": "http://example.org",
            "value": "f712f884-ac77-4f24-a06b-e7536d864a65"
          }
        ],
        "specimen": [
          {
            "reference": "urn:uuid:24edbdde-1de8-4496-9a5d-24daa9d3c9cc"
          }
        ],
        "status": "active",
        "intent": "order",
        "code": {
          "coding": [
            {
              "code": "108252007",
              "system": "http://snomed.info/sct",
              "display": "Laboratory procedure"
            }
          ]
        },
        "subject": {
          "reference": "urn:uuid:4e1bcce6-0927-4195-99b4-6c1651fdaee0",
          "display": "Hynek Kubíčková"
        },
        "requester": {
          "reference": "urn:uuid:38cbff76-2a5b-42e2-ac98-b5be515a6881"
        }
      }
    },
    {
      "fullUrl": "urn:uuid:38cbff76-2a5b-42e2-ac98-b5be515a6881",
      "resource": {
        "resourceType": "PractitionerRole",
        "id": "38cbff76-2a5b-42e2-ac98-b5be515a6881",
        "meta": {
          "profile": [
            "http://hl7.eu/fhir/base/StructureDefinition/practitionerRole-eu"
          ]
        },
        "text": {
          "status": "generated",
          "div": "<div xmlns=\"http://www.w3.org/1999/xhtml\">Provider Role Id: 38cbff76-2a5b-42e2-ac98-b5be515a6881</div>"
        },
        "organization": {
          "reference": "urn:uuid:082e86df-36a6-4705-9cc7-44248333094a"
        }
      }
    },
    {
      "fullUrl": "urn:uuid:082e86df-36a6-4705-9cc7-44248333094a",
      "resource": {
        "resourceType": "Organization",
        "id": "082e86df-36a6-4705-9cc7-44248333094a",
        "meta": {
          "profile": [
            "http://hl7.eu/fhir/base/StructureDefinition/organization-eu"
          ]
        },
        "identifier": [
          {
            "assigner": {
              "display": "HL7 Europe"
            },
            "system": "urn:oid:2.16.840.1.113883.2.51.999",
            "value": "50541c3c-c976-46e3-bce0-0955027bdf0f"
          }
        ],
        "address": [
          {
            "city": "Čeladná",
            "postalCode": "739 12",
            "country": "Czechia"
          }
        ],
        "text": {
          "status": "generated",
          "div": "<div xmlns=\"http://www.w3.org/1999/xhtml\">Provider Organization: Beskydské rehabilitační centrum</div>"
        },
        "name": "Beskydské rehabilitační centrum"
      }
    },
    {
      "fullUrl": "urn:uuid:24edbdde-1de8-4496-9a5d-24daa9d3c9cc",
      "resource": {
        "resourceType": "Specimen",
        "id": "24edbdde-1de8-4496-9a5d-24daa9d3c9cc",
        "meta": {
          "profile": [
            "http://hl7.eu/fhir/laboratory/StructureDefinition/Specimen-eu-lab"
          ]
        },
        "collection": {
          "collectedDateTime": "2020-07-17"
        },
        "text": {
          "status": "generated",
          "div": "<div xmlns=\"http://www.w3.org/1999/xhtml\"><table class=\"hl7__eu__lab__report\"><tr><th>Specimen</th><th>Collection Date</th></tr><tr><td>Upper respiratory specimen (specimen)</td><td><span class=\"nb\">17-Jul-2020</span></td></tr></table></div>"
        },
        "type": {
          "coding": [
            {
              "code": "258604001",
              "system": "http://snomed.info/sct",
              "display": "Upper respiratory specimen (specimen)"
            }
          ]
        }
      }
    },
    {
      "fullUrl": "urn:uuid:94b43f99-773b-4d25-9b07-0877ee546bd1",
      "resource": {
        "resourceType": "Observation",
        "id": "94b43f99-773b-4d25-9b07-0877ee546bd1",
        "meta": {
          "profile": [
            "http://hl7.eu/fhir/laboratory/StructureDefinition/Observation-resultslab-eu-lab"
          ]
        },
        "performer": [
          {
            "display": "The Central European Lab"
          }
        ],
        "category": [
          {
            "coding": [
              {
                "system": "http://terminology.hl7.org/CodeSystem/observation-category",
                "code": "laboratory"
              }
            ]
          }
        ],
        "code": {
          "coding": [
            {
              "code": "80382-5",
              "system": "http://loinc.org",
              "display": "Influenza virus A Ag [Presence] in Upper respiratory specimen by Rapid immunoassay"
            }
          ],
          "text": "Influenza virus A Ag [Presence] in Upper respiratory specimen by Rapid immunoassay"
        },
        "text": {
          "status": "generated",
          "div": "<div xmlns=\"http://www.w3.org/1999/xhtml\"><table class=\"hl7__eu__lab__report\"><tr><th>Test</th><th>17-Jul-2020</th><th>Reference&#xA0;Range</th><th>Unit</th></tr><tr><td>Influenza virus A Ag [Presence] in Upper respiratory specimen by Rapid immunoassay</td></tr></table></div>"
        },
        "status": "final",
        "subject": {
          "reference": "urn:uuid:4e1bcce6-0927-4195-99b4-6c1651fdaee0",
          "display": "Hynek Kubíčková"
        },
        "effectiveDateTime": "2020-07-17T12:15:57Z",
        "specimen": {
          "reference": "urn:uuid:24edbdde-1de8-4496-9a5d-24daa9d3c9cc"
        }
      }
    },
    {
      "fullUrl": "urn:uuid:7a70e076-6a15-4b74-b7d3-8fc9374b33db",
      "resource": {
        "resourceType": "Observation",
        "id": "7a70e076-6a15-4b74-b7d3-8fc9374b33db",
        "meta": {
          "profile": [
            "http://hl7.eu/fhir/laboratory/StructureDefinition/Observation-resultslab-eu-lab"
          ]
        },
        "performer": [
          {
            "display": "The Central European Lab"
          }
        ],
        "category": [
          {
            "coding": [
              {
                "system": "http://terminology.hl7.org/CodeSystem/observation-category",
                "code": "laboratory"
              }
            ]
          }
        ],
        "code": {
          "coding": [
            {
              "code": "80383-3",
              "system": "http://loinc.org",
              "display": "Influenza virus B Ag [Presence] in Upper respiratory specimen by Rapid immunoassay"
            }
          ],
          "text": "Influenza virus B Ag [Presence] in Upper respiratory specimen by Rapid immunoassay"
        },
        "text": {
          "status": "generated",
          "div": "<div xmlns=\"http://www.w3.org/1999/xhtml\"><table class=\"hl7__eu__lab__report\"><tr><th>Test</th><th>17-Jul-2020</th><th>Reference&#xA0;Range</th><th>Unit</th></tr><tr><td>Influenza virus B Ag [Presence] in Upper respiratory specimen by Rapid immunoassay</td></tr></table></div>"
        },
        "status": "final",
        "subject": {
          "reference": "urn:uuid:4e1bcce6-0927-4195-99b4-6c1651fdaee0",
          "display": "Hynek Kubíčková"
        },
        "effectiveDateTime": "2020-07-17T12:15:57Z",
        "specimen": {
          "reference": "urn:uuid:24edbdde-1de8-4496-9a5d-24daa9d3c9cc"
        }
      }
    },
    {
      "fullUrl": "urn:uuid:b77588d9-83a3-48c7-b9b6-62fcacf733cd",
      "resource": {
        "resourceType": "Device",
        "id": "b77588d9-83a3-48c7-b9b6-62fcacf733cd",
        "deviceName": [
          {
            "name": "SYNDERAI Synthetic Generator",
            "type": "manufacturer-name"
          }
        ],
        "version": [
          {
            "value": "5.0"
          }
        ],
        "text": {
          "status": "generated",
          "div": "<div xmlns=\"http://www.w3.org/1999/xhtml\">SYNDERAI Synthetic Generator v5.0</div>"
        },
        "status": "active\"",
        "distinctIdentifier": "synderai-generator-50",
        "manufacturer": "SYNDERAI Project"
      }
    },
    {
      "fullUrl": "urn:uuid:6cb05b29-97d7-474f-80aa-20252a742bfb",
      "resource": {
        "resourceType": "Provenance",
        "id": "6cb05b29-97d7-474f-80aa-20252a742bfb",
        "target": [
          {
            "reference": "Patient/4e1bcce6-0927-4195-99b4-6c1651fdaee0"
          },
          {
            "reference": "Bundle/f8979abe-a78c-47b9-9861-b108488c4587"
          },
          {
            "reference": "Composition/2b3a92ec-cc29-45e8-b2ae-bb432c61c80d"
          },
          {
            "reference": "PractitionerRole/f1a8df25-fbae-4ace-ac07-386bee84563e"
          },
          {
            "reference": "Practitioner/857a4ff1-f5d1-4789-a927-d9b782123015"
          },
          {
            "reference": "PractitionerRole/38cbff76-2a5b-42e2-ac98-b5be515a6881"
          },
          {
            "reference": "Organization/082e86df-36a6-4705-9cc7-44248333094a"
          }
        ],
        "activity": {
          "text": "Synthetic Example Data Generation"
        },
        "policy": [
          "https://synderai.net/synderai-synthetic-data-policy"
        ],
        "agent": [
          {
            "type": {
              "text": "author"
            },
            "who": {
              "reference": "Device/b77588d9-83a3-48c7-b9b6-62fcacf733cd"
            }
          }
        ],
        "reason": [
          {
            "text": "Interoperability Testing and Training (non-clinical use)"
          }
        ],
        "text": {
          "status": "generated",
          "div": "<div xmlns=\"http://www.w3.org/1999/xhtml\">Provenance for SYNDERAI Synthetic Example Data Resource</div>"
        },
        "recorded": "2020-07-17T14:15:57Z"
      }
    },
    {
      "fullUrl": "urn:uuid:f1a8df25-fbae-4ace-ac07-386bee84563e",
      "resource": {
        "resourceType": "PractitionerRole",
        "id": "f1a8df25-fbae-4ace-ac07-386bee84563e",
        "meta": {
          "profile": [
            "http://hl7.eu/fhir/base/StructureDefinition/practitionerRole-eu"
          ]
        },
        "text": {
          "status": "generated",
          "div": "<div xmlns=\"http://www.w3.org/1999/xhtml\">Laboratory Role Id: f1a8df25-fbae-4ace-ac07-386bee84563e</div>"
        },
        "practitioner": {
          "reference": "urn:uuid:857a4ff1-f5d1-4789-a927-d9b782123015"
        }
      }
    },
    {
      "fullUrl": "urn:uuid:857a4ff1-f5d1-4789-a927-d9b782123015",
      "resource": {
        "resourceType": "Practitioner",
        "id": "857a4ff1-f5d1-4789-a927-d9b782123015",
        "meta": {
          "profile": [
            "http://hl7.eu/fhir/base/StructureDefinition/practitioner-eu"
          ]
        },
        "identifier": [
          {
            "assigner": {
              "display": "HL7 Europe"
            },
            "system": "urn:oid:2.16.840.1.113883.2.51.999",
            "value": "83143813-9883-4eec-a82f-f724b7f3a22e"
          }
        ],
        "name": [
          {
            "prefix": [
              "dr"
            ],
            "given": [
              "Ex"
            ],
            "family": "Ample"
          }
        ],
        "address": [
          {
            "line": [
              "Laboratoire Central Européenne",
              "Boulevard du Jardin Botanique 32"
            ],
            "postalCode": "1000",
            "city": "Brussels",
            "country": "Belgium"
          }
        ],
        "text": {
          "status": "generated",
          "div": "<div xmlns=\"http://www.w3.org/1999/xhtml\">Laboratory: Laboratoire Central Européenne, 1000 Brussels, Belgium</div>"
        }
      }
    }
  ],
  "type": "document",
  "timestamp": "2020-07-17T14:15:57Z"
}
