{
  "resourceType": "Bundle",
  "id": "8117d45e-16da-4b21-b207-a6c464820b5c",
  "meta": {
    "profile": [
      "http://hl7.eu/fhir/laboratory/StructureDefinition/Bundle-eu-lab"
    ]
  },
  "identifier": {
    "assigner": {
      "display": "HL7 Europe"
    },
    "system": "urn:oid:2.16.840.1.113883.2.51.999",
    "value": "6fff7299-c8eb-4059-a220-6234bb296cac"
  },
  "entry": [
    {
      "fullUrl": "urn:uuid:8dc8268c-51c4-4b6e-9571-d718ed5ce422",
      "resource": {
        "resourceType": "Composition",
        "id": "8dc8268c-51c4-4b6e-9571-d718ed5ce422",
        "meta": {
          "profile": [
            "http://hl7.eu/fhir/laboratory/StructureDefinition/Composition-eu-lab"
          ]
        },
        "identifier": {
          "assigner": {
            "display": "HL7 Europe"
          },
          "system": "urn:oid:2.16.840.1.113883.2.51.999",
          "value": "f4c53ebd-1453-4896-9617-77c774be98f3"
        },
        "author": [
          {
            "reference": "urn:uuid:7c7c4023-db10-42a8-9622-cf3c459a3b92"
          }
        ],
        "category": [
          {
            "coding": [
              {
                "code": "26436-6",
                "system": "http://loinc.org",
                "display": "Laboratory studies (set)"
              }
            ]
          }
        ],
        "type": {
          "coding": [
            {
              "code": "11502-2",
              "system": "http://loinc.org",
              "display": "Laboratory report"
            }
          ],
          "text": "Laboratory Report"
        },
        "section": [
          {
            "code": {
              "coding": [
                {
                  "code": "26436-6",
                  "system": "http://loinc.org",
                  "display": "Laboratory studies (set)"
                }
              ],
              "text": "Laboratory studies"
            },
            "section": [
              {
                "code": {
                  "coding": [
                    {
                      "code": "$18719-5",
                      "system": "http://loinc.org",
                      "display": "Chemistry studies (set)"
                    }
                  ],
                  "text": "Chemistry"
                },
                "entry": [
                  {
                    "reference": "urn:uuid:c3193527-439e-4748-b6be-0ff3bf8f3e6b"
                  },
                  {
                    "reference": "urn:uuid:bfbb713c-9fc4-4b12-87ff-d4bf8eee3b3b"
                  },
                  {
                    "reference": "urn:uuid:8ba40fa4-99a9-434b-baf4-6da760d4a6f8"
                  },
                  {
                    "reference": "urn:uuid:2fdad757-de58-426f-9bec-0773f31df7fc"
                  },
                  {
                    "reference": "urn:uuid:123109f4-aa6a-484c-9520-6a9b5b663149"
                  },
                  {
                    "reference": "urn:uuid:50b01845-49fa-4b73-a4d2-46198beb412a"
                  },
                  {
                    "reference": "urn:uuid:76362d37-b78b-452c-88ac-3d18539f8be0"
                  },
                  {
                    "reference": "urn:uuid:5aab3008-dd3c-4a91-b15d-fb1aea584a3a"
                  },
                  {
                    "reference": "urn:uuid:a7ba42d2-46fc-43ff-b838-9cc68a5506c0"
                  },
                  {
                    "reference": "urn:uuid:176bc31b-93f4-4f65-a80f-8e4a7334e15d"
                  }
                ],
                "text": {
                  "status": "generated",
                  "div": "<div xmlns=\"http://www.w3.org/1999/xhtml\"><h3>Chemistry</h3><table class=\"hl7__eu__lab__report\"><thead><tr><th>Test</th><th>21-DEC-2018</th><th>Reference&#xA0;Range</th><th>Unit</th></tr></thead><tbody><tr><td>Glucose [Mass/volume] in Serum or Plasma</td><td>93.8</td><td>70 - 140</td><td>mg/dL</td></tr><tr><td>Urea nitrogen [Mass/volume] in Serum or Plasma</td><td>15.5</td><td>7 - 20</td><td>mg/dL</td></tr><tr><td>Creatinine [Mass/volume] in Serum or Plasma</td><td><strong>2.0 H</strong></td><td>0.9 - 1.3</td><td>mg/dL</td></tr><tr><td>Calcium [Mass/volume] in Serum or Plasma</td><td>8.8</td><td>8.5 - 10.5</td><td>mg/dL</td></tr><tr><td>Sodium [Moles/volume] in Serum or Plasma</td><td>141.2</td><td>135 - 145</td><td>mmol/L</td></tr><tr><td>Potassium [Moles/volume] in Serum or Plasma</td><td>4.0</td><td>3.5 - 5.3</td><td>mmol/L</td></tr><tr><td>Chloride [Moles/volume] in Serum or Plasma</td><td><strong>107.1 H</strong></td><td>98 - 107</td><td>mmol/L</td></tr><tr><td>Carbon dioxide, total [Moles/volume] in Serum or Plasma</td><td>28.5</td><td>22 - 33</td><td>mmol/L</td></tr><tr><td>Ketones [Presence] in Urine by Test strip</td><td>Urine ketone test = ++</td><td></td><td></td></tr><tr><td>Hemoglobin A1c/Hemoglobin.total in Blood</td><td><strong>3.1 L</strong></td><td>4.3 - 6</td><td>%</td></tr></tbody></table></div>"
                },
                "title": "Chemistry"
              },
              {
                "code": {
                  "coding": [
                    {
                      "code": "$18729-4",
                      "system": "http://loinc.org",
                      "display": "Urinalysis studies (set)"
                    }
                  ],
                  "text": "Urinalysis"
                },
                "entry": [
                  {
                    "reference": "urn:uuid:e167b547-181c-46fb-8bc5-cd1f9f5c93fb"
                  },
                  {
                    "reference": "urn:uuid:3a6259cf-13db-41d9-b464-304a88a05c18"
                  },
                  {
                    "reference": "urn:uuid:73d64bae-34da-4a32-91c3-7cd46b975222"
                  },
                  {
                    "reference": "urn:uuid:fcd438ef-37b8-4621-8c4b-387634addbc8"
                  },
                  {
                    "reference": "urn:uuid:29d103ab-e2f6-4025-a58e-1a45651dfbe9"
                  },
                  {
                    "reference": "urn:uuid:f98ebed6-a630-43f3-857f-d8aec1097fc5"
                  },
                  {
                    "reference": "urn:uuid:b1b0c988-69de-4cee-9aa5-fd03ab710f59"
                  },
                  {
                    "reference": "urn:uuid:b8a2c563-ce94-4113-8e4b-e6fb86696b23"
                  },
                  {
                    "reference": "urn:uuid:77901620-d148-40d8-b5fc-523ecee8dadb"
                  },
                  {
                    "reference": "urn:uuid:da620fe5-50b3-47a7-95c7-edec67a96478"
                  },
                  {
                    "reference": "urn:uuid:f587e9a3-4996-4cd4-8e78-7f5c27170a8e"
                  },
                  {
                    "reference": "urn:uuid:2ba280f1-cf14-4a27-b88e-1e7a2f1e6167"
                  }
                ],
                "text": {
                  "status": "generated",
                  "div": "<div xmlns=\"http://www.w3.org/1999/xhtml\"><h3>Urinalysis</h3><table class=\"hl7__eu__lab__report\"><thead><tr><th>Test</th><th>21-DEC-2018</th><th>Reference&#xA0;Range</th><th>Unit</th></tr></thead><tbody><tr><td>Glucose [Mass/volume] in Urine by Test strip</td><td><strong>2.3 H</strong></td><td>0 - 0.8</td><td>mg/dL</td></tr><tr><td>Glucose [Presence] in Urine by Test strip</td><td>++</td><td></td><td></td></tr><tr><td>Bilirubin.total [Mass/volume] in Urine by Test strip</td><td>0.8</td><td>0 - 1.9</td><td>mg/dL</td></tr><tr><td>Bilirubin.total [Presence] in Urine by Test strip</td><td>Finding of bilirubin in urine</td><td></td><td></td></tr><tr><td>Ketones [Mass/volume] in Urine by Test strip</td><td><strong>9.9 H</strong></td><td>0 - 3</td><td>mg/dL</td></tr><tr><td>Specific gravity of Urine by Test strip</td><td><strong>1.0 L</strong></td><td>1.01 - 1.03</td><td>{nominal}</td></tr><tr><td>pH of Urine by Test strip</td><td>6.5</td><td>4.5 - 7.5</td><td>pH</td></tr><tr><td>Protein [Mass/volume] in Urine by Test strip</td><td><strong>350.5 H</strong></td><td>0 - 149</td><td>mg/dL</td></tr><tr><td>Protein [Presence] in Urine by Test strip</td><td>Urine protein test = ++</td><td></td><td></td></tr><tr><td>Nitrite [Presence] in Urine by Test strip</td><td>Urine nitrite negative</td><td></td><td></td></tr><tr><td>Hemoglobin [Presence] in Urine by Test strip</td><td>Urine blood test = negative</td><td></td><td></td></tr><tr><td>Leukocyte esterase [Presence] in Urine by Test strip</td><td>Urine leukocyte test negative</td><td></td><td></td></tr></tbody></table></div>"
                },
                "title": "Urinalysis"
              },
              {
                "code": {
                  "coding": [
                    {
                      "code": "$LP7846-1",
                      "system": "http://loinc.org",
                      "display": "Specimen information"
                    }
                  ],
                  "text": "Specimen information"
                },
                "entry": [
                  {
                    "reference": "urn:uuid:1b75a4f7-c159-4bd2-a2cf-ea7b8ebd7a54"
                  },
                  {
                    "reference": "urn:uuid:6596865a-244a-4f06-8982-84c90af68391"
                  },
                  {
                    "reference": "urn:uuid:eb757c82-3213-4fa9-b240-da6ab97dbd0a"
                  },
                  {
                    "reference": "urn:uuid:c01dc42a-e251-4b08-ae2c-46a52005ff38"
                  }
                ],
                "text": {
                  "status": "generated",
                  "div": "<div xmlns=\"http://www.w3.org/1999/xhtml\"><h3>Specimen information</h3><table class=\"hl7__eu__lab__report\"><thead><tr><th>Test</th><th>21-DEC-2018</th><th>Specimen</th><th></th></tr></thead><tbody><tr><td>Appearance of Urine</td><td>Cloudy urine</td><td>Urine</td><td></td></tr><tr><td>Odor of Urine</td><td>Urine smell ammoniacal</td><td>Urine</td><td></td></tr><tr><td>Clarity of Urine</td><td>Translucent</td><td>Urine</td><td></td></tr><tr><td>Color of Urine</td><td>Brown color</td><td>Urine</td><td></td></tr></tbody></table></div>"
                },
                "title": "Specimen information"
              }
            ],
            "title": "Laboratory Report"
          },
          {
            "text": {
              "status": "generated",
              "div": "<div xmlns=\"http://www.w3.org/1999/xhtml\"><h3>Annotation</h3><table class=\"hl7__eu__lab__report\"><tr><th>Conclusion and Recommendations based on this report and previous findings known to us</th></tr><tr><td>The patient shows elevated serum creatinine, proteinuria, glucosuria, and ketonuria, suggesting impaired renal function and possible tubular dysfunction. Low urine specific gravity further supports renal concentrating defects. Despite normal serum glucose, low HbA1c and presence of glucose and ketones in urine may indicate recent metabolic derangement or acute illness. Urine is cloudy and brown, but no evidence of infection (negative nitrite/leukocytes). Recommend further evaluation for acute or chronic kidney disease and possible metabolic disturbances.</td></tr></table></div>"
            },
            "code": {
              "coding": [
                {
                  "system": "http://loinc.org",
                  "code": "48767-8",
                  "display": "Annotation comment"
                }
              ]
            },
            "title": "Annotation comment"
          }
        ],
        "status": "final",
        "subject": {
          "reference": "urn:uuid:33fefa18-fc3f-4963-ba50-a64134c10b9d",
          "display": "Victor Lagarde"
        },
        "date": "2018-12-21T05:48:18Z",
        "title": "Laboratory Report",
        "confidentiality": "N"
      }
    },
    {
      "fullUrl": "urn:uuid:1a53c1db-ff25-48fb-83aa-14724432d9e9",
      "resource": {
        "resourceType": "DiagnosticReport",
        "id": "1a53c1db-ff25-48fb-83aa-14724432d9e9",
        "meta": {
          "profile": [
            "http://hl7.eu/fhir/laboratory/StructureDefinition/DiagnosticReport-eu-lab"
          ]
        },
        "identifier": [
          {
            "assigner": {
              "display": "HL7 Europe"
            },
            "system": "urn:oid:2.16.840.1.113883.2.51.999",
            "value": "ee9ad05e-bcfe-4a87-b675-67500b50893d"
          }
        ],
        "extension": [
          {
            "url": "http://hl7.org/fhir/5.0/StructureDefinition/extension-DiagnosticReport.composition",
            "valueReference": {
              "reference": "urn:uuid:f4c53ebd-1453-4896-9617-77c774be98f3"
            }
          }
        ],
        "category": [
          {
            "coding": [
              {
                "code": "26436-6",
                "system": "http://loinc.org",
                "display": "Laboratory studies (set)"
              }
            ]
          }
        ],
        "specimen": [
          {
            "reference": "urn:uuid:11931491-4fa4-46d0-8ea1-a18fbcb9739f"
          },
          {
            "reference": "urn:uuid:b9c0613b-0d35-4805-bed1-ef5ef4621d62"
          },
          {
            "reference": "urn:uuid:a77f48ea-df93-49a9-867a-b52d691290c5"
          }
        ],
        "result": [
          {
            "reference": "urn:uuid:c3193527-439e-4748-b6be-0ff3bf8f3e6b"
          },
          {
            "reference": "urn:uuid:bfbb713c-9fc4-4b12-87ff-d4bf8eee3b3b"
          },
          {
            "reference": "urn:uuid:8ba40fa4-99a9-434b-baf4-6da760d4a6f8"
          },
          {
            "reference": "urn:uuid:2fdad757-de58-426f-9bec-0773f31df7fc"
          },
          {
            "reference": "urn:uuid:123109f4-aa6a-484c-9520-6a9b5b663149"
          },
          {
            "reference": "urn:uuid:50b01845-49fa-4b73-a4d2-46198beb412a"
          },
          {
            "reference": "urn:uuid:76362d37-b78b-452c-88ac-3d18539f8be0"
          },
          {
            "reference": "urn:uuid:5aab3008-dd3c-4a91-b15d-fb1aea584a3a"
          },
          {
            "reference": "urn:uuid:1b75a4f7-c159-4bd2-a2cf-ea7b8ebd7a54"
          },
          {
            "reference": "urn:uuid:6596865a-244a-4f06-8982-84c90af68391"
          },
          {
            "reference": "urn:uuid:eb757c82-3213-4fa9-b240-da6ab97dbd0a"
          },
          {
            "reference": "urn:uuid:c01dc42a-e251-4b08-ae2c-46a52005ff38"
          },
          {
            "reference": "urn:uuid:e167b547-181c-46fb-8bc5-cd1f9f5c93fb"
          },
          {
            "reference": "urn:uuid:3a6259cf-13db-41d9-b464-304a88a05c18"
          },
          {
            "reference": "urn:uuid:73d64bae-34da-4a32-91c3-7cd46b975222"
          },
          {
            "reference": "urn:uuid:fcd438ef-37b8-4621-8c4b-387634addbc8"
          },
          {
            "reference": "urn:uuid:29d103ab-e2f6-4025-a58e-1a45651dfbe9"
          },
          {
            "reference": "urn:uuid:a7ba42d2-46fc-43ff-b838-9cc68a5506c0"
          },
          {
            "reference": "urn:uuid:f98ebed6-a630-43f3-857f-d8aec1097fc5"
          },
          {
            "reference": "urn:uuid:b1b0c988-69de-4cee-9aa5-fd03ab710f59"
          },
          {
            "reference": "urn:uuid:b8a2c563-ce94-4113-8e4b-e6fb86696b23"
          },
          {
            "reference": "urn:uuid:77901620-d148-40d8-b5fc-523ecee8dadb"
          },
          {
            "reference": "urn:uuid:da620fe5-50b3-47a7-95c7-edec67a96478"
          },
          {
            "reference": "urn:uuid:f587e9a3-4996-4cd4-8e78-7f5c27170a8e"
          },
          {
            "reference": "urn:uuid:2ba280f1-cf14-4a27-b88e-1e7a2f1e6167"
          },
          {
            "reference": "urn:uuid:176bc31b-93f4-4f65-a80f-8e4a7334e15d"
          }
        ],
        "status": "registered",
        "code": {
          "coding": [
            {
              "code": "11502-2",
              "system": "http://loinc.org",
              "display": "Laboratory report"
            }
          ]
        },
        "subject": {
          "reference": "urn:uuid:33fefa18-fc3f-4963-ba50-a64134c10b9d",
          "display": "Victor Lagarde"
        }
      }
    },
    {
      "fullUrl": "urn:uuid:33fefa18-fc3f-4963-ba50-a64134c10b9d",
      "resource": {
        "resourceType": "Patient",
        "id": "33fefa18-fc3f-4963-ba50-a64134c10b9d",
        "meta": {
          "security": [
            {
              "system": "http://terminology.hl7.org/CodeSystem/v3-ActReason",
              "code": "HTEST"
            },
            {
              "system": "http://terminology.hl7.org/CodeSystem/v3-ActReason",
              "code": "TRAIN"
            }
          ],
          "tag": [
            {
              "system": "https://synderai.net/fhir/CodeSystem/tags",
              "code": "synthetic",
              "display": "SYNDERAI Synthetic data"
            }
          ],
          "profile": [
            "http://hl7.eu/fhir/base/StructureDefinition/patient-eu-core"
          ]
        },
        "identifier": [
          {
            "type": {
              "coding": [
                {
                  "code": "PT",
                  "system": "http://terminology.hl7.org/CodeSystem/v2-0203"
                }
              ]
            },
            "system": "http://ec.europa.eu/identifier/eci",
            "value": "9925-001801-9"
          },
          {
            "type": {
              "coding": [
                {
                  "code": "MR",
                  "system": "http://terminology.hl7.org/CodeSystem/v2-0203"
                }
              ]
            },
            "system": "http://local.setting.eu/identifier",
            "value": "22c2dfd0-ac57-8833-2532-848f180896a4"
          }
        ],
        "name": [
          {
            "family": "Lagarde"
          },
          {
            "given": [
              "Victor"
            ]
          },
          {
            "text": "Victor Lagarde"
          }
        ],
        "address": [
          {
            "line": [
              "avenue Robert"
            ],
            "use": "home",
            "type": "physical",
            "postalCode": "80300",
            "city": "Albert",
            "country": "France"
          }
        ],
        "telecom": [
          {
            "system": "phone",
            "value": "0177941801"
          }
        ],
        "extension": [
          {
            "url": "http://hl7.org/fhir/StructureDefinition/patient-nationality",
            "valueCodeableConcept": {
              "coding": [
                {
                  "code": "FR",
                  "system": "http://hl7.org/fhir/ValueSet/country"
                }
              ]
            }
          }
        ],
        "text": {
          "status": "generated",
          "div": "<div xmlns=\"http://www.w3.org/1999/xhtml\"><table class=\"hl7__ips\"><tr><td>Victor Lagarde</td><td>male</td><td>31-Aug-1939</td></tr></table></div>"
        },
        "gender": "male",
        "birthDate": "1939-08-31"
      }
    },
    {
      "fullUrl": "urn:uuid:1eb50449-5abf-498c-9acf-b4f5dd2a8fcd",
      "resource": {
        "resourceType": "ServiceRequest",
        "id": "1eb50449-5abf-498c-9acf-b4f5dd2a8fcd",
        "meta": {
          "profile": [
            "http://hl7.eu/fhir/laboratory/StructureDefinition/ServiceRequest-eu-lab"
          ]
        },
        "identifier": [
          {
            "system": "http://example.org",
            "value": "578b489e-488d-4f10-97c8-27ec3644de88"
          }
        ],
        "specimen": [
          {
            "reference": "urn:uuid:11931491-4fa4-46d0-8ea1-a18fbcb9739f"
          },
          {
            "reference": "urn:uuid:b9c0613b-0d35-4805-bed1-ef5ef4621d62"
          },
          {
            "reference": "urn:uuid:a77f48ea-df93-49a9-867a-b52d691290c5"
          }
        ],
        "reasonCode": [
          {
            "coding": [
              {
                "code": "433144002",
                "system": "http://snomed.info/sct",
                "display": "Chronic kidney disease stage 3"
              }
            ]
          },
          {
            "coding": [
              {
                "code": "157141000119108",
                "system": "http://snomed.info/sct",
                "display": "Proteinuria due to type 2 diabetes mellitus"
              }
            ]
          },
          {
            "coding": [
              {
                "code": "431856006",
                "system": "http://snomed.info/sct",
                "display": "Chronic kidney disease stage 2"
              }
            ]
          },
          {
            "coding": [
              {
                "code": "90781000119102",
                "system": "http://snomed.info/sct",
                "display": "Microalbuminuria due to type 2 diabetes mellitus"
              }
            ]
          },
          {
            "coding": [
              {
                "code": "127013003",
                "system": "http://snomed.info/sct",
                "display": "Disorder of kidney due to diabetes mellitus"
              }
            ]
          },
          {
            "coding": [
              {
                "code": "431855005",
                "system": "http://snomed.info/sct",
                "display": "Chronic kidney disease stage 1"
              }
            ]
          },
          {
            "coding": [
              {
                "code": "55822004",
                "system": "http://snomed.info/sct",
                "display": "Hyperlipidemia"
              }
            ]
          },
          {
            "coding": [
              {
                "code": "59621000",
                "system": "http://snomed.info/sct",
                "display": "Essential hypertension"
              }
            ]
          },
          {
            "coding": [
              {
                "code": "237602007",
                "system": "http://snomed.info/sct",
                "display": "Metabolic syndrome X"
              }
            ]
          },
          {
            "coding": [
              {
                "code": "414545008",
                "system": "http://snomed.info/sct",
                "display": "Ischemic heart disease"
              }
            ]
          },
          {
            "coding": [
              {
                "code": "40055000",
                "system": "http://snomed.info/sct",
                "display": "Chronic sinusitis"
              }
            ]
          },
          {
            "coding": [
              {
                "code": "15777000",
                "system": "http://snomed.info/sct",
                "display": "Prediabetes"
              }
            ]
          },
          {
            "coding": [
              {
                "code": "271737000",
                "system": "http://snomed.info/sct",
                "display": "Anemia"
              }
            ]
          }
        ],
        "status": "active",
        "intent": "order",
        "code": {
          "coding": [
            {
              "code": "108252007",
              "system": "http://snomed.info/sct",
              "display": "Laboratory procedure"
            }
          ]
        },
        "subject": {
          "reference": "urn:uuid:33fefa18-fc3f-4963-ba50-a64134c10b9d",
          "display": "Victor Lagarde"
        },
        "requester": {
          "reference": "urn:uuid:a9c31000-85c2-4059-954c-85859086ffef"
        }
      }
    },
    {
      "fullUrl": "urn:uuid:a9c31000-85c2-4059-954c-85859086ffef",
      "resource": {
        "resourceType": "PractitionerRole",
        "id": "a9c31000-85c2-4059-954c-85859086ffef",
        "meta": {
          "profile": [
            "http://hl7.eu/fhir/base/StructureDefinition/practitionerRole-eu"
          ]
        },
        "text": {
          "status": "generated",
          "div": "<div xmlns=\"http://www.w3.org/1999/xhtml\">Provider Role Id: a9c31000-85c2-4059-954c-85859086ffef</div>"
        },
        "organization": {
          "reference": "urn:uuid:8731a8de-e2ec-49dc-9a2c-e2dc75084e85"
        }
      }
    },
    {
      "fullUrl": "urn:uuid:8731a8de-e2ec-49dc-9a2c-e2dc75084e85",
      "resource": {
        "resourceType": "Organization",
        "id": "8731a8de-e2ec-49dc-9a2c-e2dc75084e85",
        "meta": {
          "profile": [
            "http://hl7.eu/fhir/base/StructureDefinition/organization-eu"
          ]
        },
        "identifier": [
          {
            "assigner": {
              "display": "HL7 Europe"
            },
            "system": "urn:oid:2.16.840.1.113883.2.51.999",
            "value": "19109418-5975-4c32-a0f9-e67031ac3ba0"
          }
        ],
        "address": [
          {
            "city": "Auxerre",
            "postalCode": "89000",
            "country": "France"
          }
        ],
        "text": {
          "status": "generated",
          "div": "<div xmlns=\"http://www.w3.org/1999/xhtml\">Provider Organization: Thiriot Didier (Cardiologie)</div>"
        },
        "name": "Thiriot Didier (Cardiologie)"
      }
    },
    {
      "fullUrl": "urn:uuid:11931491-4fa4-46d0-8ea1-a18fbcb9739f",
      "resource": {
        "resourceType": "Specimen",
        "id": "11931491-4fa4-46d0-8ea1-a18fbcb9739f",
        "meta": {
          "profile": [
            "http://hl7.eu/fhir/laboratory/StructureDefinition/Specimen-eu-lab"
          ]
        },
        "collection": {
          "collectedDateTime": "2018-12-21"
        },
        "text": {
          "status": "generated",
          "div": "<div xmlns=\"http://www.w3.org/1999/xhtml\"><table class=\"hl7__eu__lab__report\"><tr><th>Specimen</th><th>Collection Date</th></tr><tr><td>Acellular blood (serum or plasma) specimen</td><td><span class=\"nb\">21-Dec-2018</span></td></tr></table></div>"
        },
        "type": {
          "coding": [
            {
              "code": "122592007",
              "system": "http://snomed.info/sct",
              "display": "Acellular blood (serum or plasma) specimen"
            }
          ]
        }
      }
    },
    {
      "fullUrl": "urn:uuid:b9c0613b-0d35-4805-bed1-ef5ef4621d62",
      "resource": {
        "resourceType": "Specimen",
        "id": "b9c0613b-0d35-4805-bed1-ef5ef4621d62",
        "meta": {
          "profile": [
            "http://hl7.eu/fhir/laboratory/StructureDefinition/Specimen-eu-lab"
          ]
        },
        "collection": {
          "collectedDateTime": "2018-12-21"
        },
        "text": {
          "status": "generated",
          "div": "<div xmlns=\"http://www.w3.org/1999/xhtml\"><table class=\"hl7__eu__lab__report\"><tr><th>Specimen</th><th>Collection Date</th></tr><tr><td>Urine specimen</td><td><span class=\"nb\">21-Dec-2018</span></td></tr></table></div>"
        },
        "type": {
          "coding": [
            {
              "code": "122575003",
              "system": "http://snomed.info/sct",
              "display": "Urine specimen"
            }
          ]
        }
      }
    },
    {
      "fullUrl": "urn:uuid:a77f48ea-df93-49a9-867a-b52d691290c5",
      "resource": {
        "resourceType": "Specimen",
        "id": "a77f48ea-df93-49a9-867a-b52d691290c5",
        "meta": {
          "profile": [
            "http://hl7.eu/fhir/laboratory/StructureDefinition/Specimen-eu-lab"
          ]
        },
        "collection": {
          "collectedDateTime": "2018-12-21"
        },
        "text": {
          "status": "generated",
          "div": "<div xmlns=\"http://www.w3.org/1999/xhtml\"><table class=\"hl7__eu__lab__report\"><tr><th>Specimen</th><th>Collection Date</th></tr><tr><td>Whole blood specimen (specimen)</td><td><span class=\"nb\">21-Dec-2018</span></td></tr></table></div>"
        },
        "type": {
          "coding": [
            {
              "code": "258580003",
              "system": "http://snomed.info/sct",
              "display": "Whole blood specimen (specimen)"
            }
          ]
        }
      }
    },
    {
      "fullUrl": "urn:uuid:c3193527-439e-4748-b6be-0ff3bf8f3e6b",
      "resource": {
        "resourceType": "Observation",
        "id": "c3193527-439e-4748-b6be-0ff3bf8f3e6b",
        "meta": {
          "profile": [
            "http://hl7.eu/fhir/laboratory/StructureDefinition/Observation-resultslab-eu-lab"
          ]
        },
        "performer": [
          {
            "display": "The Central European Lab"
          }
        ],
        "category": [
          {
            "coding": [
              {
                "system": "http://terminology.hl7.org/CodeSystem/observation-category",
                "code": "laboratory"
              }
            ]
          }
        ],
        "code": {
          "coding": [
            {
              "code": "2345-7",
              "system": "http://loinc.org",
              "display": "Glucose [Mass/volume] in Serum or Plasma"
            }
          ],
          "text": "Glucose [Mass/volume] in Serum or Plasma"
        },
        "valueQuantity": {
          "system": "http://unitsofmeasure.org",
          "value": 93.8,
          "unit": "mg/dL",
          "code": "mg/dL"
        },
        "referenceRange": [
          {
            "low": {
              "value": 70,
              "code": "mg/dL",
              "system": "http://unitsofmeasure.org"
            }
          },
          {
            "high": {
              "value": 140,
              "code": "mg/dL",
              "system": "http://unitsofmeasure.org"
            }
          }
        ],
        "text": {
          "status": "generated",
          "div": "<div xmlns=\"http://www.w3.org/1999/xhtml\"><table class=\"hl7__eu__lab__report\"><tr><th>Test</th><th>21-Dec-2018</th><th>Reference&#xA0;Range</th><th>Unit</th></tr><tr><td>Glucose [Mass/volume] in Serum or Plasma</td><td>93.8</td><td>70 - 140</td><td></td><td>mg/dL</td></tr></table></div>"
        },
        "status": "final",
        "subject": {
          "reference": "urn:uuid:33fefa18-fc3f-4963-ba50-a64134c10b9d",
          "display": "Victor Lagarde"
        },
        "effectiveDateTime": "2018-12-21T04:48:18Z",
        "specimen": {
          "reference": "urn:uuid:11931491-4fa4-46d0-8ea1-a18fbcb9739f"
        }
      }
    },
    {
      "fullUrl": "urn:uuid:bfbb713c-9fc4-4b12-87ff-d4bf8eee3b3b",
      "resource": {
        "resourceType": "Observation",
        "id": "bfbb713c-9fc4-4b12-87ff-d4bf8eee3b3b",
        "meta": {
          "profile": [
            "http://hl7.eu/fhir/laboratory/StructureDefinition/Observation-resultslab-eu-lab"
          ]
        },
        "performer": [
          {
            "display": "The Central European Lab"
          }
        ],
        "category": [
          {
            "coding": [
              {
                "system": "http://terminology.hl7.org/CodeSystem/observation-category",
                "code": "laboratory"
              }
            ]
          }
        ],
        "code": {
          "coding": [
            {
              "code": "3094-0",
              "system": "http://loinc.org",
              "display": "Urea nitrogen [Mass/volume] in Serum or Plasma"
            }
          ],
          "text": "Urea nitrogen [Mass/volume] in Serum or Plasma"
        },
        "valueQuantity": {
          "system": "http://unitsofmeasure.org",
          "value": 15.5,
          "unit": "mg/dL",
          "code": "mg/dL"
        },
        "referenceRange": [
          {
            "low": {
              "value": 7,
              "code": "mg/dL",
              "system": "http://unitsofmeasure.org"
            }
          },
          {
            "high": {
              "value": 20,
              "code": "mg/dL",
              "system": "http://unitsofmeasure.org"
            }
          }
        ],
        "text": {
          "status": "generated",
          "div": "<div xmlns=\"http://www.w3.org/1999/xhtml\"><table class=\"hl7__eu__lab__report\"><tr><th>Test</th><th>21-Dec-2018</th><th>Reference&#xA0;Range</th><th>Unit</th></tr><tr><td>Urea nitrogen [Mass/volume] in Serum or Plasma</td><td>15.5</td><td>7 - 20</td><td></td><td>mg/dL</td></tr></table></div>"
        },
        "status": "final",
        "subject": {
          "reference": "urn:uuid:33fefa18-fc3f-4963-ba50-a64134c10b9d",
          "display": "Victor Lagarde"
        },
        "effectiveDateTime": "2018-12-21T04:48:18Z",
        "specimen": {
          "reference": "urn:uuid:11931491-4fa4-46d0-8ea1-a18fbcb9739f"
        }
      }
    },
    {
      "fullUrl": "urn:uuid:8ba40fa4-99a9-434b-baf4-6da760d4a6f8",
      "resource": {
        "resourceType": "Observation",
        "id": "8ba40fa4-99a9-434b-baf4-6da760d4a6f8",
        "meta": {
          "profile": [
            "http://hl7.eu/fhir/laboratory/StructureDefinition/Observation-resultslab-eu-lab"
          ]
        },
        "performer": [
          {
            "display": "The Central European Lab"
          }
        ],
        "category": [
          {
            "coding": [
              {
                "system": "http://terminology.hl7.org/CodeSystem/observation-category",
                "code": "laboratory"
              }
            ]
          }
        ],
        "code": {
          "coding": [
            {
              "code": "2160-0",
              "system": "http://loinc.org",
              "display": "Creatinine [Mass/volume] in Serum or Plasma"
            }
          ],
          "text": "Creatinine [Mass/volume] in Serum or Plasma"
        },
        "valueQuantity": {
          "system": "http://unitsofmeasure.org",
          "value": 2,
          "unit": "mg/dL",
          "code": "mg/dL"
        },
        "referenceRange": [
          {
            "low": {
              "value": 0.9,
              "code": "mg/dL",
              "system": "http://unitsofmeasure.org"
            }
          },
          {
            "high": {
              "value": 1.3,
              "code": "mg/dL",
              "system": "http://unitsofmeasure.org"
            }
          }
        ],
        "interpretation": [
          {
            "coding": [
              {
                "code": "H",
                "system": "http://terminology.hl7.org/CodeSystem/v3-ObservationInterpretation",
                "display": "High"
              }
            ]
          }
        ],
        "text": {
          "status": "generated",
          "div": "<div xmlns=\"http://www.w3.org/1999/xhtml\"><table class=\"hl7__eu__lab__report\"><tr><th>Test</th><th>21-Dec-2018</th><th>Reference&#xA0;Range</th><th>Unit</th></tr><tr><td>Creatinine [Mass/volume] in Serum or Plasma</td><td>2.0</td><td>0.9 - 1.3</td><td>H</td><td>mg/dL</td></tr></table></div>"
        },
        "status": "final",
        "subject": {
          "reference": "urn:uuid:33fefa18-fc3f-4963-ba50-a64134c10b9d",
          "display": "Victor Lagarde"
        },
        "effectiveDateTime": "2018-12-21T04:48:18Z",
        "specimen": {
          "reference": "urn:uuid:11931491-4fa4-46d0-8ea1-a18fbcb9739f"
        }
      }
    },
    {
      "fullUrl": "urn:uuid:2fdad757-de58-426f-9bec-0773f31df7fc",
      "resource": {
        "resourceType": "Observation",
        "id": "2fdad757-de58-426f-9bec-0773f31df7fc",
        "meta": {
          "profile": [
            "http://hl7.eu/fhir/laboratory/StructureDefinition/Observation-resultslab-eu-lab"
          ]
        },
        "performer": [
          {
            "display": "The Central European Lab"
          }
        ],
        "category": [
          {
            "coding": [
              {
                "system": "http://terminology.hl7.org/CodeSystem/observation-category",
                "code": "laboratory"
              }
            ]
          }
        ],
        "code": {
          "coding": [
            {
              "code": "17861-6",
              "system": "http://loinc.org",
              "display": "Calcium [Mass/volume] in Serum or Plasma"
            }
          ],
          "text": "Calcium [Mass/volume] in Serum or Plasma"
        },
        "valueQuantity": {
          "system": "http://unitsofmeasure.org",
          "value": 8.8,
          "unit": "mg/dL",
          "code": "mg/dL"
        },
        "referenceRange": [
          {
            "low": {
              "value": 8.5,
              "code": "mg/dL",
              "system": "http://unitsofmeasure.org"
            }
          },
          {
            "high": {
              "value": 10.5,
              "code": "mg/dL",
              "system": "http://unitsofmeasure.org"
            }
          }
        ],
        "text": {
          "status": "generated",
          "div": "<div xmlns=\"http://www.w3.org/1999/xhtml\"><table class=\"hl7__eu__lab__report\"><tr><th>Test</th><th>21-Dec-2018</th><th>Reference&#xA0;Range</th><th>Unit</th></tr><tr><td>Calcium [Mass/volume] in Serum or Plasma</td><td>8.8</td><td>8.5 - 10.5</td><td></td><td>mg/dL</td></tr></table></div>"
        },
        "status": "final",
        "subject": {
          "reference": "urn:uuid:33fefa18-fc3f-4963-ba50-a64134c10b9d",
          "display": "Victor Lagarde"
        },
        "effectiveDateTime": "2018-12-21T04:48:18Z",
        "specimen": {
          "reference": "urn:uuid:11931491-4fa4-46d0-8ea1-a18fbcb9739f"
        }
      }
    },
    {
      "fullUrl": "urn:uuid:123109f4-aa6a-484c-9520-6a9b5b663149",
      "resource": {
        "resourceType": "Observation",
        "id": "123109f4-aa6a-484c-9520-6a9b5b663149",
        "meta": {
          "profile": [
            "http://hl7.eu/fhir/laboratory/StructureDefinition/Observation-resultslab-eu-lab"
          ]
        },
        "performer": [
          {
            "display": "The Central European Lab"
          }
        ],
        "category": [
          {
            "coding": [
              {
                "system": "http://terminology.hl7.org/CodeSystem/observation-category",
                "code": "laboratory"
              }
            ]
          }
        ],
        "code": {
          "coding": [
            {
              "code": "2951-2",
              "system": "http://loinc.org",
              "display": "Sodium [Moles/volume] in Serum or Plasma"
            }
          ],
          "text": "Sodium [Moles/volume] in Serum or Plasma"
        },
        "valueQuantity": {
          "system": "http://unitsofmeasure.org",
          "value": 141.2,
          "unit": "mmol/L",
          "code": "mmol/L"
        },
        "referenceRange": [
          {
            "low": {
              "value": 135,
              "code": "mmol/L",
              "system": "http://unitsofmeasure.org"
            }
          },
          {
            "high": {
              "value": 145,
              "code": "mmol/L",
              "system": "http://unitsofmeasure.org"
            }
          }
        ],
        "text": {
          "status": "generated",
          "div": "<div xmlns=\"http://www.w3.org/1999/xhtml\"><table class=\"hl7__eu__lab__report\"><tr><th>Test</th><th>21-Dec-2018</th><th>Reference&#xA0;Range</th><th>Unit</th></tr><tr><td>Sodium [Moles/volume] in Serum or Plasma</td><td>141.2</td><td>135 - 145</td><td></td><td>mmol/L</td></tr></table></div>"
        },
        "status": "final",
        "subject": {
          "reference": "urn:uuid:33fefa18-fc3f-4963-ba50-a64134c10b9d",
          "display": "Victor Lagarde"
        },
        "effectiveDateTime": "2018-12-21T04:48:18Z",
        "specimen": {
          "reference": "urn:uuid:11931491-4fa4-46d0-8ea1-a18fbcb9739f"
        }
      }
    },
    {
      "fullUrl": "urn:uuid:50b01845-49fa-4b73-a4d2-46198beb412a",
      "resource": {
        "resourceType": "Observation",
        "id": "50b01845-49fa-4b73-a4d2-46198beb412a",
        "meta": {
          "profile": [
            "http://hl7.eu/fhir/laboratory/StructureDefinition/Observation-resultslab-eu-lab"
          ]
        },
        "performer": [
          {
            "display": "The Central European Lab"
          }
        ],
        "category": [
          {
            "coding": [
              {
                "system": "http://terminology.hl7.org/CodeSystem/observation-category",
                "code": "laboratory"
              }
            ]
          }
        ],
        "code": {
          "coding": [
            {
              "code": "2823-3",
              "system": "http://loinc.org",
              "display": "Potassium [Moles/volume] in Serum or Plasma"
            }
          ],
          "text": "Potassium [Moles/volume] in Serum or Plasma"
        },
        "valueQuantity": {
          "system": "http://unitsofmeasure.org",
          "value": 4,
          "unit": "mmol/L",
          "code": "mmol/L"
        },
        "referenceRange": [
          {
            "low": {
              "value": 3.5,
              "code": "mmol/L",
              "system": "http://unitsofmeasure.org"
            }
          },
          {
            "high": {
              "value": 5.3,
              "code": "mmol/L",
              "system": "http://unitsofmeasure.org"
            }
          }
        ],
        "text": {
          "status": "generated",
          "div": "<div xmlns=\"http://www.w3.org/1999/xhtml\"><table class=\"hl7__eu__lab__report\"><tr><th>Test</th><th>21-Dec-2018</th><th>Reference&#xA0;Range</th><th>Unit</th></tr><tr><td>Potassium [Moles/volume] in Serum or Plasma</td><td>4.0</td><td>3.5 - 5.3</td><td></td><td>mmol/L</td></tr></table></div>"
        },
        "status": "final",
        "subject": {
          "reference": "urn:uuid:33fefa18-fc3f-4963-ba50-a64134c10b9d",
          "display": "Victor Lagarde"
        },
        "effectiveDateTime": "2018-12-21T04:48:18Z",
        "specimen": {
          "reference": "urn:uuid:11931491-4fa4-46d0-8ea1-a18fbcb9739f"
        }
      }
    },
    {
      "fullUrl": "urn:uuid:76362d37-b78b-452c-88ac-3d18539f8be0",
      "resource": {
        "resourceType": "Observation",
        "id": "76362d37-b78b-452c-88ac-3d18539f8be0",
        "meta": {
          "profile": [
            "http://hl7.eu/fhir/laboratory/StructureDefinition/Observation-resultslab-eu-lab"
          ]
        },
        "performer": [
          {
            "display": "The Central European Lab"
          }
        ],
        "category": [
          {
            "coding": [
              {
                "system": "http://terminology.hl7.org/CodeSystem/observation-category",
                "code": "laboratory"
              }
            ]
          }
        ],
        "code": {
          "coding": [
            {
              "code": "2075-0",
              "system": "http://loinc.org",
              "display": "Chloride [Moles/volume] in Serum or Plasma"
            }
          ],
          "text": "Chloride [Moles/volume] in Serum or Plasma"
        },
        "valueQuantity": {
          "system": "http://unitsofmeasure.org",
          "value": 107.1,
          "unit": "mmol/L",
          "code": "mmol/L"
        },
        "referenceRange": [
          {
            "low": {
              "value": 98,
              "code": "mmol/L",
              "system": "http://unitsofmeasure.org"
            }
          },
          {
            "high": {
              "value": 107,
              "code": "mmol/L",
              "system": "http://unitsofmeasure.org"
            }
          }
        ],
        "interpretation": [
          {
            "coding": [
              {
                "code": "H",
                "system": "http://terminology.hl7.org/CodeSystem/v3-ObservationInterpretation",
                "display": "High"
              }
            ]
          }
        ],
        "text": {
          "status": "generated",
          "div": "<div xmlns=\"http://www.w3.org/1999/xhtml\"><table class=\"hl7__eu__lab__report\"><tr><th>Test</th><th>21-Dec-2018</th><th>Reference&#xA0;Range</th><th>Unit</th></tr><tr><td>Chloride [Moles/volume] in Serum or Plasma</td><td>107.1</td><td>98 - 107</td><td>H</td><td>mmol/L</td></tr></table></div>"
        },
        "status": "final",
        "subject": {
          "reference": "urn:uuid:33fefa18-fc3f-4963-ba50-a64134c10b9d",
          "display": "Victor Lagarde"
        },
        "effectiveDateTime": "2018-12-21T04:48:18Z",
        "specimen": {
          "reference": "urn:uuid:11931491-4fa4-46d0-8ea1-a18fbcb9739f"
        }
      }
    },
    {
      "fullUrl": "urn:uuid:5aab3008-dd3c-4a91-b15d-fb1aea584a3a",
      "resource": {
        "resourceType": "Observation",
        "id": "5aab3008-dd3c-4a91-b15d-fb1aea584a3a",
        "meta": {
          "profile": [
            "http://hl7.eu/fhir/laboratory/StructureDefinition/Observation-resultslab-eu-lab"
          ]
        },
        "performer": [
          {
            "display": "The Central European Lab"
          }
        ],
        "category": [
          {
            "coding": [
              {
                "system": "http://terminology.hl7.org/CodeSystem/observation-category",
                "code": "laboratory"
              }
            ]
          }
        ],
        "code": {
          "coding": [
            {
              "code": "2028-9",
              "system": "http://loinc.org",
              "display": "Carbon dioxide, total [Moles/volume] in Serum or Plasma"
            }
          ],
          "text": "Carbon dioxide, total [Moles/volume] in Serum or Plasma"
        },
        "valueQuantity": {
          "system": "http://unitsofmeasure.org",
          "value": 28.5,
          "unit": "mmol/L",
          "code": "mmol/L"
        },
        "referenceRange": [
          {
            "low": {
              "value": 22,
              "code": "mmol/L",
              "system": "http://unitsofmeasure.org"
            }
          },
          {
            "high": {
              "value": 33,
              "code": "mmol/L",
              "system": "http://unitsofmeasure.org"
            }
          }
        ],
        "text": {
          "status": "generated",
          "div": "<div xmlns=\"http://www.w3.org/1999/xhtml\"><table class=\"hl7__eu__lab__report\"><tr><th>Test</th><th>21-Dec-2018</th><th>Reference&#xA0;Range</th><th>Unit</th></tr><tr><td>Carbon dioxide, total [Moles/volume] in Serum or Plasma</td><td>28.5</td><td>22 - 33</td><td></td><td>mmol/L</td></tr></table></div>"
        },
        "status": "final",
        "subject": {
          "reference": "urn:uuid:33fefa18-fc3f-4963-ba50-a64134c10b9d",
          "display": "Victor Lagarde"
        },
        "effectiveDateTime": "2018-12-21T04:48:18Z",
        "specimen": {
          "reference": "urn:uuid:11931491-4fa4-46d0-8ea1-a18fbcb9739f"
        }
      }
    },
    {
      "fullUrl": "urn:uuid:1b75a4f7-c159-4bd2-a2cf-ea7b8ebd7a54",
      "resource": {
        "resourceType": "Observation",
        "id": "1b75a4f7-c159-4bd2-a2cf-ea7b8ebd7a54",
        "meta": {
          "profile": [
            "http://hl7.eu/fhir/laboratory/StructureDefinition/Observation-resultslab-eu-lab"
          ]
        },
        "performer": [
          {
            "display": "The Central European Lab"
          }
        ],
        "category": [
          {
            "coding": [
              {
                "system": "http://terminology.hl7.org/CodeSystem/observation-category",
                "code": "laboratory"
              }
            ]
          }
        ],
        "code": {
          "coding": [
            {
              "code": "5767-9",
              "system": "http://loinc.org",
              "display": "Appearance of Urine"
            }
          ],
          "text": "Appearance of Urine"
        },
        "text": {
          "status": "generated",
          "div": "<div xmlns=\"http://www.w3.org/1999/xhtml\"><table class=\"hl7__eu__lab__report\"><tr><th>Test</th><th>21-Dec-2018</th><th>Reference&#xA0;Range</th><th>Unit</th></tr><tr><td>Appearance of Urine</td></tr></table></div>"
        },
        "status": "final",
        "subject": {
          "reference": "urn:uuid:33fefa18-fc3f-4963-ba50-a64134c10b9d",
          "display": "Victor Lagarde"
        },
        "effectiveDateTime": "2018-12-21T04:48:18Z",
        "specimen": {
          "reference": "urn:uuid:b9c0613b-0d35-4805-bed1-ef5ef4621d62"
        }
      }
    },
    {
      "fullUrl": "urn:uuid:6596865a-244a-4f06-8982-84c90af68391",
      "resource": {
        "resourceType": "Observation",
        "id": "6596865a-244a-4f06-8982-84c90af68391",
        "meta": {
          "profile": [
            "http://hl7.eu/fhir/laboratory/StructureDefinition/Observation-resultslab-eu-lab"
          ]
        },
        "performer": [
          {
            "display": "The Central European Lab"
          }
        ],
        "category": [
          {
            "coding": [
              {
                "system": "http://terminology.hl7.org/CodeSystem/observation-category",
                "code": "laboratory"
              }
            ]
          }
        ],
        "code": {
          "coding": [
            {
              "code": "34533-0",
              "system": "http://loinc.org",
              "display": "Odor of Urine"
            }
          ],
          "text": "Odor of Urine"
        },
        "text": {
          "status": "generated",
          "div": "<div xmlns=\"http://www.w3.org/1999/xhtml\"><table class=\"hl7__eu__lab__report\"><tr><th>Test</th><th>21-Dec-2018</th><th>Reference&#xA0;Range</th><th>Unit</th></tr><tr><td>Odor of Urine</td></tr></table></div>"
        },
        "status": "final",
        "subject": {
          "reference": "urn:uuid:33fefa18-fc3f-4963-ba50-a64134c10b9d",
          "display": "Victor Lagarde"
        },
        "effectiveDateTime": "2018-12-21T04:48:18Z",
        "specimen": {
          "reference": "urn:uuid:b9c0613b-0d35-4805-bed1-ef5ef4621d62"
        }
      }
    },
    {
      "fullUrl": "urn:uuid:eb757c82-3213-4fa9-b240-da6ab97dbd0a",
      "resource": {
        "resourceType": "Observation",
        "id": "eb757c82-3213-4fa9-b240-da6ab97dbd0a",
        "meta": {
          "profile": [
            "http://hl7.eu/fhir/laboratory/StructureDefinition/Observation-resultslab-eu-lab"
          ]
        },
        "performer": [
          {
            "display": "The Central European Lab"
          }
        ],
        "category": [
          {
            "coding": [
              {
                "system": "http://terminology.hl7.org/CodeSystem/observation-category",
                "code": "laboratory"
              }
            ]
          }
        ],
        "code": {
          "coding": [
            {
              "code": "32167-9",
              "system": "http://loinc.org",
              "display": "Clarity of Urine"
            }
          ],
          "text": "Clarity of Urine"
        },
        "text": {
          "status": "generated",
          "div": "<div xmlns=\"http://www.w3.org/1999/xhtml\"><table class=\"hl7__eu__lab__report\"><tr><th>Test</th><th>21-Dec-2018</th><th>Reference&#xA0;Range</th><th>Unit</th></tr><tr><td>Clarity of Urine</td></tr></table></div>"
        },
        "status": "final",
        "subject": {
          "reference": "urn:uuid:33fefa18-fc3f-4963-ba50-a64134c10b9d",
          "display": "Victor Lagarde"
        },
        "effectiveDateTime": "2018-12-21T04:48:18Z",
        "specimen": {
          "reference": "urn:uuid:b9c0613b-0d35-4805-bed1-ef5ef4621d62"
        }
      }
    },
    {
      "fullUrl": "urn:uuid:c01dc42a-e251-4b08-ae2c-46a52005ff38",
      "resource": {
        "resourceType": "Observation",
        "id": "c01dc42a-e251-4b08-ae2c-46a52005ff38",
        "meta": {
          "profile": [
            "http://hl7.eu/fhir/laboratory/StructureDefinition/Observation-resultslab-eu-lab"
          ]
        },
        "performer": [
          {
            "display": "The Central European Lab"
          }
        ],
        "category": [
          {
            "coding": [
              {
                "system": "http://terminology.hl7.org/CodeSystem/observation-category",
                "code": "laboratory"
              }
            ]
          }
        ],
        "code": {
          "coding": [
            {
              "code": "5778-6",
              "system": "http://loinc.org",
              "display": "Color of Urine"
            }
          ],
          "text": "Color of Urine"
        },
        "text": {
          "status": "generated",
          "div": "<div xmlns=\"http://www.w3.org/1999/xhtml\"><table class=\"hl7__eu__lab__report\"><tr><th>Test</th><th>21-Dec-2018</th><th>Reference&#xA0;Range</th><th>Unit</th></tr><tr><td>Color of Urine</td></tr></table></div>"
        },
        "status": "final",
        "subject": {
          "reference": "urn:uuid:33fefa18-fc3f-4963-ba50-a64134c10b9d",
          "display": "Victor Lagarde"
        },
        "effectiveDateTime": "2018-12-21T04:48:18Z",
        "specimen": {
          "reference": "urn:uuid:b9c0613b-0d35-4805-bed1-ef5ef4621d62"
        }
      }
    },
    {
      "fullUrl": "urn:uuid:e167b547-181c-46fb-8bc5-cd1f9f5c93fb",
      "resource": {
        "resourceType": "Observation",
        "id": "e167b547-181c-46fb-8bc5-cd1f9f5c93fb",
        "meta": {
          "profile": [
            "http://hl7.eu/fhir/laboratory/StructureDefinition/Observation-resultslab-eu-lab"
          ]
        },
        "performer": [
          {
            "display": "The Central European Lab"
          }
        ],
        "category": [
          {
            "coding": [
              {
                "system": "http://terminology.hl7.org/CodeSystem/observation-category",
                "code": "laboratory"
              }
            ]
          }
        ],
        "code": {
          "coding": [
            {
              "code": "5792-7",
              "system": "http://loinc.org",
              "display": "Glucose [Mass/volume] in Urine by Test strip"
            }
          ],
          "text": "Glucose [Mass/volume] in Urine by Test strip"
        },
        "valueQuantity": {
          "system": "http://unitsofmeasure.org",
          "value": 2.3,
          "unit": "mg/dL",
          "code": "mg/dL"
        },
        "referenceRange": [
          {
            "low": {
              "value": 0,
              "code": "mg/dL",
              "system": "http://unitsofmeasure.org"
            }
          },
          {
            "high": {
              "value": 0.8,
              "code": "mg/dL",
              "system": "http://unitsofmeasure.org"
            }
          }
        ],
        "interpretation": [
          {
            "coding": [
              {
                "code": "H",
                "system": "http://terminology.hl7.org/CodeSystem/v3-ObservationInterpretation",
                "display": "High"
              }
            ]
          }
        ],
        "text": {
          "status": "generated",
          "div": "<div xmlns=\"http://www.w3.org/1999/xhtml\"><table class=\"hl7__eu__lab__report\"><tr><th>Test</th><th>21-Dec-2018</th><th>Reference&#xA0;Range</th><th>Unit</th></tr><tr><td>Glucose [Mass/volume] in Urine by Test strip</td><td>2.3</td><td>0 - 0.8</td><td>H</td><td>mg/dL</td></tr></table></div>"
        },
        "status": "final",
        "subject": {
          "reference": "urn:uuid:33fefa18-fc3f-4963-ba50-a64134c10b9d",
          "display": "Victor Lagarde"
        },
        "effectiveDateTime": "2018-12-21T04:48:18Z",
        "specimen": {
          "reference": "urn:uuid:b9c0613b-0d35-4805-bed1-ef5ef4621d62"
        }
      }
    },
    {
      "fullUrl": "urn:uuid:3a6259cf-13db-41d9-b464-304a88a05c18",
      "resource": {
        "resourceType": "Observation",
        "id": "3a6259cf-13db-41d9-b464-304a88a05c18",
        "meta": {
          "profile": [
            "http://hl7.eu/fhir/laboratory/StructureDefinition/Observation-resultslab-eu-lab"
          ]
        },
        "performer": [
          {
            "display": "The Central European Lab"
          }
        ],
        "category": [
          {
            "coding": [
              {
                "system": "http://terminology.hl7.org/CodeSystem/observation-category",
                "code": "laboratory"
              }
            ]
          }
        ],
        "code": {
          "coding": [
            {
              "code": "25428-4",
              "system": "http://loinc.org",
              "display": "Glucose [Presence] in Urine by Test strip"
            }
          ],
          "text": "Glucose [Presence] in Urine by Test strip"
        },
        "text": {
          "status": "generated",
          "div": "<div xmlns=\"http://www.w3.org/1999/xhtml\"><table class=\"hl7__eu__lab__report\"><tr><th>Test</th><th>21-Dec-2018</th><th>Reference&#xA0;Range</th><th>Unit</th></tr><tr><td>Glucose [Presence] in Urine by Test strip</td></tr></table></div>"
        },
        "status": "final",
        "subject": {
          "reference": "urn:uuid:33fefa18-fc3f-4963-ba50-a64134c10b9d",
          "display": "Victor Lagarde"
        },
        "effectiveDateTime": "2018-12-21T04:48:18Z",
        "specimen": {
          "reference": "urn:uuid:b9c0613b-0d35-4805-bed1-ef5ef4621d62"
        }
      }
    },
    {
      "fullUrl": "urn:uuid:73d64bae-34da-4a32-91c3-7cd46b975222",
      "resource": {
        "resourceType": "Observation",
        "id": "73d64bae-34da-4a32-91c3-7cd46b975222",
        "meta": {
          "profile": [
            "http://hl7.eu/fhir/laboratory/StructureDefinition/Observation-resultslab-eu-lab"
          ]
        },
        "performer": [
          {
            "display": "The Central European Lab"
          }
        ],
        "category": [
          {
            "coding": [
              {
                "system": "http://terminology.hl7.org/CodeSystem/observation-category",
                "code": "laboratory"
              }
            ]
          }
        ],
        "code": {
          "coding": [
            {
              "code": "20505-4",
              "system": "http://loinc.org",
              "display": "Bilirubin.total [Mass/volume] in Urine by Test strip"
            }
          ],
          "text": "Bilirubin.total [Mass/volume] in Urine by Test strip"
        },
        "valueQuantity": {
          "system": "http://unitsofmeasure.org",
          "value": 0.8,
          "unit": "mg/dL",
          "code": "mg/dL"
        },
        "referenceRange": [
          {
            "low": {
              "value": 0,
              "code": "mg/dL",
              "system": "http://unitsofmeasure.org"
            }
          },
          {
            "high": {
              "value": 1.9,
              "code": "mg/dL",
              "system": "http://unitsofmeasure.org"
            }
          }
        ],
        "text": {
          "status": "generated",
          "div": "<div xmlns=\"http://www.w3.org/1999/xhtml\"><table class=\"hl7__eu__lab__report\"><tr><th>Test</th><th>21-Dec-2018</th><th>Reference&#xA0;Range</th><th>Unit</th></tr><tr><td>Bilirubin.total [Mass/volume] in Urine by Test strip</td><td>0.8</td><td>0 - 1.9</td><td></td><td>mg/dL</td></tr></table></div>"
        },
        "status": "final",
        "subject": {
          "reference": "urn:uuid:33fefa18-fc3f-4963-ba50-a64134c10b9d",
          "display": "Victor Lagarde"
        },
        "effectiveDateTime": "2018-12-21T04:48:18Z",
        "specimen": {
          "reference": "urn:uuid:b9c0613b-0d35-4805-bed1-ef5ef4621d62"
        }
      }
    },
    {
      "fullUrl": "urn:uuid:fcd438ef-37b8-4621-8c4b-387634addbc8",
      "resource": {
        "resourceType": "Observation",
        "id": "fcd438ef-37b8-4621-8c4b-387634addbc8",
        "meta": {
          "profile": [
            "http://hl7.eu/fhir/laboratory/StructureDefinition/Observation-resultslab-eu-lab"
          ]
        },
        "performer": [
          {
            "display": "The Central European Lab"
          }
        ],
        "category": [
          {
            "coding": [
              {
                "system": "http://terminology.hl7.org/CodeSystem/observation-category",
                "code": "laboratory"
              }
            ]
          }
        ],
        "code": {
          "coding": [
            {
              "code": "5770-3",
              "system": "http://loinc.org",
              "display": "Bilirubin.total [Presence] in Urine by Test strip"
            }
          ],
          "text": "Bilirubin.total [Presence] in Urine by Test strip"
        },
        "text": {
          "status": "generated",
          "div": "<div xmlns=\"http://www.w3.org/1999/xhtml\"><table class=\"hl7__eu__lab__report\"><tr><th>Test</th><th>21-Dec-2018</th><th>Reference&#xA0;Range</th><th>Unit</th></tr><tr><td>Bilirubin.total [Presence] in Urine by Test strip</td></tr></table></div>"
        },
        "status": "final",
        "subject": {
          "reference": "urn:uuid:33fefa18-fc3f-4963-ba50-a64134c10b9d",
          "display": "Victor Lagarde"
        },
        "effectiveDateTime": "2018-12-21T04:48:18Z",
        "specimen": {
          "reference": "urn:uuid:b9c0613b-0d35-4805-bed1-ef5ef4621d62"
        }
      }
    },
    {
      "fullUrl": "urn:uuid:29d103ab-e2f6-4025-a58e-1a45651dfbe9",
      "resource": {
        "resourceType": "Observation",
        "id": "29d103ab-e2f6-4025-a58e-1a45651dfbe9",
        "meta": {
          "profile": [
            "http://hl7.eu/fhir/laboratory/StructureDefinition/Observation-resultslab-eu-lab"
          ]
        },
        "performer": [
          {
            "display": "The Central European Lab"
          }
        ],
        "category": [
          {
            "coding": [
              {
                "system": "http://terminology.hl7.org/CodeSystem/observation-category",
                "code": "laboratory"
              }
            ]
          }
        ],
        "code": {
          "coding": [
            {
              "code": "5797-6",
              "system": "http://loinc.org",
              "display": "Ketones [Mass/volume] in Urine by Test strip"
            }
          ],
          "text": "Ketones [Mass/volume] in Urine by Test strip"
        },
        "valueQuantity": {
          "system": "http://unitsofmeasure.org",
          "value": 9.9,
          "unit": "mg/dL",
          "code": "mg/dL"
        },
        "referenceRange": [
          {
            "low": {
              "value": 0,
              "code": "mg/dL",
              "system": "http://unitsofmeasure.org"
            }
          },
          {
            "high": {
              "value": 3,
              "code": "mg/dL",
              "system": "http://unitsofmeasure.org"
            }
          }
        ],
        "interpretation": [
          {
            "coding": [
              {
                "code": "H",
                "system": "http://terminology.hl7.org/CodeSystem/v3-ObservationInterpretation",
                "display": "High"
              }
            ]
          }
        ],
        "text": {
          "status": "generated",
          "div": "<div xmlns=\"http://www.w3.org/1999/xhtml\"><table class=\"hl7__eu__lab__report\"><tr><th>Test</th><th>21-Dec-2018</th><th>Reference&#xA0;Range</th><th>Unit</th></tr><tr><td>Ketones [Mass/volume] in Urine by Test strip</td><td>9.9</td><td>0 - 3</td><td>H</td><td>mg/dL</td></tr></table></div>"
        },
        "status": "final",
        "subject": {
          "reference": "urn:uuid:33fefa18-fc3f-4963-ba50-a64134c10b9d",
          "display": "Victor Lagarde"
        },
        "effectiveDateTime": "2018-12-21T04:48:18Z",
        "specimen": {
          "reference": "urn:uuid:b9c0613b-0d35-4805-bed1-ef5ef4621d62"
        }
      }
    },
    {
      "fullUrl": "urn:uuid:a7ba42d2-46fc-43ff-b838-9cc68a5506c0",
      "resource": {
        "resourceType": "Observation",
        "id": "a7ba42d2-46fc-43ff-b838-9cc68a5506c0",
        "meta": {
          "profile": [
            "http://hl7.eu/fhir/laboratory/StructureDefinition/Observation-resultslab-eu-lab"
          ]
        },
        "performer": [
          {
            "display": "The Central European Lab"
          }
        ],
        "category": [
          {
            "coding": [
              {
                "system": "http://terminology.hl7.org/CodeSystem/observation-category",
                "code": "laboratory"
              }
            ]
          }
        ],
        "code": {
          "coding": [
            {
              "code": "2514-8",
              "system": "http://loinc.org",
              "display": "Ketones [Presence] in Urine by Test strip"
            }
          ],
          "text": "Ketones [Presence] in Urine by Test strip"
        },
        "text": {
          "status": "generated",
          "div": "<div xmlns=\"http://www.w3.org/1999/xhtml\"><table class=\"hl7__eu__lab__report\"><tr><th>Test</th><th>21-Dec-2018</th><th>Reference&#xA0;Range</th><th>Unit</th></tr><tr><td>Ketones [Presence] in Urine by Test strip</td></tr></table></div>"
        },
        "status": "final",
        "subject": {
          "reference": "urn:uuid:33fefa18-fc3f-4963-ba50-a64134c10b9d",
          "display": "Victor Lagarde"
        },
        "effectiveDateTime": "2018-12-21T04:48:18Z",
        "specimen": {
          "reference": "urn:uuid:b9c0613b-0d35-4805-bed1-ef5ef4621d62"
        }
      }
    },
    {
      "fullUrl": "urn:uuid:f98ebed6-a630-43f3-857f-d8aec1097fc5",
      "resource": {
        "resourceType": "Observation",
        "id": "f98ebed6-a630-43f3-857f-d8aec1097fc5",
        "meta": {
          "profile": [
            "http://hl7.eu/fhir/laboratory/StructureDefinition/Observation-resultslab-eu-lab"
          ]
        },
        "performer": [
          {
            "display": "The Central European Lab"
          }
        ],
        "category": [
          {
            "coding": [
              {
                "system": "http://terminology.hl7.org/CodeSystem/observation-category",
                "code": "laboratory"
              }
            ]
          }
        ],
        "code": {
          "coding": [
            {
              "code": "5811-5",
              "system": "http://loinc.org",
              "display": "Specific gravity of Urine by Test strip"
            }
          ],
          "text": "Specific gravity of Urine by Test strip"
        },
        "valueQuantity": {
          "system": "http://unitsofmeasure.org",
          "value": 1,
          "unit": "{nominal}",
          "code": "{nominal}"
        },
        "referenceRange": [
          {
            "low": {
              "value": 1.01,
              "code": "g/mL",
              "system": "http://unitsofmeasure.org"
            }
          },
          {
            "high": {
              "value": 1.03,
              "code": "g/mL",
              "system": "http://unitsofmeasure.org"
            }
          }
        ],
        "interpretation": [
          {
            "coding": [
              {
                "code": "L",
                "system": "http://terminology.hl7.org/CodeSystem/v3-ObservationInterpretation",
                "display": "Low"
              }
            ]
          }
        ],
        "text": {
          "status": "generated",
          "div": "<div xmlns=\"http://www.w3.org/1999/xhtml\"><table class=\"hl7__eu__lab__report\"><tr><th>Test</th><th>21-Dec-2018</th><th>Reference&#xA0;Range</th><th>Unit</th></tr><tr><td>Specific gravity of Urine by Test strip</td><td>1.0</td><td>1.01 - 1.03</td><td>L</td><td>{nominal}</td></tr></table></div>"
        },
        "status": "final",
        "subject": {
          "reference": "urn:uuid:33fefa18-fc3f-4963-ba50-a64134c10b9d",
          "display": "Victor Lagarde"
        },
        "effectiveDateTime": "2018-12-21T04:48:18Z",
        "specimen": {
          "reference": "urn:uuid:b9c0613b-0d35-4805-bed1-ef5ef4621d62"
        }
      }
    },
    {
      "fullUrl": "urn:uuid:b1b0c988-69de-4cee-9aa5-fd03ab710f59",
      "resource": {
        "resourceType": "Observation",
        "id": "b1b0c988-69de-4cee-9aa5-fd03ab710f59",
        "meta": {
          "profile": [
            "http://hl7.eu/fhir/laboratory/StructureDefinition/Observation-resultslab-eu-lab"
          ]
        },
        "performer": [
          {
            "display": "The Central European Lab"
          }
        ],
        "category": [
          {
            "coding": [
              {
                "system": "http://terminology.hl7.org/CodeSystem/observation-category",
                "code": "laboratory"
              }
            ]
          }
        ],
        "code": {
          "coding": [
            {
              "code": "5803-2",
              "system": "http://loinc.org",
              "display": "pH of Urine by Test strip"
            }
          ],
          "text": "pH of Urine by Test strip"
        },
        "valueQuantity": {
          "system": "http://unitsofmeasure.org",
          "value": 6.5,
          "unit": "pH",
          "code": "pH"
        },
        "referenceRange": [
          {
            "low": {
              "value": 4.5,
              "code": "pH",
              "system": "http://unitsofmeasure.org"
            }
          },
          {
            "high": {
              "value": 7.5,
              "code": "pH",
              "system": "http://unitsofmeasure.org"
            }
          }
        ],
        "text": {
          "status": "generated",
          "div": "<div xmlns=\"http://www.w3.org/1999/xhtml\"><table class=\"hl7__eu__lab__report\"><tr><th>Test</th><th>21-Dec-2018</th><th>Reference&#xA0;Range</th><th>Unit</th></tr><tr><td>pH of Urine by Test strip</td><td>6.5</td><td>4.5 - 7.5</td><td></td><td>pH</td></tr></table></div>"
        },
        "status": "final",
        "subject": {
          "reference": "urn:uuid:33fefa18-fc3f-4963-ba50-a64134c10b9d",
          "display": "Victor Lagarde"
        },
        "effectiveDateTime": "2018-12-21T04:48:18Z",
        "specimen": {
          "reference": "urn:uuid:b9c0613b-0d35-4805-bed1-ef5ef4621d62"
        }
      }
    },
    {
      "fullUrl": "urn:uuid:b8a2c563-ce94-4113-8e4b-e6fb86696b23",
      "resource": {
        "resourceType": "Observation",
        "id": "b8a2c563-ce94-4113-8e4b-e6fb86696b23",
        "meta": {
          "profile": [
            "http://hl7.eu/fhir/laboratory/StructureDefinition/Observation-resultslab-eu-lab"
          ]
        },
        "performer": [
          {
            "display": "The Central European Lab"
          }
        ],
        "category": [
          {
            "coding": [
              {
                "system": "http://terminology.hl7.org/CodeSystem/observation-category",
                "code": "laboratory"
              }
            ]
          }
        ],
        "code": {
          "coding": [
            {
              "code": "5804-0",
              "system": "http://loinc.org",
              "display": "Protein [Mass/volume] in Urine by Test strip"
            }
          ],
          "text": "Protein [Mass/volume] in Urine by Test strip"
        },
        "valueQuantity": {
          "system": "http://unitsofmeasure.org",
          "value": 350.5,
          "unit": "mg/dL",
          "code": "mg/dL"
        },
        "referenceRange": [
          {
            "low": {
              "value": 0,
              "code": "mg/dL",
              "system": "http://unitsofmeasure.org"
            }
          },
          {
            "high": {
              "value": 149,
              "code": "mg/dL",
              "system": "http://unitsofmeasure.org"
            }
          }
        ],
        "interpretation": [
          {
            "coding": [
              {
                "code": "H",
                "system": "http://terminology.hl7.org/CodeSystem/v3-ObservationInterpretation",
                "display": "High"
              }
            ]
          }
        ],
        "text": {
          "status": "generated",
          "div": "<div xmlns=\"http://www.w3.org/1999/xhtml\"><table class=\"hl7__eu__lab__report\"><tr><th>Test</th><th>21-Dec-2018</th><th>Reference&#xA0;Range</th><th>Unit</th></tr><tr><td>Protein [Mass/volume] in Urine by Test strip</td><td>350.5</td><td>0 - 149</td><td>H</td><td>mg/dL</td></tr></table></div>"
        },
        "status": "final",
        "subject": {
          "reference": "urn:uuid:33fefa18-fc3f-4963-ba50-a64134c10b9d",
          "display": "Victor Lagarde"
        },
        "effectiveDateTime": "2018-12-21T04:48:18Z",
        "specimen": {
          "reference": "urn:uuid:b9c0613b-0d35-4805-bed1-ef5ef4621d62"
        }
      }
    },
    {
      "fullUrl": "urn:uuid:77901620-d148-40d8-b5fc-523ecee8dadb",
      "resource": {
        "resourceType": "Observation",
        "id": "77901620-d148-40d8-b5fc-523ecee8dadb",
        "meta": {
          "profile": [
            "http://hl7.eu/fhir/laboratory/StructureDefinition/Observation-resultslab-eu-lab"
          ]
        },
        "performer": [
          {
            "display": "The Central European Lab"
          }
        ],
        "category": [
          {
            "coding": [
              {
                "system": "http://terminology.hl7.org/CodeSystem/observation-category",
                "code": "laboratory"
              }
            ]
          }
        ],
        "code": {
          "coding": [
            {
              "code": "20454-5",
              "system": "http://loinc.org",
              "display": "Protein [Presence] in Urine by Test strip"
            }
          ],
          "text": "Protein [Presence] in Urine by Test strip"
        },
        "text": {
          "status": "generated",
          "div": "<div xmlns=\"http://www.w3.org/1999/xhtml\"><table class=\"hl7__eu__lab__report\"><tr><th>Test</th><th>21-Dec-2018</th><th>Reference&#xA0;Range</th><th>Unit</th></tr><tr><td>Protein [Presence] in Urine by Test strip</td></tr></table></div>"
        },
        "status": "final",
        "subject": {
          "reference": "urn:uuid:33fefa18-fc3f-4963-ba50-a64134c10b9d",
          "display": "Victor Lagarde"
        },
        "effectiveDateTime": "2018-12-21T04:48:18Z",
        "specimen": {
          "reference": "urn:uuid:b9c0613b-0d35-4805-bed1-ef5ef4621d62"
        }
      }
    },
    {
      "fullUrl": "urn:uuid:da620fe5-50b3-47a7-95c7-edec67a96478",
      "resource": {
        "resourceType": "Observation",
        "id": "da620fe5-50b3-47a7-95c7-edec67a96478",
        "meta": {
          "profile": [
            "http://hl7.eu/fhir/laboratory/StructureDefinition/Observation-resultslab-eu-lab"
          ]
        },
        "performer": [
          {
            "display": "The Central European Lab"
          }
        ],
        "category": [
          {
            "coding": [
              {
                "system": "http://terminology.hl7.org/CodeSystem/observation-category",
                "code": "laboratory"
              }
            ]
          }
        ],
        "code": {
          "coding": [
            {
              "code": "5802-4",
              "system": "http://loinc.org",
              "display": "Nitrite [Presence] in Urine by Test strip"
            }
          ],
          "text": "Nitrite [Presence] in Urine by Test strip"
        },
        "text": {
          "status": "generated",
          "div": "<div xmlns=\"http://www.w3.org/1999/xhtml\"><table class=\"hl7__eu__lab__report\"><tr><th>Test</th><th>21-Dec-2018</th><th>Reference&#xA0;Range</th><th>Unit</th></tr><tr><td>Nitrite [Presence] in Urine by Test strip</td></tr></table></div>"
        },
        "status": "final",
        "subject": {
          "reference": "urn:uuid:33fefa18-fc3f-4963-ba50-a64134c10b9d",
          "display": "Victor Lagarde"
        },
        "effectiveDateTime": "2018-12-21T04:48:18Z",
        "specimen": {
          "reference": "urn:uuid:b9c0613b-0d35-4805-bed1-ef5ef4621d62"
        }
      }
    },
    {
      "fullUrl": "urn:uuid:f587e9a3-4996-4cd4-8e78-7f5c27170a8e",
      "resource": {
        "resourceType": "Observation",
        "id": "f587e9a3-4996-4cd4-8e78-7f5c27170a8e",
        "meta": {
          "profile": [
            "http://hl7.eu/fhir/laboratory/StructureDefinition/Observation-resultslab-eu-lab"
          ]
        },
        "performer": [
          {
            "display": "The Central European Lab"
          }
        ],
        "category": [
          {
            "coding": [
              {
                "system": "http://terminology.hl7.org/CodeSystem/observation-category",
                "code": "laboratory"
              }
            ]
          }
        ],
        "code": {
          "coding": [
            {
              "code": "5794-3",
              "system": "http://loinc.org",
              "display": "Hemoglobin [Presence] in Urine by Test strip"
            }
          ],
          "text": "Hemoglobin [Presence] in Urine by Test strip"
        },
        "text": {
          "status": "generated",
          "div": "<div xmlns=\"http://www.w3.org/1999/xhtml\"><table class=\"hl7__eu__lab__report\"><tr><th>Test</th><th>21-Dec-2018</th><th>Reference&#xA0;Range</th><th>Unit</th></tr><tr><td>Hemoglobin [Presence] in Urine by Test strip</td></tr></table></div>"
        },
        "status": "final",
        "subject": {
          "reference": "urn:uuid:33fefa18-fc3f-4963-ba50-a64134c10b9d",
          "display": "Victor Lagarde"
        },
        "effectiveDateTime": "2018-12-21T04:48:18Z",
        "specimen": {
          "reference": "urn:uuid:b9c0613b-0d35-4805-bed1-ef5ef4621d62"
        }
      }
    },
    {
      "fullUrl": "urn:uuid:2ba280f1-cf14-4a27-b88e-1e7a2f1e6167",
      "resource": {
        "resourceType": "Observation",
        "id": "2ba280f1-cf14-4a27-b88e-1e7a2f1e6167",
        "meta": {
          "profile": [
            "http://hl7.eu/fhir/laboratory/StructureDefinition/Observation-resultslab-eu-lab"
          ]
        },
        "performer": [
          {
            "display": "The Central European Lab"
          }
        ],
        "category": [
          {
            "coding": [
              {
                "system": "http://terminology.hl7.org/CodeSystem/observation-category",
                "code": "laboratory"
              }
            ]
          }
        ],
        "code": {
          "coding": [
            {
              "code": "5799-2",
              "system": "http://loinc.org",
              "display": "Leukocyte esterase [Presence] in Urine by Test strip"
            }
          ],
          "text": "Leukocyte esterase [Presence] in Urine by Test strip"
        },
        "text": {
          "status": "generated",
          "div": "<div xmlns=\"http://www.w3.org/1999/xhtml\"><table class=\"hl7__eu__lab__report\"><tr><th>Test</th><th>21-Dec-2018</th><th>Reference&#xA0;Range</th><th>Unit</th></tr><tr><td>Leukocyte esterase [Presence] in Urine by Test strip</td></tr></table></div>"
        },
        "status": "final",
        "subject": {
          "reference": "urn:uuid:33fefa18-fc3f-4963-ba50-a64134c10b9d",
          "display": "Victor Lagarde"
        },
        "effectiveDateTime": "2018-12-21T04:48:18Z",
        "specimen": {
          "reference": "urn:uuid:b9c0613b-0d35-4805-bed1-ef5ef4621d62"
        }
      }
    },
    {
      "fullUrl": "urn:uuid:176bc31b-93f4-4f65-a80f-8e4a7334e15d",
      "resource": {
        "resourceType": "Observation",
        "id": "176bc31b-93f4-4f65-a80f-8e4a7334e15d",
        "meta": {
          "profile": [
            "http://hl7.eu/fhir/laboratory/StructureDefinition/Observation-resultslab-eu-lab"
          ]
        },
        "performer": [
          {
            "display": "The Central European Lab"
          }
        ],
        "category": [
          {
            "coding": [
              {
                "system": "http://terminology.hl7.org/CodeSystem/observation-category",
                "code": "laboratory"
              }
            ]
          }
        ],
        "code": {
          "coding": [
            {
              "code": "4548-4",
              "system": "http://loinc.org",
              "display": "Hemoglobin A1c/Hemoglobin.total in Blood"
            }
          ],
          "text": "Hemoglobin A1c/Hemoglobin.total in Blood"
        },
        "valueQuantity": {
          "system": "http://unitsofmeasure.org",
          "value": 3.1,
          "unit": "%",
          "code": "%"
        },
        "referenceRange": [
          {
            "low": {
              "value": 4.3,
              "code": "%",
              "system": "http://unitsofmeasure.org"
            }
          },
          {
            "high": {
              "value": 6,
              "code": "%",
              "system": "http://unitsofmeasure.org"
            }
          }
        ],
        "interpretation": [
          {
            "coding": [
              {
                "code": "L",
                "system": "http://terminology.hl7.org/CodeSystem/v3-ObservationInterpretation",
                "display": "Low"
              }
            ]
          }
        ],
        "text": {
          "status": "generated",
          "div": "<div xmlns=\"http://www.w3.org/1999/xhtml\"><table class=\"hl7__eu__lab__report\"><tr><th>Test</th><th>21-Dec-2018</th><th>Reference&#xA0;Range</th><th>Unit</th></tr><tr><td>Hemoglobin A1c/Hemoglobin.total in Blood</td><td>3.1</td><td>4.3 - 6</td><td>L</td><td>%</td></tr></table></div>"
        },
        "status": "final",
        "subject": {
          "reference": "urn:uuid:33fefa18-fc3f-4963-ba50-a64134c10b9d",
          "display": "Victor Lagarde"
        },
        "effectiveDateTime": "2018-12-21T04:48:18Z",
        "specimen": {
          "reference": "urn:uuid:a77f48ea-df93-49a9-867a-b52d691290c5"
        }
      }
    },
    {
      "fullUrl": "urn:uuid:c48f2b29-e50b-4da8-bb55-46fb59b196e1",
      "resource": {
        "resourceType": "Device",
        "id": "c48f2b29-e50b-4da8-bb55-46fb59b196e1",
        "deviceName": [
          {
            "name": "SYNDERAI Synthetic Generator",
            "type": "manufacturer-name"
          }
        ],
        "version": [
          {
            "value": "5.0"
          }
        ],
        "text": {
          "status": "generated",
          "div": "<div xmlns=\"http://www.w3.org/1999/xhtml\">SYNDERAI Synthetic Generator v5.0</div>"
        },
        "status": "active\"",
        "distinctIdentifier": "synderai-generator-50",
        "manufacturer": "SYNDERAI Project"
      }
    },
    {
      "fullUrl": "urn:uuid:5c044e3a-0eea-49a3-9fdc-984b1d1bae9d",
      "resource": {
        "resourceType": "Provenance",
        "id": "5c044e3a-0eea-49a3-9fdc-984b1d1bae9d",
        "target": [
          {
            "reference": "Patient/33fefa18-fc3f-4963-ba50-a64134c10b9d"
          },
          {
            "reference": "Bundle/8117d45e-16da-4b21-b207-a6c464820b5c"
          },
          {
            "reference": "Composition/8dc8268c-51c4-4b6e-9571-d718ed5ce422"
          },
          {
            "reference": "PractitionerRole/7c7c4023-db10-42a8-9622-cf3c459a3b92"
          },
          {
            "reference": "Practitioner/bd309683-cd37-41db-a4e2-9b2109180042"
          },
          {
            "reference": "PractitionerRole/a9c31000-85c2-4059-954c-85859086ffef"
          },
          {
            "reference": "Organization/8731a8de-e2ec-49dc-9a2c-e2dc75084e85"
          }
        ],
        "activity": {
          "text": "Synthetic Example Data Generation"
        },
        "policy": [
          "https://synderai.net/synderai-synthetic-data-policy"
        ],
        "agent": [
          {
            "type": {
              "text": "author"
            },
            "who": {
              "reference": "Device/c48f2b29-e50b-4da8-bb55-46fb59b196e1"
            }
          }
        ],
        "reason": [
          {
            "text": "Interoperability Testing and Training (non-clinical use)"
          }
        ],
        "text": {
          "status": "generated",
          "div": "<div xmlns=\"http://www.w3.org/1999/xhtml\">Provenance for SYNDERAI Synthetic Example Data Resource</div>"
        },
        "recorded": "2018-12-21T05:48:18Z"
      }
    },
    {
      "fullUrl": "urn:uuid:7c7c4023-db10-42a8-9622-cf3c459a3b92",
      "resource": {
        "resourceType": "PractitionerRole",
        "id": "7c7c4023-db10-42a8-9622-cf3c459a3b92",
        "meta": {
          "profile": [
            "http://hl7.eu/fhir/base/StructureDefinition/practitionerRole-eu"
          ]
        },
        "text": {
          "status": "generated",
          "div": "<div xmlns=\"http://www.w3.org/1999/xhtml\">Laboratory Role Id: 7c7c4023-db10-42a8-9622-cf3c459a3b92</div>"
        },
        "practitioner": {
          "reference": "urn:uuid:bd309683-cd37-41db-a4e2-9b2109180042"
        }
      }
    },
    {
      "fullUrl": "urn:uuid:bd309683-cd37-41db-a4e2-9b2109180042",
      "resource": {
        "resourceType": "Practitioner",
        "id": "bd309683-cd37-41db-a4e2-9b2109180042",
        "meta": {
          "profile": [
            "http://hl7.eu/fhir/base/StructureDefinition/practitioner-eu"
          ]
        },
        "identifier": [
          {
            "assigner": {
              "display": "HL7 Europe"
            },
            "system": "urn:oid:2.16.840.1.113883.2.51.999",
            "value": "04dd5c8a-396a-4e0a-81d8-d8a02fb83115"
          }
        ],
        "name": [
          {
            "prefix": [
              "dr"
            ],
            "given": [
              "Ex"
            ],
            "family": "Ample"
          }
        ],
        "address": [
          {
            "line": [
              "Laboratoire Central Européenne",
              "Boulevard du Jardin Botanique 32"
            ],
            "postalCode": "1000",
            "city": "Brussels",
            "country": "Belgium"
          }
        ],
        "text": {
          "status": "generated",
          "div": "<div xmlns=\"http://www.w3.org/1999/xhtml\">Laboratory: Laboratoire Central Européenne, 1000 Brussels, Belgium</div>"
        }
      }
    }
  ],
  "type": "document",
  "timestamp": "2018-12-21T05:48:18Z"
}
